Datetime,accx,accy,accz
2019-05-23T04:34:42.941690Z,0.043732,-0.062018,0.176571
2019-05-23T04:34:42.970690Z,-0.072049,0.090445,-0.140318
2019-05-23T04:34:43.010690Z,0.268971,-0.16622,0.260283
2019-05-23T04:34:43.053690Z,0.26863899999999996,-0.457005,0.36181399999999997
2019-05-23T04:34:43.090690Z,0.441115,-0.351394,0.112042
2019-05-23T04:34:43.130690Z,0.604085,0.08945800000000001,-1.033598
2019-05-23T04:34:43.170690Z,0.667854,0.192163,-1.056052
2019-05-23T04:34:43.230690Z,-0.151281,0.995117,-1.853479
2019-05-23T04:34:43.250690Z,-0.489446,0.575238,-0.64884
2019-05-23T04:34:43.290690Z,-0.536266,0.592152,-0.6517350000000001
2019-05-23T04:34:43.331690Z,-0.261894,0.5926100000000001,0.217867
2019-05-23T04:34:43.370690Z,-0.112252,0.946708,-0.031241
2019-05-23T04:34:43.410690Z,-0.040142000000000004,0.9542309999999999,-0.034329000000000005
2019-05-23T04:34:43.450690Z,-0.045147,1.1599780000000002,0.468336
2019-05-23T04:34:43.491690Z,-0.791463,0.9633010000000001,0.576693
2019-05-23T04:34:43.530690Z,-0.919507,0.788669,0.625343
2019-05-23T04:34:43.570690Z,-0.835065,0.5040359999999999,1.312548
2019-05-23T04:34:43.610690Z,-0.380284,0.191993,0.827319
2019-05-23T04:34:43.650690Z,-0.47259799999999996,0.084766,0.8623860000000001
2019-05-23T04:34:43.690690Z,-0.379925,-0.5120279999999999,0.237166
2019-05-23T04:34:43.730690Z,0.205198,-1.4115719999999998,0.6168100000000001
2019-05-23T04:34:43.771690Z,0.22644699999999998,-1.5125950000000001,0.677897
2019-05-23T04:34:43.812690Z,-0.341864,-0.9220309999999999,-0.947211
2019-05-23T04:34:43.852690Z,-0.4419,-0.771022,-0.596962
2019-05-23T04:34:43.891690Z,-0.471879,-0.762864,-0.585093
2019-05-23T04:34:43.933690Z,0.084823,-0.38524400000000003,-0.10645299999999999
2019-05-23T04:34:43.971690Z,0.336573,-0.1647,-0.782015
2019-05-23T04:34:44.011690Z,0.37806799999999996,-0.11479,-0.793953
2019-05-23T04:34:44.050690Z,0.163104,-0.214946,-0.8524930000000001
2019-05-23T04:34:44.125690Z,-0.260203,-0.056634000000000004,-0.948241
2019-05-23T04:34:44.139690Z,-0.325278,-0.088931,-0.915502
2019-05-23T04:34:44.174690Z,-0.268384,0.088921,0.254875
2019-05-23T04:34:44.210690Z,0.104996,0.47228400000000004,0.404141
2019-05-23T04:34:44.250690Z,0.16506400000000002,0.391889,0.441175
2019-05-23T04:34:44.292690Z,0.071626,0.5322439999999999,0.22517199999999998
2019-05-23T04:34:44.330690Z,-0.137958,0.630532,0.8754559999999999
2019-05-23T04:34:44.372690Z,-0.128018,0.589354,0.880437
2019-05-23T04:34:44.413690Z,0.313243,0.068213,0.538445
2019-05-23T04:34:44.451690Z,0.446775,-0.994077,1.219155
2019-05-23T04:34:44.491690Z,0.53877,-1.0199340000000001,1.2298559999999998
2019-05-23T04:34:44.533690Z,0.532589,-0.7379979999999999,0.032046
2019-05-23T04:34:44.571690Z,0.49335100000000004,-0.90575,-0.276278
2019-05-23T04:34:44.611690Z,0.5495260000000001,-0.8533860000000001,-0.291553
2019-05-23T04:34:44.652690Z,0.22198800000000002,-0.899451,-0.07521
2019-05-23T04:34:44.691690Z,0.077172,-0.960723,-0.096493
2019-05-23T04:34:44.731690Z,0.202943,-0.949926,-0.079808
2019-05-23T04:34:44.771690Z,-0.17351,-0.40771799999999997,-1.044114
2019-05-23T04:34:44.811690Z,-0.6513439999999999,0.101414,-1.629045
2019-05-23T04:34:44.881690Z,-0.706435,0.23283,-1.6838919999999997
2019-05-23T04:34:44.902690Z,-0.720418,-0.07772899999999999,0.423771
2019-05-23T04:34:44.936690Z,-1.534173,-0.49334300000000003,0.9812629999999999
2019-05-23T04:34:44.971690Z,-1.520921,-0.510458,0.9789469999999999
2019-05-23T04:34:45.011690Z,-0.821973,-0.26001599999999997,1.065083
2019-05-23T04:34:45.051690Z,-1.435613,-0.11914000000000001,0.349564
2019-05-23T04:34:45.092690Z,-1.547416,-0.158895,0.360365
2019-05-23T04:34:45.133690Z,-1.0156399999999999,-0.459192,1.0177459999999998
2019-05-23T04:34:45.172690Z,-0.964384,-1.898736,1.8123259999999999
2019-05-23T04:34:45.211690Z,-0.787538,-1.8576080000000001,1.789795
2019-05-23T04:34:45.266690Z,-1.05231,-1.001463,-0.15376900000000002
2019-05-23T04:34:45.298690Z,-1.762348,-0.895776,-0.646058
2019-05-23T04:34:45.332690Z,-1.831981,-0.74279,-0.7217560000000001
2019-05-23T04:34:45.371690Z,-1.123006,-1.400684,0.28122800000000003
2019-05-23T04:34:45.411690Z,-0.445826,-1.3347440000000002,0.928233
2019-05-23T04:34:45.451690Z,-0.382869,-1.348127,0.9360430000000001
2019-05-23T04:34:45.492690Z,0.33361,-1.0173159999999999,0.658791
2019-05-23T04:34:45.531690Z,0.6996600000000001,-0.897874,0.44505200000000006
2019-05-23T04:34:45.572690Z,0.705703,-1.024238,0.5234989999999999
2019-05-23T04:34:45.611690Z,1.2998610000000002,-0.437213,0.057435
2019-05-23T04:34:45.652690Z,1.284345,-0.128635,0.582925
2019-05-23T04:34:45.695690Z,1.27072,-0.352338,0.7286520000000001
2019-05-23T04:34:45.733690Z,0.593001,0.387573,0.791488
2019-05-23T04:34:45.773690Z,0.46275900000000003,1.099934,-0.413578
2019-05-23T04:34:45.812690Z,0.609834,1.131437,-0.42430500000000004
2019-05-23T04:34:45.852690Z,1.061719,1.018684,-0.059522000000000005
2019-05-23T04:34:45.892690Z,0.950213,0.461237,-0.430259
2019-05-23T04:34:45.931690Z,0.817203,0.5246689999999999,-0.485133
2019-05-23T04:34:45.972690Z,2.363108,-0.06862599999999999,0.44275600000000004
2019-05-23T04:34:46.013690Z,2.070641,-0.647817,-0.022198
2019-05-23T04:34:46.053690Z,2.04652,-0.485572,-0.11363499999999999
2019-05-23T04:34:46.092690Z,1.348554,-0.6901520000000001,0.020657
2019-05-23T04:34:46.136690Z,1.7465549999999999,-0.378266,-0.549938
2019-05-23T04:34:46.172690Z,1.7022979999999999,-0.282695,-0.594487
2019-05-23T04:34:46.277690Z,0.886415,-0.205617,-1.727638
2019-05-23T04:34:46.278690Z,0.9714950000000001,0.332959,-0.47877200000000003
2019-05-23T04:34:46.306690Z,0.9097270000000001,0.261845,-0.433119
2019-05-23T04:34:46.333690Z,0.514903,0.401995,-0.47680900000000004
2019-05-23T04:34:46.372690Z,1.038504,0.805946,0.261024
2019-05-23T04:34:46.415690Z,1.066706,0.758336,0.278916
2019-05-23T04:34:46.453690Z,0.9522510000000001,1.2418420000000001,-0.45646899999999996
2019-05-23T04:34:46.494690Z,0.516968,1.302371,0.10897899999999999
2019-05-23T04:34:46.533690Z,0.356759,1.1831690000000001,0.168125
2019-05-23T04:34:46.574690Z,0.4485,0.9606520000000001,2.0388669999999998
2019-05-23T04:34:46.615690Z,1.000242,0.990539,0.885605
2019-05-23T04:34:46.652690Z,0.9767879999999999,0.927251,0.90235
2019-05-23T04:34:46.695690Z,0.8582040000000001,-0.912861,1.459962
2019-05-23T04:34:46.732690Z,0.8390120000000001,-0.864662,-0.672334
2019-05-23T04:34:46.772690Z,0.761299,-0.827888,-0.676818
2019-05-23T04:34:46.812690Z,0.247022,-1.145718,-0.8873049999999999
2019-05-23T04:34:46.852690Z,0.179818,-1.6323370000000001,-0.310228
2019-05-23T04:34:46.892690Z,0.185043,-1.553325,-0.34028400000000003
2019-05-23T04:34:46.933690Z,0.480137,-0.735136,-0.8293280000000001
2019-05-23T04:34:46.973690Z,0.318431,-0.367967,-0.9037950000000001
2019-05-23T04:34:47.014690Z,0.281366,-0.331387,-0.9077149999999999
2019-05-23T04:34:47.054690Z,0.219356,-0.197235,-0.357671
2019-05-23T04:34:47.095690Z,0.697394,-0.019780000000000002,-0.350458
2019-05-23T04:34:47.135690Z,0.797756,-0.037236,-0.33547
2019-05-23T04:34:47.174690Z,1.0202799999999999,0.531482,-0.093084
2019-05-23T04:34:47.213690Z,0.852864,1.20286,0.31812399999999996
2019-05-23T04:34:47.254690Z,0.9027649999999999,1.1252389999999999,0.349693
2019-05-23T04:34:47.293690Z,1.9655770000000001,1.02528,1.7379779999999998
2019-05-23T04:34:47.333690Z,1.4434879999999999,0.330608,-0.362669
2019-05-23T04:34:47.373690Z,1.393793,0.5173439999999999,-0.470846
2019-05-23T04:34:47.422690Z,2.981115,0.411438,1.876596
2019-05-23T04:34:47.461690Z,2.6299740000000003,-0.174466,0.9806799999999999
2019-05-23T04:34:47.493690Z,2.521865,-0.19337000000000001,0.9750209999999999
2019-05-23T04:34:47.534690Z,3.5847279999999997,-0.665514,1.070228
2019-05-23T04:34:47.574690Z,2.792282,-1.255391,-0.023844
2019-05-23T04:34:47.616690Z,2.712323,-1.3792870000000002,0.061775
2019-05-23T04:34:47.654690Z,2.458043,-1.563382,-0.095658
2019-05-23T04:34:47.694690Z,1.758835,-1.207051,-1.008881
2019-05-23T04:34:47.733690Z,1.655097,-1.2341950000000002,-0.961851
2019-05-23T04:34:47.778690Z,0.908739,-1.249607,-0.13573
2019-05-23T04:34:47.813690Z,0.8871629999999999,-0.6052609999999999,0.6290399999999999
2019-05-23T04:34:47.853690Z,0.80565,-0.674888,0.674972
2019-05-23T04:34:47.894690Z,0.8697090000000001,0.318721,0.869308
2019-05-23T04:34:47.936690Z,0.774331,0.8936709999999999,0.277398
2019-05-23T04:34:47.975690Z,0.7264550000000001,0.779875,0.344474
2019-05-23T04:34:48.014690Z,-0.032859,0.330029,0.627212
2019-05-23T04:34:48.055690Z,-0.459071,-0.362819,0.755206
2019-05-23T04:34:48.095690Z,-0.520896,-0.38816999999999996,0.771824
2019-05-23T04:34:48.136690Z,-0.457003,-0.703978,1.376714
2019-05-23T04:34:48.174690Z,0.18453,-0.711245,0.386168
2019-05-23T04:34:48.215690Z,0.263923,-0.709151,0.382009
2019-05-23T04:34:48.254690Z,0.11336600000000001,-0.745355,-0.27115300000000003
2019-05-23T04:34:48.295690Z,0.238341,-1.181691,-0.458682
2019-05-23T04:34:48.334690Z,0.5070520000000001,-0.9829120000000001,-0.577337
2019-05-23T04:34:48.416690Z,-0.288904,-1.23747,-0.482468
2019-05-23T04:34:48.417690Z,-1.310162,-0.463437,-0.6264149999999999
2019-05-23T04:34:48.454690Z,-1.3915440000000001,-0.571384,-0.535925
2019-05-23T04:34:48.494690Z,-0.5463819999999999,-0.36175799999999997,0.446222
2019-05-23T04:34:48.538690Z,-0.491508,0.225399,0.125319
2019-05-23T04:34:48.573690Z,-0.494579,0.153112,0.172219
2019-05-23T04:34:48.617690Z,-0.645641,0.49991899999999995,0.380825
2019-05-23T04:34:48.655690Z,-0.7053189999999999,0.323123,0.292833
2019-05-23T04:34:48.694690Z,-0.77346,0.21584,0.366937
2019-05-23T04:34:48.736690Z,-1.155093,0.155176,1.18327
2019-05-23T04:34:48.774690Z,-0.51346,0.252656,1.467049
2019-05-23T04:34:48.814690Z,-0.541963,0.241921,1.448868
2019-05-23T04:34:48.854690Z,-0.8731909999999999,-1.086371,1.747407
2019-05-23T04:34:48.895690Z,-1.45115,-0.740414,0.43089399999999994
2019-05-23T04:34:48.938690Z,-1.5865479999999998,-0.8272639999999999,0.519937
2019-05-23T04:34:48.975690Z,-0.22938699999999998,-0.8302290000000001,0.237193
2019-05-23T04:34:49.015690Z,-0.10818699999999999,-0.997692,-0.15423800000000001
2019-05-23T04:34:49.055690Z,-0.051263,-1.019369,-0.12369300000000001
2019-05-23T04:34:49.094690Z,-0.31461500000000003,-1.494276,0.164141
2019-05-23T04:34:49.137690Z,-0.017458,-0.9123129999999999,-1.021616
2019-05-23T04:34:49.177690Z,0.01567,-0.9030219999999999,-1.001356
2019-05-23T04:34:49.217690Z,0.43975200000000003,-0.450107,-0.177801
2019-05-23T04:34:49.256690Z,0.293241,0.011389,0.098773
2019-05-23T04:34:49.296690Z,0.412732,0.024581,0.08277799999999999
2019-05-23T04:34:49.339690Z,0.275163,0.376797,0.320812
2019-05-23T04:34:49.377690Z,-0.295269,0.34072199999999997,0.408942
2019-05-23T04:34:49.415690Z,-0.151694,0.337654,0.40336500000000003
2019-05-23T04:34:49.456690Z,-0.147874,0.468866,-0.081126
2019-05-23T04:34:49.497690Z,-0.08995299999999999,0.242943,0.5617949999999999
2019-05-23T04:34:49.538690Z,0.0066040000000000005,0.37348899999999996,0.449533
2019-05-23T04:34:49.575690Z,0.011432,-0.974291,1.4402059999999999
2019-05-23T04:34:49.659690Z,-0.558623,-1.0943260000000001,0.538084
2019-05-23T04:34:49.660690Z,-0.687959,-1.202575,0.6233390000000001
2019-05-23T04:34:49.699690Z,-0.18556199999999998,-0.847735,-0.178905
2019-05-23T04:34:49.737690Z,-0.1253,-1.139642,-0.7591680000000001
2019-05-23T04:34:49.776690Z,-0.11729500000000001,-1.0437889999999999,-0.8063140000000001
2019-05-23T04:34:49.816690Z,-0.377258,-0.853564,0.362638
2019-05-23T04:34:49.858690Z,-0.626346,-0.40618000000000004,-0.399698
2019-05-23T04:34:49.896690Z,-0.7143689999999999,-0.411386,-0.385036
2019-05-23T04:34:49.937690Z,-0.63936,0.048193,-1.080589
2019-05-23T04:34:49.976690Z,-0.564823,0.061512,-0.131652
2019-05-23T04:34:50.025690Z,-0.596158,0.029318,-0.104102
2019-05-23T04:34:50.057690Z,-0.5556909999999999,0.33986500000000003,0.27215700000000004
2019-05-23T04:34:50.096690Z,-0.670642,0.588026,1.008321
2019-05-23T04:34:50.139690Z,-0.647921,0.44445100000000004,1.105132
2019-05-23T04:34:50.176690Z,-0.690968,0.778079,0.7729090000000001
2019-05-23T04:34:50.216690Z,-0.5041479999999999,0.304906,0.6505569999999999
2019-05-23T04:34:50.256690Z,-0.534199,0.24418299999999998,0.689137
2019-05-23T04:34:50.297690Z,-0.37292600000000004,-0.9039,2.003551
2019-05-23T04:34:50.339690Z,-0.014987,-1.191076,0.629895
2019-05-23T04:34:50.376690Z,0.018448,-1.1583430000000001,0.606395
2019-05-23T04:34:50.416690Z,-0.244238,-0.966025,-0.774107
2019-05-23T04:34:50.456690Z,-0.628445,-0.7017100000000001,-0.556362
2019-05-23T04:34:50.498690Z,-0.655365,-0.724745,-0.514729
2019-05-23T04:34:50.538690Z,-0.29692199999999996,-0.597344,0.028649
2019-05-23T04:34:50.576690Z,0.011262000000000001,-0.204741,-0.177463
2019-05-23T04:34:50.618690Z,0.08029299999999999,-0.183839,-0.19236199999999998
2019-05-23T04:34:50.658690Z,0.15146600000000002,-0.211982,0.207603
2019-05-23T04:34:50.698690Z,0.205242,-0.349258,0.544343
2019-05-23T04:34:50.738690Z,0.253387,-0.391995,0.5787680000000001
2019-05-23T04:34:50.777690Z,0.40930300000000003,-0.08001699999999999,-0.013713
2019-05-23T04:34:50.818690Z,0.6436,0.789276,-0.21966599999999997
2019-05-23T04:34:50.858690Z,0.727154,0.727919,-0.168762
2019-05-23T04:34:50.897690Z,0.391796,0.734618,0.575398
2019-05-23T04:34:50.937690Z,0.16406300000000001,0.388902,-0.306069
2019-05-23T04:34:50.977690Z,0.288035,0.522104,-0.42058599999999996
2019-05-23T04:34:51.016690Z,0.122993,0.054242,0.314235
2019-05-23T04:34:51.056690Z,0.248121,-0.915551,1.530109
2019-05-23T04:34:51.098690Z,0.275522,-0.9962409999999999,1.599504
2019-05-23T04:34:51.139690Z,-0.07824099999999999,-0.8319559999999999,0.7969729999999999
2019-05-23T04:34:51.178690Z,0.54864,-0.8690459999999999,-0.148574
2019-05-23T04:34:51.217690Z,0.674141,-0.748491,-0.2209
2019-05-23T04:34:51.259690Z,0.949808,-0.471725,-0.509999
2019-05-23T04:34:51.297690Z,0.7089529999999999,-0.585259,-0.49135500000000004
2019-05-23T04:34:51.337690Z,0.6657850000000001,-0.52241,-0.532586
2019-05-23T04:34:51.411690Z,0.257862,-0.6577810000000001,-0.24311999999999998
2019-05-23T04:34:51.421690Z,0.324473,-0.366683,0.08565700000000001
2019-05-23T04:34:51.459690Z,0.10389200000000001,-0.42720600000000003,0.105127
2019-05-23T04:34:51.496690Z,0.229411,-0.24640900000000002,1.026701
2019-05-23T04:34:51.537690Z,1.1401540000000001,-0.256316,1.179793
2019-05-23T04:34:51.577690Z,1.182848,-0.277545,1.188519
2019-05-23T04:34:51.617690Z,1.6000219999999998,-0.059111000000000004,0.913383
2019-05-23T04:34:51.661690Z,1.8639279999999998,0.16661600000000001,0.5998720000000001
2019-05-23T04:34:51.698690Z,1.855407,0.315206,0.470287
2019-05-23T04:34:51.740690Z,1.823727,-0.399618,1.324942
2019-05-23T04:34:51.778690Z,2.039285,-1.04195,2.552906
2019-05-23T04:34:51.817690Z,1.92635,-1.1389040000000001,2.59334
2019-05-23T04:34:51.859690Z,1.516853,-0.5025149999999999,0.6452
2019-05-23T04:34:51.900690Z,2.3721200000000002,-0.216585,0.594294
2019-05-23T04:34:51.936690Z,2.373462,-0.293223,0.653487
2019-05-23T04:34:51.977690Z,1.393256,-0.9262090000000001,-0.033722
2019-05-23T04:34:52.017690Z,0.034988,-1.208826,-0.469641
2019-05-23T04:34:52.057690Z,-0.07810299999999999,-1.2358,-0.42272600000000005
2019-05-23T04:34:52.097690Z,-0.888969,-1.226808,-0.157687
2019-05-23T04:34:52.140690Z,-0.606529,-0.696398,0.564645
2019-05-23T04:34:52.178690Z,-0.657892,-0.701663,0.570542
2019-05-23T04:34:52.218690Z,-0.42376,0.144334,0.177346
2019-05-23T04:34:52.258690Z,0.281702,0.9442649999999999,0.46822700000000006
2019-05-23T04:34:52.298690Z,0.34663299999999997,0.8470559999999999,0.535034
2019-05-23T04:34:52.338690Z,0.338648,0.388293,0.6551170000000001
2019-05-23T04:34:52.378690Z,-1.1691479999999999,-0.893423,1.0891680000000001
2019-05-23T04:34:52.420690Z,-1.1723569999999999,-0.9313020000000001,1.12287
2019-05-23T04:34:52.457690Z,-1.613189,-1.1687450000000001,1.29196
2019-05-23T04:34:52.498690Z,-1.551261,-0.35638400000000003,0.534424
2019-05-23T04:34:52.539690Z,-1.554633,-0.397675,0.573288
2019-05-23T04:34:52.578690Z,-0.41087399999999996,-0.799551,1.421535
2019-05-23T04:34:52.619690Z,-1.099907,-1.520349,0.16046300000000002
2019-05-23T04:34:52.659690Z,-1.034529,-1.463587,0.126116
2019-05-23T04:34:52.700690Z,-1.400871,-1.79892,-0.349891
2019-05-23T04:34:52.739690Z,-1.172906,-1.4771,-0.13630899999999999
2019-05-23T04:34:52.779690Z,-1.047791,-1.409606,-0.173298
2019-05-23T04:34:52.819690Z,-1.032988,-1.032332,-0.38301
2019-05-23T04:34:52.859690Z,-1.058354,-0.452128,-0.018169
2019-05-23T04:34:52.899690Z,-1.045793,-0.431962,-0.029307
2019-05-23T04:34:52.941690Z,-1.036988,-0.131442,0.5479350000000001
2019-05-23T04:34:52.980690Z,-0.504039,0.153513,0.927056
2019-05-23T04:34:53.019690Z,-0.43471899999999997,0.089931,0.9702139999999999
2019-05-23T04:34:53.058690Z,-0.377594,0.417112,1.25916
2019-05-23T04:34:53.099690Z,-0.199543,0.123563,1.291566
2019-05-23T04:34:53.141690Z,-0.187159,0.314877,1.095542
2019-05-23T04:34:53.179690Z,-1.382876,0.40528400000000003,0.7711819999999999
2019-05-23T04:34:53.218690Z,-0.386934,-1.292807,4.164111
2019-05-23T04:34:53.266690Z,-0.455254,-1.443338,4.246519999999999
2019-05-23T04:34:53.298690Z,0.385121,-1.298079,0.036641
2019-05-23T04:34:53.345690Z,0.698918,-1.342054,-1.086606
2019-05-23T04:34:53.379690Z,0.807769,-1.256174,-1.1162889999999999
2019-05-23T04:34:53.418690Z,0.258589,-1.63683,-1.612279
2019-05-23T04:34:53.458690Z,0.336372,-0.907942,-0.278924
2019-05-23T04:34:53.499690Z,0.27624299999999996,-0.9251440000000001,-0.248542
2019-05-23T04:34:53.541690Z,0.27115100000000003,-0.569209,-1.1413440000000001
2019-05-23T04:34:53.580690Z,0.299039,-0.072659,-0.28998
2019-05-23T04:34:53.619690Z,0.373479,-0.053162,-0.294661
2019-05-23T04:34:53.659690Z,0.005354,0.345367,0.46980900000000003
2019-05-23T04:34:53.699690Z,-0.20845999999999998,0.9192899999999999,0.269812
2019-05-23T04:34:53.741690Z,-0.191914,0.860716,0.307212
2019-05-23T04:34:53.780690Z,-0.080785,0.404404,2.511453
2019-05-23T04:34:53.819690Z,-0.36539499999999997,0.491354,-0.176091
2019-05-23T04:34:53.860690Z,-0.49261499999999997,0.5649029999999999,-0.265734
2019-05-23T04:34:53.899690Z,-0.11399300000000001,-0.349108,1.7366599999999999
2019-05-23T04:34:53.941690Z,0.113809,-1.8317439999999998,1.132588
2019-05-23T04:34:53.980690Z,0.051864,-1.7947689999999998,1.1029
2019-05-23T04:34:54.019690Z,0.693712,-1.529592,-0.129353
2019-05-23T04:34:54.060690Z,0.426307,-1.627636,0.08596000000000001
2019-05-23T04:34:54.101690Z,0.387021,-1.5355219999999998,0.023615999999999998
2019-05-23T04:34:54.144690Z,0.590531,-1.291954,0.12515199999999999
2019-05-23T04:34:54.179690Z,0.525447,-0.720993,-0.129424
2019-05-23T04:34:54.220690Z,0.5252479999999999,-0.673122,-0.158502
2019-05-23T04:34:54.261690Z,0.369661,-0.285306,-0.28505
2019-05-23T04:34:54.301690Z,-0.10435699999999999,-0.255571,0.26698099999999997
2019-05-23T04:34:54.342690Z,-0.097018,-0.231239,0.245692
2019-05-23T04:34:54.381690Z,-0.346302,-0.19634200000000002,0.390323
2019-05-23T04:34:54.421690Z,-0.24195999999999998,-0.09175499999999999,0.676875
2019-05-23T04:34:54.461690Z,-0.14843199999999998,-0.124471,0.6992149999999999
2019-05-23T04:34:54.501690Z,0.69379,0.392833,0.808248
2019-05-23T04:34:54.544690Z,-0.159244,0.46166,-0.230131
2019-05-23T04:34:54.580690Z,-0.237155,0.46040200000000003,-0.237474
2019-05-23T04:34:54.621690Z,0.131736,-0.541309,3.0695930000000002
2019-05-23T04:34:54.661690Z,0.46603100000000003,-1.125183,1.323998
2019-05-23T04:34:54.702690Z,0.534224,-1.134126,1.33115
2019-05-23T04:34:54.742690Z,1.271004,-1.2567620000000002,0.572994
2019-05-23T04:34:54.781690Z,0.44319200000000003,-0.7991739999999999,-0.392701
2019-05-23T04:34:54.822690Z,0.46802200000000005,-0.767145,-0.398387
2019-05-23T04:34:54.861690Z,-0.146525,-1.088078,0.101099
2019-05-23T04:34:54.901690Z,0.372334,-0.760087,-0.034553
2019-05-23T04:34:54.942690Z,0.5974649999999999,-0.749905,0.006677
2019-05-23T04:34:54.980690Z,0.303464,-0.243817,-0.314015
2019-05-23T04:34:55.022690Z,-0.038087,-0.321314,-0.3278
2019-05-23T04:34:55.063690Z,0.109348,-0.332811,-0.274491
2019-05-23T04:34:55.101690Z,0.309886,-0.074545,-0.295573
2019-05-23T04:34:55.143690Z,-0.109126,0.26001399999999997,-0.756305
2019-05-23T04:34:55.181690Z,-0.049163,0.319037,-0.7824840000000001
2019-05-23T04:34:55.221690Z,-0.116855,0.305931,0.068118
2019-05-23T04:34:55.261690Z,-0.188297,0.619375,0.6751699999999999
2019-05-23T04:34:55.300690Z,-0.166721,0.5705100000000001,0.702388
2019-05-23T04:34:55.341690Z,0.612298,1.281634,0.35133400000000004
2019-05-23T04:34:55.381690Z,-0.419104,0.43518900000000005,0.788423
2019-05-23T04:34:55.421690Z,-0.424385,0.372828,0.81788
2019-05-23T04:34:55.461690Z,-0.959636,-1.03916,2.188859
2019-05-23T04:34:55.501690Z,-0.915905,-1.359042,-0.5153300000000001
2019-05-23T04:34:55.540690Z,-0.926208,-1.33438,-0.515302
2019-05-23T04:34:55.580690Z,-0.147378,-1.217069,-0.797143
2019-05-23T04:34:55.620690Z,-0.145749,-1.0456299999999998,-0.071076
2019-05-23T04:34:55.661690Z,-0.12157799999999999,-1.026414,-0.065471
2019-05-23T04:34:55.701690Z,0.182364,-0.879735,0.32309499999999997
2019-05-23T04:34:55.742690Z,0.588026,-0.380015,-0.49992
2019-05-23T04:34:55.781690Z,0.65498,-0.385725,-0.459088
2019-05-23T04:34:55.821690Z,0.709374,-0.36707399999999996,-0.043854000000000004
2019-05-23T04:34:55.860690Z,0.49263999999999997,-0.248106,-0.078926
2019-05-23T04:34:55.934690Z,0.49391899999999994,-0.246721,-0.072297
2019-05-23T04:34:55.944690Z,0.638091,0.02696,0.706516
2019-05-23T04:34:55.980690Z,0.046053,0.335127,1.169575
2019-05-23T04:34:56.021690Z,-0.118121,0.276998,1.143442
2019-05-23T04:34:56.061690Z,-0.050366,0.688233,1.171982
2019-05-23T04:34:56.103690Z,0.304056,0.26404299999999997,1.12562
2019-05-23T04:34:56.142690Z,0.069147,0.264891,1.055483
2019-05-23T04:34:56.180690Z,1.086726,-0.664417,2.39418
2019-05-23T04:34:56.222690Z,1.542035,-1.383699,0.569908
2019-05-23T04:34:56.261690Z,1.401565,-1.342114,0.531778
2019-05-23T04:34:56.326690Z,1.39299,-1.7165419999999998,0.626556
2019-05-23T04:34:56.341690Z,0.8801049999999999,-1.317336,0.17915599999999998
2019-05-23T04:34:56.382690Z,0.7304729999999999,-1.37074,0.224456
2019-05-23T04:34:56.423690Z,1.312948,-1.169928,0.518126
2019-05-23T04:34:56.462690Z,0.8034859999999999,-0.9403889999999999,-0.080678
2019-05-23T04:34:56.501690Z,0.760771,-0.954842,-0.055884
2019-05-23T04:34:56.542690Z,1.264856,-0.412696,-0.159769
2019-05-23T04:34:56.582690Z,1.1512149999999999,-0.25288099999999997,0.136303
2019-05-23T04:34:56.621690Z,1.11344,-0.28311,0.161113
2019-05-23T04:34:56.661690Z,1.229651,-0.076541,0.650146
2019-05-23T04:34:56.703690Z,1.149008,0.37301100000000004,0.713216
2019-05-23T04:34:56.744690Z,1.272152,0.246538,0.801393
2019-05-23T04:34:56.781690Z,0.828259,0.407023,1.1450879999999999
2019-05-23T04:34:56.824690Z,-0.387448,0.781748,0.798237
2019-05-23T04:34:56.863690Z,-0.433011,0.56166,0.979643
2019-05-23T04:34:56.904690Z,-0.337476,0.037924,1.62827
2019-05-23T04:34:56.943690Z,-0.545139,-0.334472,0.688084
2019-05-23T04:34:56.983690Z,-0.511857,-0.41858100000000004,0.776886
2019-05-23T04:34:57.022690Z,-0.40762800000000005,-0.8916440000000001,-0.043745
2019-05-23T04:34:57.061690Z,-0.6224649999999999,-1.571476,0.640893
2019-05-23T04:34:57.102690Z,-0.5815819999999999,-1.598694,0.690596
2019-05-23T04:34:57.143690Z,-0.162351,-2.199959,1.347647
2019-05-23T04:34:57.183690Z,-0.248617,-1.866509,0.489353
2019-05-23T04:34:57.223690Z,-0.150403,-1.788507,0.429253
2019-05-23T04:34:57.263690Z,0.885368,-0.720726,0.022212
2019-05-23T04:34:57.302690Z,0.759213,-1.005223,0.8879450000000001
2019-05-23T04:34:57.343690Z,0.8539,-1.063105,0.969024
2019-05-23T04:34:57.382690Z,0.9819530000000001,-0.819643,1.38113
2019-05-23T04:34:57.422690Z,0.757957,-0.471571,0.359304
2019-05-23T04:34:57.481690Z,0.821815,-0.48111800000000005,0.384843
2019-05-23T04:34:57.509690Z,1.239359,-0.136765,0.16353900000000002
2019-05-23T04:34:57.542690Z,1.1018620000000001,-0.10357899999999999,0.5005109999999999
2019-05-23T04:34:57.582690Z,1.100601,-0.060661,0.44527100000000003
2019-05-23T04:34:57.622690Z,1.263749,-0.21024400000000001,0.937008
2019-05-23T04:34:57.662690Z,0.420304,-0.326815,0.832565
2019-05-23T04:34:57.703690Z,0.376247,-0.208396,0.689815
2019-05-23T04:34:57.744690Z,1.375167,-0.9455290000000001,2.632154
2019-05-23T04:34:57.782690Z,0.972484,-1.577442,1.352211
2019-05-23T04:34:57.839690Z,0.8681700000000001,-1.466872,1.234738
2019-05-23T04:34:57.862690Z,1.225903,-0.9877940000000001,0.218283
2019-05-23T04:34:57.903690Z,1.624221,-0.6901510000000001,0.337167
2019-05-23T04:34:57.947690Z,1.652367,-0.593406,0.255106
2019-05-23T04:34:57.983690Z,1.8830639999999998,-0.801138,0.42279300000000003
2019-05-23T04:34:58.026690Z,0.384011,-1.195537,0.350576
2019-05-23T04:34:58.062690Z,0.184711,-1.177454,0.341387
2019-05-23T04:34:58.103690Z,0.109773,-0.260464,-0.883066
2019-05-23T04:34:58.144690Z,1.262829,0.9037440000000001,0.902626
2019-05-23T04:34:58.184690Z,1.204559,0.7795340000000001,0.9822709999999999
2019-05-23T04:34:58.223690Z,-0.109983,-0.013666999999999999,2.396414
2019-05-23T04:34:58.263690Z,0.10721900000000001,0.23893899999999998,2.025427
2019-05-23T04:34:58.304690Z,0.254873,0.13498800000000002,2.095698
2019-05-23T04:34:58.344690Z,0.431771,0.020257,0.404312
2019-05-23T04:34:58.384690Z,-0.811923,-0.997885,1.388334
2019-05-23T04:34:58.422690Z,-0.690112,-1.0713700000000002,1.463457
2019-05-23T04:34:58.463690Z,0.318307,-1.9194330000000002,0.8849040000000001
2019-05-23T04:34:58.504690Z,-0.445417,-1.7888959999999998,-0.34381799999999996
2019-05-23T04:34:58.568690Z,-0.364148,-1.562922,-0.529655
2019-05-23T04:34:58.594690Z,0.107635,-1.408269,-0.365638
2019-05-23T04:34:58.624690Z,-0.82315,-1.650882,1.018859
2019-05-23T04:34:58.663690Z,-0.852123,-1.6422240000000001,1.017703
2019-05-23T04:34:58.703690Z,0.17161600000000002,-0.939366,0.289962
2019-05-23T04:34:58.743690Z,0.08176699999999999,-0.789083,0.115598
2019-05-23T04:34:58.784690Z,0.114468,-0.762626,0.102351
2019-05-23T04:34:58.827690Z,0.48694399999999993,-0.45085299999999995,0.099105
2019-05-23T04:34:58.863690Z,-0.354207,0.09879199999999999,0.230185
2019-05-23T04:34:58.904690Z,-0.325418,0.135899,0.193864
2019-05-23T04:34:58.945690Z,-0.6136560000000001,0.644836,0.6610020000000001
2019-05-23T04:34:58.983690Z,-0.095571,0.644135,1.707079
2019-05-23T04:34:59.024690Z,0.766915,-0.521946,0.591225
2019-05-23T04:34:59.063690Z,0.721643,-0.440924,0.514968
2019-05-23T04:34:59.103690Z,0.696913,-0.597172,1.123284
2019-05-23T04:34:59.143690Z,0.479076,-1.2882799999999999,1.0167899999999999
2019-05-23T04:34:59.183690Z,0.500147,-1.207167,0.9512809999999999
2019-05-23T04:34:59.224690Z,0.8401569999999999,-1.238319,0.682554
2019-05-23T04:34:59.265690Z,0.486392,-1.072711,0.5825279999999999
2019-05-23T04:34:59.304690Z,0.615943,-1.005727,0.545667
2019-05-23T04:34:59.344690Z,0.998102,-0.701631,0.063822
2019-05-23T04:34:59.383690Z,0.332179,-0.7537590000000001,-1.656655
2019-05-23T04:34:59.481690Z,0.30738499999999996,-0.60456,-1.7363669999999998
2019-05-23T04:34:59.482690Z,-0.288132,-0.10209,-0.375882
2019-05-23T04:34:59.508690Z,-0.744807,-0.640454,1.145385
2019-05-23T04:34:59.545690Z,-0.824851,-0.698802,1.169705
2019-05-23T04:34:59.583690Z,0.299254,0.7726689999999999,0.46106400000000003
2019-05-23T04:34:59.625690Z,0.107545,0.631741,0.8528100000000001
2019-05-23T04:34:59.664690Z,0.111568,0.598747,0.855066
2019-05-23T04:34:59.704690Z,0.16433399999999998,0.5899760000000001,1.379658
2019-05-23T04:34:59.746690Z,-0.21556199999999998,0.418634,1.5347819999999999
2019-05-23T04:34:59.786690Z,-0.315406,0.35385,1.547197
2019-05-23T04:34:59.836690Z,-0.15276700000000001,-1.581566,2.684825
2019-05-23T04:34:59.865690Z,0.10831199999999999,-1.3680139999999998,0.526251
2019-05-23T04:34:59.904690Z,0.064604,-1.436275,0.586468
2019-05-23T04:34:59.946690Z,0.633606,-1.446323,0.14536300000000002
2019-05-23T04:34:59.984690Z,1.115257,-1.430238,-0.062223
2019-05-23T04:35:00.024690Z,1.250418,-1.48539,0.010495
2019-05-23T04:35:00.064690Z,0.6581779999999999,-0.945477,-0.8020579999999999
2019-05-23T04:35:00.104690Z,0.14490699999999998,-0.6855829999999999,-0.77149
2019-05-23T04:35:00.146690Z,0.044586,-0.698198,-0.743784
2019-05-23T04:35:00.184690Z,-0.544809,-0.954391,-0.253996
2019-05-23T04:35:00.224690Z,0.016796000000000002,-0.013428,0.19677999999999998
2019-05-23T04:35:00.263690Z,0.015174000000000002,0.048486,0.141995
2019-05-23T04:35:00.304690Z,0.11361800000000001,0.27584699999999995,0.876136
2019-05-23T04:35:00.349690Z,0.7715930000000001,0.676042,1.455173
2019-05-23T04:35:00.385690Z,0.841943,0.7454729999999999,1.368196
2019-05-23T04:35:00.425690Z,0.627051,0.586359,1.005318
2019-05-23T04:35:00.465690Z,0.698702,-0.789587,2.221828
2019-05-23T04:35:00.506690Z,0.747102,-0.9068309999999999,2.29054
2019-05-23T04:35:00.546690Z,0.8578379999999999,-1.463175,0.5009899999999999
2019-05-23T04:35:00.585690Z,1.231835,-0.9743790000000001,-0.213319
2019-05-23T04:35:00.625690Z,1.277659,-0.94489,-0.217162
2019-05-23T04:35:00.665690Z,0.8297370000000001,-0.947317,-0.09149600000000001
2019-05-23T04:35:00.704690Z,0.657231,-0.871186,-0.608888
2019-05-23T04:35:00.745690Z,0.502423,-0.9329139999999999,-0.5396489999999999
2019-05-23T04:35:00.796690Z,0.637022,-0.77792,-0.6162989999999999
2019-05-23T04:35:00.829690Z,0.731129,-0.588731,-0.09224500000000001
2019-05-23T04:35:00.865690Z,0.56458,-0.591133,-0.079024
2019-05-23T04:35:00.905690Z,0.99772,0.16008499999999998,0.007895000000000001
2019-05-23T04:35:00.946690Z,1.9532479999999999,1.169452,-0.16409400000000002
2019-05-23T04:35:00.985690Z,1.950231,1.1419139999999999,-0.155612
2019-05-23T04:35:01.026690Z,1.2131319999999999,0.843626,0.722312
2019-05-23T04:35:01.065690Z,0.564501,0.169317,0.42512799999999995
2019-05-23T04:35:01.105690Z,0.577397,0.176521,0.40928200000000003
2019-05-23T04:35:01.161690Z,-0.155825,0.034187999999999996,-0.319509
2019-05-23T04:35:01.188690Z,1.679884,-1.108644,2.8341939999999997
2019-05-23T04:35:01.225690Z,1.694061,-1.153589,2.838365
2019-05-23T04:35:01.265690Z,0.787994,-1.415606,0.14135599999999998
2019-05-23T04:35:01.306690Z,1.300773,-0.65253,-0.497808
2019-05-23T04:35:01.345690Z,1.275435,-0.522976,-0.581856
2019-05-23T04:35:01.385690Z,0.5832189999999999,-0.972558,0.69103
2019-05-23T04:35:01.426690Z,0.86166,-0.571228,0.10354400000000001
2019-05-23T04:35:01.466690Z,0.896867,-0.514687,0.06241
2019-05-23T04:35:01.506690Z,0.7848890000000001,-0.46005,-0.63097
2019-05-23T04:35:01.546690Z,0.253808,-0.8442850000000001,-1.264345
2019-05-23T04:35:01.586690Z,0.18629300000000001,-0.8344540000000001,-1.236645
2019-05-23T04:35:01.626690Z,-0.236578,-0.41744899999999996,-0.106334
2019-05-23T04:35:01.666690Z,0.23065700000000003,-0.29589299999999996,2.629609
2019-05-23T04:35:01.706690Z,0.23896199999999998,-0.345988,2.6268860000000003
2019-05-23T04:35:01.746690Z,0.204241,-0.288194,2.606586
2019-05-23T04:35:01.787690Z,0.505783,-0.137141,0.979634
2019-05-23T04:35:01.828690Z,0.609213,-0.02978,0.875336
2019-05-23T04:35:01.867690Z,-1.109112,0.198009,0.019011
2019-05-23T04:35:01.906690Z,0.604561,-0.47611099999999995,3.3421980000000002
2019-05-23T04:35:01.949690Z,0.7709,-0.541313,3.329047
2019-05-23T04:35:01.986690Z,-0.018945,-1.331123,-0.192926
2019-05-23T04:35:02.026690Z,-0.12333800000000002,-0.853736,-0.708059
2019-05-23T04:35:02.066690Z,-0.096027,-0.797741,-0.727187
2019-05-23T04:35:02.107690Z,-0.7672770000000001,-1.162558,-0.7499779999999999
2019-05-23T04:35:02.149690Z,-0.33471,-0.6749229999999999,-0.152276
2019-05-23T04:35:02.186690Z,-0.298023,-0.665616,-0.149081
2019-05-23T04:35:02.226690Z,-0.005787,-0.363029,-0.40422199999999997
2019-05-23T04:35:02.266690Z,-0.006261999999999999,-0.18541400000000002,-0.08885499999999999
2019-05-23T04:35:02.306690Z,0.002171,-0.206352,-0.070452
2019-05-23T04:35:02.348690Z,-0.07966000000000001,-0.325325,0.8666209999999999
2019-05-23T04:35:02.386690Z,-0.08376499999999999,-0.338452,1.8860310000000002
2019-05-23T04:35:02.426690Z,-0.084103,-0.44385399999999997,1.9387590000000001
2019-05-23T04:35:02.467690Z,-0.38413800000000003,-0.065151,0.6849390000000001
2019-05-23T04:35:02.507690Z,0.288502,-0.60509,1.865271
2019-05-23T04:35:02.548690Z,0.30894499999999997,-0.678639,1.8973650000000002
2019-05-23T04:35:02.586690Z,0.698782,-1.305891,0.662519
2019-05-23T04:35:02.628690Z,0.140492,-0.8718809999999999,-0.922583
2019-05-23T04:35:02.669690Z,0.08849299999999999,-0.8471299999999999,-0.9139079999999999
2019-05-23T04:35:02.707690Z,0.36949699999999996,-1.2722280000000001,0.114685
2019-05-23T04:35:02.749690Z,-0.052355,-0.935313,-0.170663
2019-05-23T04:35:02.786690Z,-0.03517,-0.974669,-0.12449600000000001
2019-05-23T04:35:02.826690Z,0.152538,-0.829895,-0.130706
2019-05-23T04:35:02.902690Z,0.42470399999999997,-0.665959,0.433341
2019-05-23T04:35:02.912690Z,0.472121,-0.6251220000000001,0.402043
2019-05-23T04:35:02.948690Z,0.742599,-0.631246,1.161831
2019-05-23T04:35:02.987690Z,1.390936,-0.654968,1.9244259999999997
2019-05-23T04:35:03.027690Z,1.4738129999999998,-0.73752,1.9662380000000002
2019-05-23T04:35:03.068690Z,1.598407,-0.392176,0.38669000000000003
2019-05-23T04:35:03.109690Z,1.7618479999999999,-0.647748,0.984626
2019-05-23T04:35:03.149690Z,1.703173,-0.582991,0.9263520000000001
2019-05-23T04:35:03.188690Z,1.799759,-1.5596780000000001,1.944505
2019-05-23T04:35:03.263690Z,2.1168270000000002,-1.079585,0.756706
2019-05-23T04:35:03.267690Z,1.966016,-1.072567,0.754537
2019-05-23T04:35:03.308690Z,2.141284,-0.724529,0.584481
2019-05-23T04:35:03.348690Z,1.9355200000000001,-0.98824,0.46495600000000004
2019-05-23T04:35:03.388690Z,1.90429,-1.014497,0.490011
2019-05-23T04:35:03.427690Z,0.9372209999999999,-1.199131,0.225156
2019-05-23T04:35:03.467690Z,0.7404229999999999,-0.9848540000000001,0.164022
2019-05-23T04:35:03.507690Z,0.7447739999999999,-0.988151,0.175848
2019-05-23T04:35:03.549690Z,0.44338599999999995,-0.5194810000000001,0.310842
2019-05-23T04:35:03.588690Z,0.23100700000000002,-0.378205,0.7108439999999999
2019-05-23T04:35:03.627690Z,0.220009,-0.469923,0.7792560000000001
2019-05-23T04:35:03.669690Z,-0.011337,-0.12013399999999999,0.392447
2019-05-23T04:35:03.708690Z,-0.23703000000000002,-0.224557,0.711991
2019-05-23T04:35:03.751690Z,-0.26514899999999997,-0.287882,0.760764
2019-05-23T04:35:03.787690Z,-1.243371,-0.907301,0.6389819999999999
2019-05-23T04:35:03.828690Z,-1.4468,-0.5476840000000001,1.270969
2019-05-23T04:35:03.868690Z,-1.5037209999999999,-0.598391,1.312474
2019-05-23T04:35:03.908690Z,-0.438357,-0.768169,0.943103
2019-05-23T04:35:03.949690Z,-0.746766,-1.240348,0.614525
2019-05-23T04:35:03.989690Z,-0.612527,-1.207516,0.581775
2019-05-23T04:35:04.029690Z,-0.6864859999999999,-1.605704,0.330455
2019-05-23T04:35:04.068690Z,-0.7286199999999999,-1.1114629999999999,-0.17691600000000002
2019-05-23T04:35:04.109690Z,-0.699626,-1.106391,-0.163153
2019-05-23T04:35:04.150690Z,-0.775892,-0.785637,-0.28757699999999997
2019-05-23T04:35:04.189690Z,-0.761003,-0.515548,-0.451338
2019-05-23T04:35:04.229690Z,-0.773208,-0.472826,-0.471941
2019-05-23T04:35:04.268690Z,-0.5338470000000001,-0.188576,0.36261
2019-05-23T04:35:04.309690Z,-0.17508900000000002,-0.089499,0.80269
2019-05-23T04:35:04.353690Z,-0.09740800000000001,-0.068141,0.770893
2019-05-23T04:35:04.389690Z,-0.036874000000000004,0.265063,0.782848
2019-05-23T04:35:04.430690Z,0.576878,0.65031,1.403391
2019-05-23T04:35:04.469690Z,0.723068,0.619154,1.3988909999999999
2019-05-23T04:35:04.508690Z,-0.308285,0.077974,1.2129590000000001
2019-05-23T04:35:04.580690Z,0.624425,-1.242584,1.622594
2019-05-23T04:35:04.589690Z,0.699856,-1.317367,1.6825830000000002
2019-05-23T04:35:04.628690Z,-0.516545,-1.721773,-0.070681
2019-05-23T04:35:04.668690Z,-0.44472,-1.966532,0.990634
2019-05-23T04:35:04.708690Z,-0.45338,-1.966345,1.0022440000000001
2019-05-23T04:35:04.805690Z,-0.5728340000000001,-1.847219,0.45891000000000004
2019-05-23T04:35:04.806690Z,-1.159515,-1.15479,-0.523331
2019-05-23T04:35:04.834690Z,-1.226242,-1.142025,-0.511983
2019-05-23T04:35:04.868690Z,-1.8425490000000002,-0.869291,-0.016447
2019-05-23T04:35:04.908690Z,-1.8791349999999998,-0.9075139999999999,0.577299
2019-05-23T04:35:04.950690Z,-2.005903,-0.9571,0.626055
2019-05-23T04:35:04.989690Z,-1.465563,-0.39941,0.7421770000000001
2019-05-23T04:35:05.029690Z,-2.045849,-0.15797,0.43303800000000003
2019-05-23T04:35:05.068690Z,-2.0963950000000002,-0.174947,0.445747
2019-05-23T04:35:05.111690Z,-2.054396,-0.20817199999999997,1.6674689999999999
2019-05-23T04:35:05.165690Z,-1.599597,-0.323811,0.9252459999999999
2019-05-23T04:35:05.188690Z,-1.670981,-0.300065,0.8987450000000001
2019-05-23T04:35:05.230690Z,-1.321256,-1.263422,1.9849709999999998
2019-05-23T04:35:05.269690Z,-1.4123709999999998,-2.024763,1.326241
2019-05-23T04:35:05.309690Z,-1.379717,-1.9677209999999998,1.282917
2019-05-23T04:35:05.349690Z,-1.1451850000000001,-2.374207,1.077405
2019-05-23T04:35:05.388690Z,-1.054455,-2.498955,1.222677
2019-05-23T04:35:05.428690Z,-1.0972790000000001,-2.466934,1.213057
2019-05-23T04:35:05.468690Z,-0.747259,-2.013678,0.708464
2019-05-23T04:35:05.511690Z,-0.060187,-1.2481959999999999,0.853224
2019-05-23T04:35:05.549690Z,-0.130253,-1.1958090000000001,0.818738
2019-05-23T04:35:05.589690Z,0.079049,-1.309919,1.318706
2019-05-23T04:35:05.630690Z,1.022062,-0.523877,1.483727
2019-05-23T04:35:05.669690Z,1.207311,-0.511495,1.4402760000000001
2019-05-23T04:35:05.710690Z,1.659507,-0.167418,1.085631
2019-05-23T04:35:05.757690Z,1.599705,0.5420659999999999,0.581973
2019-05-23T04:35:05.789690Z,1.777139,0.553161,0.551257
2019-05-23T04:35:05.830690Z,1.0153299999999998,0.5987140000000001,-0.102658
2019-05-23T04:35:05.870690Z,1.81188,-0.20774499999999999,1.74995
2019-05-23T04:35:05.910690Z,1.9690470000000002,-0.32831,1.82454
2019-05-23T04:35:05.952690Z,1.4412280000000002,-1.216292,-0.134872
2019-05-23T04:35:05.990690Z,1.96976,-0.786968,-0.45783
2019-05-23T04:35:06.030690Z,2.098835,-0.856666,-0.36640100000000003
2019-05-23T04:35:06.071690Z,1.36989,-0.649652,-0.032277999999999994
2019-05-23T04:35:06.109690Z,1.8970619999999998,-0.461949,-0.961667
2019-05-23T04:35:06.150690Z,2.078937,-0.425113,-0.9442280000000001
2019-05-23T04:35:06.219690Z,0.934159,-0.045433999999999995,-2.1028830000000003
2019-05-23T04:35:06.231690Z,0.34844899999999995,-0.17397100000000001,-1.052174
2019-05-23T04:35:06.269690Z,0.184705,-0.18670599999999998,-1.042625
2019-05-23T04:35:06.309690Z,0.513863,0.526129,0.31229
2019-05-23T04:35:06.350690Z,0.5408270000000001,0.601986,0.28875300000000004
2019-05-23T04:35:06.390690Z,0.421191,0.622691,0.244896
2019-05-23T04:35:06.430690Z,0.387924,0.9669989999999999,1.2898
2019-05-23T04:35:06.470690Z,0.4746,1.326314,0.0015429999999999999
2019-05-23T04:35:06.510690Z,0.33211999999999997,1.3794879999999998,-0.075419
2019-05-23T04:35:06.569690Z,-0.585442,0.20496599999999998,0.635571
2019-05-23T04:35:06.590690Z,-0.200711,-1.020413,-0.346085
2019-05-23T04:35:06.630690Z,-0.248495,-0.963242,-0.378268
2019-05-23T04:35:06.670690Z,-1.054352,-0.679661,-0.6896869999999999
2019-05-23T04:35:06.710690Z,-0.12249700000000001,-1.101328,-0.003199
2019-05-23T04:35:06.751690Z,-0.092222,-0.954298,-0.107092
2019-05-23T04:35:06.790690Z,0.341619,-0.9358190000000001,0.447675
2019-05-23T04:35:06.830690Z,0.135452,-0.8421870000000001,-0.437324
2019-05-23T04:35:06.870690Z,0.106504,-0.8229139999999999,-0.43493000000000004
2019-05-23T04:35:06.912690Z,0.51515,-0.46254799999999996,-0.405769
2019-05-23T04:35:06.950690Z,0.230888,-0.079266,0.204102
2019-05-23T04:35:06.990690Z,0.331838,-0.010665000000000001,0.153341
2019-05-23T04:35:07.030690Z,0.129098,0.46553500000000003,-0.143466
2019-05-23T04:35:07.070690Z,0.787935,1.065667,2.2299729999999998
2019-05-23T04:35:07.112690Z,0.773783,1.012486,2.217444
2019-05-23T04:35:07.150690Z,-0.054443,0.534529,1.7195029999999998
2019-05-23T04:35:07.190690Z,0.6683060000000001,-0.28765799999999997,1.36142
2019-05-23T04:35:07.230690Z,0.701807,-0.360483,1.396757
2019-05-23T04:35:07.270690Z,-0.070176,-0.472592,0.374961
2019-05-23T04:35:07.312690Z,0.378718,-1.19804,0.23318000000000003
2019-05-23T04:35:07.352690Z,0.553685,-1.273726,0.318369
2019-05-23T04:35:07.390690Z,-0.130399,-1.014889,-0.518474
2019-05-23T04:35:07.430690Z,-0.815531,-0.545599,-1.605537
2019-05-23T04:35:07.493690Z,-0.710992,-0.492321,-1.601099
2019-05-23T04:35:07.522690Z,-1.418714,-1.0004979999999999,-1.024764
2019-05-23T04:35:07.552690Z,-2.000648,-0.556059,0.243069
2019-05-23T04:35:07.590690Z,-2.164736,-0.543604,0.21817399999999998
2019-05-23T04:35:07.631690Z,-1.035817,-0.8897889999999999,1.4334360000000002
2019-05-23T04:35:07.672690Z,-0.645704,-1.2444110000000002,1.932821
2019-05-23T04:35:07.710690Z,-0.8266700000000001,-1.326345,1.9692630000000002
2019-05-23T04:35:07.750690Z,-0.636238,-1.2860790000000002,2.051989
2019-05-23T04:35:07.790690Z,-0.322703,-2.141581,1.957385
2019-05-23T04:35:07.839690Z,-0.297561,-2.124757,1.939991
2019-05-23T04:35:07.871690Z,-1.546965,-2.063848,0.445075
2019-05-23T04:35:07.911690Z,-1.181753,-2.6091,1.832423
2019-05-23T04:35:07.951690Z,-1.061083,-2.4911369999999997,1.750463
2019-05-23T04:35:07.991690Z,-1.5629309999999998,-2.73349,1.874564
2019-05-23T04:35:08.035690Z,-0.500763,-1.931813,1.929429
2019-05-23T04:35:08.072690Z,-0.36027,-1.91123,1.914238
2019-05-23T04:35:08.111690Z,-0.296808,-1.739055,1.731511
2019-05-23T04:35:08.154690Z,0.14491700000000002,-1.7960310000000002,2.82513
2019-05-23T04:35:08.191690Z,0.202352,-1.8658270000000001,2.855127
2019-05-23T04:35:08.232690Z,-0.391346,-1.5910540000000002,1.845706
2019-05-23T04:35:08.272690Z,0.14059100000000002,-1.559752,1.458941
2019-05-23T04:35:08.311690Z,0.179885,-1.6492639999999998,1.527703
2019-05-23T04:35:08.354690Z,0.237112,-1.4829459999999999,0.9099709999999999
2019-05-23T04:35:08.392690Z,-0.013768,-1.485249,0.42940100000000003
2019-05-23T04:35:08.432690Z,0.102394,-1.433806,0.415175
2019-05-23T04:35:08.473690Z,0.150019,-1.255919,0.476983
2019-05-23T04:35:08.511690Z,0.342711,-0.8421350000000001,0.715923
2019-05-23T04:35:08.555690Z,0.5135430000000001,-0.872426,0.771459
2019-05-23T04:35:08.593690Z,0.815054,-0.42742299999999994,0.43927200000000005
2019-05-23T04:35:08.633690Z,2.402213,-0.839881,1.837821
2019-05-23T04:35:08.674690Z,2.412613,-0.911998,1.8865169999999998
2019-05-23T04:35:08.712690Z,2.286206,-1.9802799999999998,1.363848
2019-05-23T04:35:08.754690Z,2.818598,-1.171191,1.413626
2019-05-23T04:35:08.792690Z,2.881326,-1.088209,1.3589
2019-05-23T04:35:08.832690Z,2.152733,-1.295223,0.817847
2019-05-23T04:35:08.872690Z,2.220036,-1.283937,0.375687
2019-05-23T04:35:08.913690Z,2.1582689999999998,-1.351776,0.436384
2019-05-23T04:35:08.952690Z,1.7905200000000001,-0.810489,-0.419749
2019-05-23T04:35:08.992690Z,1.60742,-0.6305890000000001,-0.856237
2019-05-23T04:35:09.062690Z,1.558735,-0.543263,-0.907624
2019-05-23T04:35:09.074690Z,1.596005,0.015816,0.526084
2019-05-23T04:35:09.112690Z,0.510898,0.143493,0.737053
2019-05-23T04:35:09.152690Z,0.49917,0.11896300000000001,0.742011
2019-05-23T04:35:09.192690Z,1.055078,0.487562,1.097783
2019-05-23T04:35:09.233690Z,1.0192510000000001,0.34286300000000003,0.699516
2019-05-23T04:35:09.273690Z,1.006705,0.45506800000000003,0.596881
2019-05-23T04:35:09.313690Z,0.625283,-0.9298040000000001,1.9091779999999998
2019-05-23T04:35:09.352690Z,-0.31758800000000004,-1.513262,0.848174
2019-05-23T04:35:09.392690Z,-0.511364,-1.498607,0.809393
2019-05-23T04:35:09.432690Z,0.375438,-1.666942,0.670475
2019-05-23T04:35:09.473690Z,0.710117,-1.827938,0.33214
2019-05-23T04:35:09.514690Z,0.60887,-1.8739540000000001,0.374686
2019-05-23T04:35:09.556690Z,0.6846479999999999,-1.426756,-0.9148780000000001
2019-05-23T04:35:09.592690Z,0.519788,-1.044492,-0.7820050000000001
2019-05-23T04:35:09.632690Z,0.497762,-0.93734,-0.834067
2019-05-23T04:35:09.674690Z,0.8273309999999999,-0.639609,-0.153675
2019-05-23T04:35:09.713690Z,0.756961,-0.11491300000000002,0.07463600000000001
2019-05-23T04:35:09.753690Z,0.753555,-0.026608999999999997,0.016418000000000002
2019-05-23T04:35:09.793690Z,0.5230819999999999,0.43854899999999997,0.409012
2019-05-23T04:35:09.834690Z,0.043737,0.614618,1.625424
2019-05-23T04:35:09.873690Z,0.039447,0.695313,1.5439049999999999
2019-05-23T04:35:09.913690Z,0.29812,0.131043,1.806143
2019-05-23T04:35:09.953690Z,0.182828,0.14407999999999999,2.504865
2019-05-23T04:35:09.993690Z,0.157391,0.255846,2.401594
2019-05-23T04:35:10.033690Z,0.006154,-1.28142,1.07846
2019-05-23T04:35:10.073690Z,0.101102,-1.249611,-0.28005399999999997
2019-05-23T04:35:10.115690Z,0.002241,-1.253059,-0.263243
2019-05-23T04:35:10.157690Z,0.120549,-1.080474,-1.008484
2019-05-23T04:35:10.193690Z,0.188747,-0.9444389999999999,-0.8699549999999999
2019-05-23T04:35:10.234690Z,0.26135,-0.8172119999999999,-0.9119790000000001
2019-05-23T04:35:10.273690Z,0.06272,-0.771757,-0.8907950000000001
2019-05-23T04:35:10.361690Z,0.621189,-0.074722,0.507323
2019-05-23T04:35:10.362690Z,0.643964,-0.112936,0.516644
2019-05-23T04:35:10.395690Z,0.597387,-0.12348699999999999,0.412763
2019-05-23T04:35:10.432690Z,1.0321639999999999,0.715603,-0.157013
2019-05-23T04:35:10.473690Z,1.050441,0.679663,-0.143453
2019-05-23T04:35:10.513690Z,0.480525,0.298192,-0.100471
2019-05-23T04:35:10.556690Z,0.688393,0.048947000000000004,0.626758
2019-05-23T04:35:10.592690Z,0.7245020000000001,0.157574,0.5649109999999999
2019-05-23T04:35:10.633690Z,0.550958,-0.29070999999999997,1.930677
2019-05-23T04:35:10.673690Z,2.132555,-1.271526,2.5704540000000002
2019-05-23T04:35:10.723690Z,2.428007,-1.4303620000000001,2.622796
2019-05-23T04:35:10.756690Z,0.8240559999999999,-0.918916,0.262917
2019-05-23T04:35:10.793690Z,1.641364,-0.591374,-0.539358
2019-05-23T04:35:10.833690Z,1.707713,-0.514441,-0.557118
2019-05-23T04:35:10.874690Z,1.5401989999999999,0.089142,-1.1731200000000002
2019-05-23T04:35:10.913690Z,1.25167,-0.47394,-0.40153
2019-05-23T04:35:10.953690Z,1.335914,-0.39010900000000004,-0.420177
2019-05-23T04:35:10.994690Z,0.571975,0.016003,-1.185581
2019-05-23T04:35:11.034690Z,1.081532,0.06434400000000001,0.716611
2019-05-23T04:35:11.075690Z,1.06338,0.014778,0.726467
2019-05-23T04:35:11.114690Z,0.770478,0.134155,0.99492
2019-05-23T04:35:11.156690Z,1.400596,0.632185,2.053502
2019-05-23T04:35:11.195690Z,1.4432120000000002,0.428953,2.121142
2019-05-23T04:35:11.235690Z,1.7732580000000002,0.503892,1.507223
2019-05-23T04:35:11.275690Z,-0.0017530000000000002,-0.14835399999999999,1.869107
2019-05-23T04:35:11.314690Z,-0.140483,-0.168792,1.8371490000000001
2019-05-23T04:35:11.354690Z,1.635299,-1.7874279999999998,1.246805
2019-05-23T04:35:11.395690Z,2.137705,-0.753004,-2.251849
2019-05-23T04:35:11.435690Z,2.117839,-0.604295,-2.285044
2019-05-23T04:35:11.474690Z,1.475307,-0.7638739999999999,-2.4700290000000003
2019-05-23T04:35:11.515690Z,0.220404,-1.304116,-0.986492
2019-05-23T04:35:11.557690Z,0.19776,-1.272618,-0.9759969999999999
2019-05-23T04:35:11.595690Z,0.154437,-0.92714,-0.176807
2019-05-23T04:35:11.634690Z,0.392584,0.158813,-0.43351300000000004
2019-05-23T04:35:11.674690Z,0.323096,0.106646,-0.405498
2019-05-23T04:35:11.714690Z,-0.35438000000000003,0.40460300000000005,0.406925
2019-05-23T04:35:11.757690Z,0.5568930000000001,1.137283,1.024799
2019-05-23T04:35:11.795690Z,0.514354,1.0030700000000001,1.068263
2019-05-23T04:35:11.834690Z,-0.238217,0.5050600000000001,1.545976
2019-05-23T04:35:11.875690Z,-0.449927,0.500127,0.5427529999999999
2019-05-23T04:35:11.915690Z,-0.558079,0.45686899999999997,0.549196
2019-05-23T04:35:11.954690Z,-0.867762,-0.22512,0.9593459999999999
2019-05-23T04:35:11.995690Z,-0.979452,-1.44444,0.329617
2019-05-23T04:35:12.043690Z,-1.116343,-1.489579,0.37027
2019-05-23T04:35:12.076690Z,-1.112838,-1.132272,-0.657379
2019-05-23T04:35:12.114690Z,-0.7607119999999999,-1.4944110000000002,0.6415890000000001
2019-05-23T04:35:12.155690Z,-0.770411,-1.467999,0.6310060000000001
2019-05-23T04:35:12.196690Z,-0.2213,-1.542414,-0.30145700000000003
2019-05-23T04:35:12.235690Z,-0.283014,-0.743239,-1.7228830000000002
2019-05-23T04:35:12.275690Z,-0.382345,-0.6975720000000001,-1.7096080000000002
2019-05-23T04:35:12.315690Z,-0.124779,-0.056476,-0.777874
2019-05-23T04:35:12.357690Z,0.252719,0.381668,0.5142869999999999
2019-05-23T04:35:12.395690Z,0.288001,0.355483,0.5149060000000001
2019-05-23T04:35:12.435690Z,0.184765,0.597075,0.877606
2019-05-23T04:35:12.474690Z,-0.125069,0.5773119999999999,1.601424
2019-05-23T04:35:12.515690Z,-0.03188,0.556873,1.576266
2019-05-23T04:35:12.558690Z,-0.37509699999999996,0.127896,0.70357
2019-05-23T04:35:12.597690Z,0.348597,0.136298,2.773455
2019-05-23T04:35:12.635690Z,0.341918,-0.08998400000000001,2.865018
2019-05-23T04:35:12.675690Z,1.029179,-1.475131,-0.982073
2019-05-23T04:35:12.715690Z,0.438792,-0.5396880000000001,-1.370442
2019-05-23T04:35:12.757690Z,0.397065,-0.37695,-1.4324370000000002
2019-05-23T04:35:12.797690Z,0.530834,-0.779435,0.069012
2019-05-23T04:35:12.834690Z,0.8894620000000001,-0.763031,-0.77208
2019-05-23T04:35:12.875690Z,0.9763700000000001,-0.696142,-0.796217
2019-05-23T04:35:12.915690Z,0.750849,-0.408019,-1.422992
2019-05-23T04:35:12.956690Z,-0.22614,-0.520983,-1.209056
2019-05-23T04:35:12.995690Z,-0.385369,-0.469707,-1.199582
2019-05-23T04:35:13.036690Z,-0.320411,-0.187107,0.742661
2019-05-23T04:35:13.076690Z,-0.694299,0.680126,0.10847000000000001
2019-05-23T04:35:13.117690Z,-0.710751,0.717592,0.083234
2019-05-23T04:35:13.158690Z,-0.273819,0.8224389999999999,1.359617
2019-05-23T04:35:13.196690Z,-0.516914,0.5836600000000001,0.9418200000000001
2019-05-23T04:35:13.236690Z,-0.7264229999999999,0.5766640000000001,0.939305
2019-05-23T04:35:13.275690Z,-0.028832,0.086034,2.479978
2019-05-23T04:35:13.316690Z,-0.28657699999999997,-1.3946530000000001,1.548419
2019-05-23T04:35:13.358690Z,-0.263992,-1.667986,1.6837540000000002
2019-05-23T04:35:13.399690Z,0.359272,-1.223711,1.1076350000000001
2019-05-23T04:35:13.435690Z,0.6015659999999999,-0.42256499999999997,-1.576009
2019-05-23T04:35:13.479690Z,0.778742,-0.246223,-1.6556540000000002
2019-05-23T04:35:13.515690Z,0.498997,-0.42676899999999995,-1.13175
2019-05-23T04:35:13.557690Z,-0.057852,-0.153328,-1.402177
2019-05-23T04:35:13.596690Z,-0.17958,-0.126863,-1.38649
2019-05-23T04:35:13.636690Z,0.147425,-0.244731,0.320538
2019-05-23T04:35:13.675690Z,-0.27905399999999997,0.041392,0.195709
2019-05-23T04:35:13.717690Z,-0.251258,-0.039735,0.237163
2019-05-23T04:35:13.756690Z,0.105925,0.228726,0.723657
2019-05-23T04:35:13.796690Z,0.282398,0.507053,1.361595
2019-05-23T04:35:13.837690Z,0.383944,0.38422,1.4055600000000001
2019-05-23T04:35:13.876690Z,0.6700119999999999,0.537804,-0.036095999999999996
2019-05-23T04:35:13.915690Z,-0.340571,-0.6602060000000001,1.789913
2019-05-23T04:35:13.955690Z,-0.23700500000000002,-0.770319,1.8324470000000002
2019-05-23T04:35:13.996690Z,-0.238117,-1.296123,-0.073491
2019-05-23T04:35:14.037690Z,0.53901,-1.018987,0.304336
2019-05-23T04:35:14.076690Z,0.6499189999999999,-1.06902,0.338861
2019-05-23T04:35:14.117690Z,0.38454499999999997,-1.097421,-0.919423
2019-05-23T04:35:14.157690Z,-0.07370800000000001,-1.0591549999999998,-1.9366330000000003
2019-05-23T04:35:14.222690Z,-0.059967999999999994,-0.964727,-1.952447
2019-05-23T04:35:14.236690Z,0.21803499999999998,-0.184881,-1.066438
2019-05-23T04:35:14.278690Z,-0.41336999999999996,0.165732,-0.432054
2019-05-23T04:35:14.316690Z,-0.451927,0.184168,-0.437432
2019-05-23T04:35:14.356690Z,0.073804,0.569625,0.269007
2019-05-23T04:35:14.397690Z,0.317225,0.645958,0.258103
2019-05-23T04:35:14.438690Z,0.370571,0.627869,0.25819899999999996
2019-05-23T04:35:14.477690Z,-0.276459,0.460045,-0.009438
2019-05-23T04:35:14.518690Z,-0.43385,1.122451,0.786886
2019-05-23T04:35:14.574690Z,-0.401738,1.0619180000000001,0.799786
2019-05-23T04:35:14.596690Z,0.200554,1.062072,0.27497
2019-05-23T04:35:14.638690Z,0.161863,-0.331352,2.072506
2019-05-23T04:35:14.677690Z,0.308508,-0.323773,2.036859
2019-05-23T04:35:14.717690Z,-0.535255,-1.335834,0.06688
2019-05-23T04:35:14.759690Z,-0.07665,-0.8230629999999999,-0.11851500000000001
2019-05-23T04:35:14.798690Z,-0.13785999999999998,-0.753213,-0.150005
2019-05-23T04:35:14.837690Z,0.10904000000000001,-0.8668170000000001,-0.313869
2019-05-23T04:35:14.877690Z,0.759269,-0.349833,-0.763925
2019-05-23T04:35:14.918690Z,0.7408060000000001,-0.391825,-0.722889
2019-05-23T04:35:14.957690Z,0.7460829999999999,-0.082229,-1.355631
2019-05-23T04:35:15.013690Z,0.39448,0.100398,-0.70365
2019-05-23T04:35:15.038690Z,0.412017,0.065706,-0.6723600000000001
2019-05-23T04:35:15.076690Z,-0.462196,0.185297,0.259934
2019-05-23T04:35:15.116690Z,-0.022499,0.654572,0.20974299999999999
2019-05-23T04:35:15.158690Z,-0.061791,0.630836,0.21381399999999998
2019-05-23T04:35:15.200690Z,-0.149174,0.629865,1.005018
2019-05-23T04:35:15.237690Z,-0.22138200000000002,0.920942,-0.610102
2019-05-23T04:35:15.277690Z,-0.342366,1.114858,-0.724969
2019-05-23T04:35:15.318690Z,-0.492924,0.5141720000000001,1.338407
2019-05-23T04:35:15.373690Z,1.223295,-1.113318,2.886168
2019-05-23T04:35:15.399690Z,1.239586,-1.247251,2.927453
2019-05-23T04:35:15.437690Z,0.877993,-1.284727,0.162627
2019-05-23T04:35:15.477690Z,0.45323100000000005,-0.885042,-1.2100950000000001
2019-05-23T04:35:15.520690Z,0.481425,-0.8630129999999999,-1.196253
2019-05-23T04:35:15.558690Z,0.191831,-0.501242,-0.864612
2019-05-23T04:35:15.598690Z,0.086461,-0.292375,-1.086039
2019-05-23T04:35:15.638690Z,0.125058,-0.284864,-1.0710790000000001
2019-05-23T04:35:15.678690Z,0.021008000000000002,-0.182909,-0.9776520000000001
2019-05-23T04:35:15.718690Z,-0.630741,-0.10549800000000001,-0.798128
2019-05-23T04:35:15.758690Z,-0.574889,-0.07141900000000001,-0.805059
2019-05-23T04:35:15.798690Z,-0.6753520000000001,0.37854499999999996,-0.324981
2019-05-23T04:35:15.838690Z,-0.201216,0.791428,-0.021661
2019-05-23T04:35:15.879690Z,-0.18653699999999998,0.808632,-0.039702
2019-05-23T04:35:15.919690Z,-0.34563,0.98436,0.260155
2019-05-23T04:35:15.960690Z,-0.5802510000000001,0.679002,0.943459
2019-05-23T04:35:15.998690Z,-0.685533,0.7834770000000001,0.86366
2019-05-23T04:35:16.070690Z,-1.712478,-0.027854000000000004,1.785322
2019-05-23T04:35:16.083690Z,-1.3753819999999999,-1.1725430000000001,2.074357
2019-05-23T04:35:16.120690Z,-1.312775,-1.242979,2.089033
2019-05-23T04:35:16.158690Z,-1.814425,-0.9330930000000001,0.5262819999999999
2019-05-23T04:35:16.198690Z,-1.971905,-1.847634,0.18901199999999999
2019-05-23T04:35:16.239690Z,-1.934577,-1.8288799999999998,0.19262
2019-05-23T04:35:16.279690Z,-1.6888029999999998,-2.3241709999999998,0.44185399999999997
2019-05-23T04:35:16.318690Z,-1.409392,-1.9692450000000001,0.133011
2019-05-23T04:35:16.361690Z,-1.352655,-2.054343,0.200402
2019-05-23T04:35:16.399690Z,-0.8397399999999999,-1.705968,0.5133850000000001
2019-05-23T04:35:16.438690Z,-0.581191,-1.120465,0.108195
2019-05-23T04:35:16.478690Z,-0.503004,-1.186307,0.16158499999999998
2019-05-23T04:35:16.518690Z,-0.095623,-0.9536959999999999,0.706807
2019-05-23T04:35:16.558690Z,-0.176299,-0.576608,0.672393
2019-05-23T04:35:16.599690Z,-0.125996,-0.7336739999999999,0.782355
2019-05-23T04:35:16.638690Z,0.380232,0.130683,0.144803
2019-05-23T04:35:16.679690Z,0.524957,0.7209479999999999,0.392967
2019-05-23T04:35:16.719690Z,0.6451720000000001,0.7085899999999999,0.39598099999999997
2019-05-23T04:35:16.761690Z,0.422888,1.042849,0.049561
2019-05-23T04:35:16.800690Z,1.006135,0.502711,1.030347
2019-05-23T04:35:16.839690Z,1.105207,0.427466,1.075481
2019-05-23T04:35:16.879690Z,1.406505,-1.0333629999999998,0.8073640000000001
2019-05-23T04:35:16.920690Z,1.4130129999999999,-1.218133,-0.351819
2019-05-23T04:35:16.959690Z,1.472505,-1.191252,-0.338068
2019-05-23T04:35:16.999690Z,1.48071,-0.739885,-0.468121
2019-05-23T04:35:17.040690Z,2.196324,-0.30941799999999997,0.058408
2019-05-23T04:35:17.082690Z,2.3511490000000004,-0.284085,0.076334
2019-05-23T04:35:17.119690Z,1.328834,-0.29893600000000004,-1.120519
2019-05-23T04:35:17.161690Z,0.7083050000000001,0.29382800000000003,-0.9493159999999999
2019-05-23T04:35:17.214690Z,0.683192,0.323491,-0.9619209999999999
2019-05-23T04:35:17.242690Z,0.354525,0.048639,-1.078778
2019-05-23T04:35:17.279690Z,0.29233899999999996,0.42121899999999995,-0.156756
2019-05-23T04:35:17.319690Z,0.184935,0.46775100000000003,-0.209342
2019-05-23T04:35:17.362690Z,0.606344,0.59915,0.470365
2019-05-23T04:35:17.400690Z,0.596497,0.399048,0.8452430000000001
2019-05-23T04:35:17.441690Z,0.609668,0.38749,0.8377620000000001
2019-05-23T04:35:17.479690Z,0.6627,0.9860709999999999,0.544377
2019-05-23T04:35:17.519690Z,0.8251700000000001,0.532487,1.4781879999999998
2019-05-23T04:35:17.569690Z,0.803592,0.6457430000000001,1.374736
2019-05-23T04:35:17.599690Z,0.608487,-0.108429,1.547776
2019-05-23T04:35:17.639690Z,0.600513,-0.8602620000000001,0.40168400000000004
2019-05-23T04:35:17.680690Z,0.47969799999999996,-0.968074,0.46516899999999994
2019-05-23T04:35:17.725690Z,0.754929,-0.998402,0.18355
2019-05-23T04:35:17.760690Z,1.1644370000000002,-1.403468,-0.522417
2019-05-23T04:35:17.799690Z,1.261889,-1.35774,-0.519762
2019-05-23T04:35:17.840690Z,0.992718,-1.031517,-1.011569
2019-05-23T04:35:17.881690Z,0.644699,-0.354531,-1.078243
2019-05-23T04:35:17.921690Z,0.635473,-0.326758,-1.074948
2019-05-23T04:35:17.961690Z,1.140966,0.246144,-0.7071649999999999
2019-05-23T04:35:18.000690Z,0.748776,1.273172,-0.813783
2019-05-23T04:35:18.044690Z,0.578326,1.619368,-1.03119
2019-05-23T04:35:18.079690Z,-0.01319,0.959723,0.564921
2019-05-23T04:35:18.121690Z,0.588021,-0.55337,2.639553
2019-05-23T04:35:18.160690Z,0.7159760000000001,-0.604377,2.6287380000000002
2019-05-23T04:35:18.200690Z,0.47916400000000003,0.34889899999999996,-0.015691
2019-05-23T04:35:18.241690Z,2.347089,0.484162,1.3180889999999998
2019-05-23T04:35:18.280690Z,2.352834,0.363978,1.352547
2019-05-23T04:35:18.321690Z,1.781398,-1.106837,1.216779
2019-05-23T04:35:18.362690Z,1.892836,-1.043684,0.000921
2019-05-23T04:35:18.400690Z,1.954493,-1.302735,0.16742100000000001
2019-05-23T04:35:18.444690Z,1.040153,-1.231568,-0.37497600000000003
2019-05-23T04:35:18.480690Z,1.566531,-0.462995,-1.125262
2019-05-23T04:35:18.521690Z,1.737454,-0.515847,-1.0624770000000001
2019-05-23T04:35:18.560690Z,1.3847459999999998,-0.683988,-1.355405
2019-05-23T04:35:18.601690Z,0.255318,0.21303699999999998,-2.28861
2019-05-23T04:35:18.688690Z,0.066855,0.2736,-2.303761
2019-05-23T04:35:18.689690Z,0.299083,0.329366,-0.145087
2019-05-23T04:35:18.723690Z,0.387127,0.607142,1.137002
2019-05-23T04:35:18.760690Z,0.374701,0.621873,1.1015139999999999
2019-05-23T04:35:18.800690Z,0.430374,0.189306,1.1622190000000001
2019-05-23T04:35:18.841690Z,-0.534203,0.9251799999999999,0.6285729999999999
2019-05-23T04:35:18.881690Z,-0.757338,0.975741,0.5800420000000001
2019-05-23T04:35:18.921690Z,0.08498700000000001,0.403323,1.811537
2019-05-23T04:35:18.962690Z,-0.532454,-0.677269,0.327038
2019-05-23T04:35:19.000690Z,-0.444617,-0.652292,0.313314
2019-05-23T04:35:19.042690Z,-0.771255,-0.298941,-0.425105
2019-05-23T04:35:19.083690Z,-0.23228200000000002,-0.905777,-0.479876
2019-05-23T04:35:19.121690Z,-0.136482,-0.693429,-0.581757
2019-05-23T04:35:19.162690Z,-0.104996,-0.951634,-0.693078
2019-05-23T04:35:19.200690Z,-0.190802,-0.29170100000000004,-1.056215
2019-05-23T04:35:19.243690Z,-0.33150999999999997,-0.11573499999999999,-1.11972
2019-05-23T04:35:19.280690Z,-0.07482799999999999,0.19023299999999999,-0.30199899999999996
2019-05-23T04:35:19.320690Z,0.13006500000000001,0.6339560000000001,-0.273106
2019-05-23T04:35:19.361690Z,-0.011183,0.8133520000000001,-0.339944
2019-05-23T04:35:19.400690Z,-0.221321,0.607278,0.661825
2019-05-23T04:35:19.441690Z,-0.330408,-0.061085,1.7572029999999998
2019-05-23T04:35:19.481690Z,-0.241132,-0.224848,1.787624
2019-05-23T04:35:19.522690Z,-0.09861900000000001,0.24050100000000002,1.408398
2019-05-23T04:35:19.565690Z,-0.003348,0.341217,0.8423639999999999
2019-05-23T04:35:19.602690Z,0.016551,0.20560799999999999,0.88782
2019-05-23T04:35:19.642690Z,0.49277200000000004,-0.22197600000000003,0.42989799999999995
2019-05-23T04:35:19.683690Z,0.548788,-1.375548,0.6723720000000001
2019-05-23T04:35:19.721690Z,0.619426,-1.437957,0.701875
2019-05-23T04:35:19.763690Z,0.643839,-1.354778,0.465725
2019-05-23T04:35:19.803690Z,0.966933,-1.089964,-0.358813
2019-05-23T04:35:19.842690Z,1.057978,-1.1174819999999999,-0.327797
2019-05-23T04:35:19.882690Z,0.9998030000000001,-0.7752319999999999,-0.356036
2019-05-23T04:35:19.923690Z,0.849158,-0.423745,-0.8676149999999999
2019-05-23T04:35:19.964690Z,0.887257,-0.455329,-0.830181
2019-05-23T04:35:20.002690Z,0.841464,0.048885000000000005,-0.8895649999999999
2019-05-23T04:35:20.042690Z,0.6216010000000001,0.16273800000000002,-0.45825699999999997
2019-05-23T04:35:20.082690Z,0.657382,0.089655,-0.408591
2019-05-23T04:35:20.123690Z,0.7304649999999999,0.377246,0.051146
2019-05-23T04:35:20.192690Z,-0.3875,0.474667,-0.338186
2019-05-23T04:35:20.256690Z,-0.527058,0.435936,-0.321046
2019-05-23T04:35:20.257690Z,1.094475,1.081412,0.60568
2019-05-23T04:35:20.286690Z,0.5324409999999999,1.0280989999999999,0.793502
2019-05-23T04:35:20.321690Z,0.686445,0.9980450000000001,0.794484
2019-05-23T04:35:20.362690Z,0.620081,0.9084639999999999,-0.43356400000000006
2019-05-23T04:35:20.402690Z,1.393578,-0.162982,1.839994
2019-05-23T04:35:20.442690Z,1.455889,-0.11627699999999999,1.785338
2019-05-23T04:35:20.483690Z,0.625904,-1.59274,0.578353
2019-05-23T04:35:20.522690Z,0.68743,-0.727431,-0.22002600000000003
2019-05-23T04:35:20.564690Z,0.553581,-0.62951,-0.26295
2019-05-23T04:35:20.616690Z,0.9907520000000001,-0.37194699999999997,-0.34776799999999997
2019-05-23T04:35:20.642690Z,0.9502,-0.084618,-1.224911
2019-05-23T04:35:20.682690Z,0.9241,0.006104999999999999,-1.249559
2019-05-23T04:35:20.722690Z,0.644411,0.498238,-1.05582
2019-05-23T04:35:20.764690Z,0.189479,-0.081366,-0.15188
2019-05-23T04:35:20.802690Z,0.147269,-0.08078300000000001,-0.14693499999999998
2019-05-23T04:35:20.841690Z,0.719588,0.552034,0.28024499999999997
2019-05-23T04:35:20.882690Z,0.12365,0.22810100000000003,0.171442
2019-05-23T04:35:20.922690Z,0.094842,0.050035,0.258927
2019-05-23T04:35:20.965690Z,0.91832,0.5857289999999999,0.175972
2019-05-23T04:35:21.002690Z,0.6293270000000001,0.17768299999999998,0.26385
2019-05-23T04:35:21.042690Z,0.772641,0.041054,0.33001199999999997
2019-05-23T04:35:21.083690Z,-0.201212,0.596063,-0.31454
2019-05-23T04:35:21.124690Z,1.75911,0.099216,1.225627
2019-05-23T04:35:21.164690Z,1.792346,0.102017,1.19777
2019-05-23T04:35:21.203690Z,1.469211,-1.107082,1.077974
2019-05-23T04:35:21.243690Z,1.635327,-0.967924,0.426095
2019-05-23T04:35:21.283690Z,1.805695,-0.9298799999999999,0.393717
2019-05-23T04:35:21.322690Z,0.807088,-0.9366110000000001,-0.607911
2019-05-23T04:35:21.362690Z,0.317732,-0.51208,-0.612028
2019-05-23T04:35:21.402690Z,0.349249,-0.5015930000000001,-0.604344
2019-05-23T04:35:21.443690Z,0.160051,-0.172018,-1.573159
2019-05-23T04:35:21.483690Z,0.316422,-0.046449000000000004,-0.476995
2019-05-23T04:35:21.523690Z,0.269396,-0.013932,-0.48421800000000004
2019-05-23T04:35:21.565690Z,0.183267,0.30857399999999996,-0.35959800000000003
2019-05-23T04:35:21.604690Z,0.6568930000000001,0.9677620000000001,-0.566438
2019-05-23T04:35:21.643690Z,0.677319,0.98814,-0.5793159999999999
2019-05-23T04:35:21.682690Z,0.428384,1.235339,-0.068719
2019-05-23T04:35:21.723690Z,0.42271800000000004,1.244336,0.604356
2019-05-23T04:35:21.765690Z,0.490331,1.219088,0.591982
2019-05-23T04:35:21.809690Z,0.10039,1.047834,0.334692
2019-05-23T04:35:21.843690Z,-0.086686,0.700933,0.793752
2019-05-23T04:35:21.883690Z,-0.251231,0.589734,0.8472729999999999
2019-05-23T04:35:21.923690Z,0.6335729999999999,-0.527838,1.6722130000000002
2019-05-23T04:35:21.967690Z,0.398003,-0.933642,0.41749200000000003
2019-05-23T04:35:22.003690Z,0.49745200000000006,-0.92927,0.410804
2019-05-23T04:35:22.043690Z,0.587198,-1.2008379999999998,-0.391366
2019-05-23T04:35:22.083690Z,0.238632,-1.069726,-0.200294
2019-05-23T04:35:22.123690Z,0.28392399999999995,-1.063473,-0.192163
2019-05-23T04:35:22.164690Z,0.77569,-0.781043,-0.604578
2019-05-23T04:35:22.222690Z,0.453341,-0.338057,-0.641408
2019-05-23T04:35:22.243690Z,0.46175,-0.37352399999999997,-0.606604
2019-05-23T04:35:22.284690Z,0.363057,-0.359651,0.2628
2019-05-23T04:35:22.324690Z,0.093124,-0.158344,0.20011900000000002
2019-05-23T04:35:22.366690Z,0.21642899999999998,-0.269271,0.271769
2019-05-23T04:35:22.405690Z,-0.014806999999999999,0.7076640000000001,-0.9665100000000001
2019-05-23T04:35:22.444690Z,0.038572,0.7685810000000001,-0.654196
2019-05-23T04:35:22.484690Z,0.039011000000000004,0.696657,-0.602857
2019-05-23T04:35:22.523690Z,-0.495874,0.526459,-0.025893
2019-05-23T04:35:22.564690Z,-0.623764,0.348495,0.319864
2019-05-23T04:35:22.651690Z,-0.49854,0.370368,0.296883
2019-05-23T04:35:22.652690Z,-0.329518,0.9842920000000001,-0.24355300000000002
2019-05-23T04:35:22.689690Z,0.163184,-0.201659,2.30939
2019-05-23T04:35:22.723690Z,0.127469,-0.33873200000000003,2.369609
2019-05-23T04:35:22.766690Z,0.48576,-1.1715790000000001,0.30189499999999997
2019-05-23T04:35:22.806690Z,0.615528,-1.096083,-0.159063
2019-05-23T04:35:22.844690Z,0.581194,-1.0187469999999998,-0.196866
2019-05-23T04:35:22.884690Z,0.031979,-1.102729,-0.8685459999999999
2019-05-23T04:35:22.924690Z,-0.135451,-0.565195,-1.330506
2019-05-23T04:35:22.966690Z,-0.21323000000000003,-0.48305,-1.351774
2019-05-23T04:35:23.011690Z,-0.10055900000000001,0.037594,-1.348406
2019-05-23T04:35:23.044690Z,0.028486,0.34817800000000004,-1.073984
2019-05-23T04:35:23.085690Z,-0.025588999999999997,0.475883,-1.133026
2019-05-23T04:35:23.124690Z,-0.182753,0.30444,0.215939
2019-05-23T04:35:23.165690Z,-0.110802,0.6591899999999999,0.62092
2019-05-23T04:35:23.204690Z,-0.210997,0.611765,0.6426350000000001
2019-05-23T04:35:23.244690Z,0.497813,0.905798,0.702548
2019-05-23T04:35:23.284690Z,-0.194,0.40234000000000003,0.7184159999999999
2019-05-23T04:35:23.324690Z,-0.21821100000000002,0.363638,0.728861
2019-05-23T04:35:23.368690Z,-0.7153689999999999,0.35825,1.2769780000000002
2019-05-23T04:35:23.405690Z,-0.442262,-0.912644,2.076924
2019-05-23T04:35:23.445690Z,-0.21152600000000002,-0.917083,2.025208
2019-05-23T04:35:23.486690Z,-0.5736220000000001,-1.258708,0.763844
2019-05-23T04:35:23.526690Z,-0.12534800000000001,-0.562239,0.009647
2019-05-23T04:35:23.567690Z,-0.11109400000000001,-0.689699,0.104327
2019-05-23T04:35:23.606690Z,0.234296,-0.620713,-0.674217
2019-05-23T04:35:23.644690Z,-0.738548,-1.338315,-0.787817
2019-05-23T04:35:23.685690Z,-0.7982060000000001,-1.350042,-0.745343
2019-05-23T04:35:23.743690Z,-1.089885,-0.790611,-0.40889699999999995
2019-05-23T04:35:23.770690Z,-0.660021,-0.234062,-0.8937930000000001
2019-05-23T04:35:23.806690Z,-0.810017,-0.258967,-0.838511
2019-05-23T04:35:23.844690Z,-0.47208,0.622409,-0.232239
2019-05-23T04:35:23.884690Z,-0.080447,0.794357,0.516981
2019-05-23T04:35:23.926690Z,-0.081914,0.876025,0.43758100000000005
2019-05-23T04:35:23.966690Z,-0.013876,0.7167319999999999,0.6608609999999999
2019-05-23T04:35:24.005690Z,0.134256,0.989807,0.11125499999999999
2019-05-23T04:35:24.045690Z,0.043779000000000005,1.1333,0.009828
2019-05-23T04:35:24.096690Z,0.453793,0.987044,1.0579969999999999
2019-05-23T04:35:24.125690Z,1.1477959999999998,-0.810963,1.4718719999999998
2019-05-23T04:35:24.164690Z,1.19807,-0.803139,1.440403
2019-05-23T04:35:24.205690Z,0.64094,-1.014912,-0.114758
2019-05-23T04:35:24.245690Z,0.8729469999999999,-1.013431,-0.199019
2019-05-23T04:35:24.285690Z,0.9043120000000001,-0.930837,-0.243065
2019-05-23T04:35:24.325690Z,0.558179,-0.8723920000000001,-0.838507
2019-05-23T04:35:24.365690Z,0.37233,-0.7042069999999999,-1.173168
2019-05-23T04:35:24.407690Z,0.35435300000000003,-0.7338439999999999,-1.126884
2019-05-23T04:35:24.445690Z,-0.033108,-0.552099,-1.0413709999999998
2019-05-23T04:35:24.485690Z,-0.126425,0.046350999999999996,-0.8217540000000001
2019-05-23T04:35:24.525690Z,-0.079454,0.116013,-0.8548530000000001
2019-05-23T04:35:24.565690Z,-0.23209499999999997,0.736665,0.124873
2019-05-23T04:35:24.605690Z,0.103719,0.9711280000000001,0.614984
2019-05-23T04:35:24.647690Z,0.129003,0.8928649999999999,0.639235
2019-05-23T04:35:24.687690Z,0.322092,0.554434,1.2734809999999999
2019-05-23T04:35:24.726690Z,0.160475,0.013203999999999999,0.7102430000000001
2019-05-23T04:35:24.769690Z,0.296306,-0.069047,0.743242
2019-05-23T04:35:24.808690Z,-0.870447,-0.423033,1.366565
2019-05-23T04:35:24.847690Z,0.025974,-1.141901,0.634667
2019-05-23T04:35:24.887690Z,0.020277,-1.159966,0.650683
2019-05-23T04:35:24.927690Z,0.386763,-0.43748400000000004,-0.433845
2019-05-23T04:35:24.968690Z,0.522257,-0.734194,-0.082399
2019-05-23T04:35:25.005690Z,0.516461,-0.6506970000000001,-0.129505
2019-05-23T04:35:25.083690Z,0.32595100000000005,-0.752604,-0.687942
2019-05-23T04:35:25.095690Z,0.113641,-0.274733,-0.6664140000000001
2019-05-23T04:35:25.127690Z,0.058396,-0.21695100000000003,-0.685062
2019-05-23T04:35:25.166690Z,-0.645633,0.035739,-1.025406
2019-05-23T04:35:25.209690Z,-1.107383,0.171685,-0.690448
2019-05-23T04:35:25.246690Z,-1.0985559999999999,0.215916,-0.706853
2019-05-23T04:35:25.287690Z,-1.306945,0.43453400000000003,0.25975
2019-05-23T04:35:25.326690Z,-1.217183,0.31104499999999996,1.112809
2019-05-23T04:35:25.366690Z,-1.1827290000000001,0.251886,1.126494
2019-05-23T04:35:25.406690Z,-0.950412,0.169903,1.303827
2019-05-23T04:35:25.447690Z,-1.10699,0.262876,1.016106
2019-05-23T04:35:25.486690Z,-1.1773850000000001,0.25957399999999997,1.006412
2019-05-23T04:35:25.526690Z,-1.401031,-0.314784,1.084725
2019-05-23T04:35:25.569690Z,-1.076893,-1.7931650000000001,1.538475
2019-05-23T04:35:25.606690Z,-1.004729,-1.8492990000000002,1.563361
2019-05-23T04:35:25.646690Z,-2.145234,-1.338036,0.22126500000000002
2019-05-23T04:35:25.687690Z,-1.611779,-1.167829,-0.018331999999999998
2019-05-23T04:35:25.728690Z,-1.618886,-1.140578,-0.019717
2019-05-23T04:35:25.769690Z,-1.7265810000000001,-1.5289,0.9799610000000001
2019-05-23T04:35:25.807690Z,-1.354019,-1.164684,0.273911
2019-05-23T04:35:25.849690Z,-1.284933,-1.14801,0.267399
2019-05-23T04:35:25.889690Z,-0.6848420000000001,-0.981454,0.475412
2019-05-23T04:35:25.926690Z,-0.270961,-0.89246,0.42917
2019-05-23T04:35:25.969690Z,-0.319895,-0.878158,0.426178
2019-05-23T04:35:26.008690Z,-0.014969999999999999,-1.0485280000000001,0.16731500000000002
2019-05-23T04:35:26.048690Z,0.692901,-0.577969,0.505825
2019-05-23T04:35:26.087690Z,0.684675,-0.484932,0.44308400000000003
2019-05-23T04:35:26.127690Z,1.43946,-0.416625,0.439071
2019-05-23T04:35:26.166690Z,1.5357809999999998,0.184383,-0.639618
2019-05-23T04:35:26.207690Z,1.52562,0.219045,-0.653439
2019-05-23T04:35:26.247690Z,1.6596229999999998,0.568986,-0.447774
2019-05-23T04:35:26.289690Z,1.8157279999999998,0.6335850000000001,-0.583667
2019-05-23T04:35:26.329690Z,1.856682,0.614693,-0.5737300000000001
2019-05-23T04:35:26.369690Z,0.345583,1.043079,-0.8374299999999999
2019-05-23T04:35:26.407690Z,0.994181,1.199568,1.526564
2019-05-23T04:35:26.447690Z,1.128931,1.288632,1.4212360000000002
2019-05-23T04:35:26.487690Z,-0.020427,-0.225025,1.875046
2019-05-23T04:35:26.563690Z,-0.602743,-0.8416129999999999,0.85134
2019-05-23T04:35:26.567690Z,-0.35569,-0.91206,0.884555
2019-05-23T04:35:26.607690Z,0.008551999999999999,-0.99872,-0.591126
2019-05-23T04:35:26.647690Z,0.008498,-0.5703590000000001,-0.868917
2019-05-23T04:35:26.687690Z,0.039611,-0.5527569999999999,-0.8578709999999999
2019-05-23T04:35:26.727690Z,1.0588879999999998,-0.46723000000000003,-0.650224
2019-05-23T04:35:26.808690Z,1.014402,0.158676,-0.673104
2019-05-23T04:35:26.808690Z,1.099941,0.194439,-0.6764720000000001
2019-05-23T04:35:26.847690Z,0.9851840000000001,0.202881,-0.145066
2019-05-23T04:35:26.886690Z,1.2807879999999998,0.565283,0.408792
2019-05-23T04:35:26.928690Z,1.241776,0.444996,0.470818
2019-05-23T04:35:26.970690Z,1.075735,0.5729989999999999,0.575407
2019-05-23T04:35:27.008690Z,1.2564819999999999,0.593865,1.8918840000000001
2019-05-23T04:35:27.047690Z,1.557806,0.5159090000000001,1.9318240000000002
2019-05-23T04:35:27.087690Z,0.6275149999999999,0.869183,-1.095083
2019-05-23T04:35:27.142690Z,1.5311860000000002,0.533451,0.674824
2019-05-23T04:35:27.167690Z,1.405767,0.61554,0.598002
2019-05-23T04:35:27.207690Z,2.553125,-0.392402,-0.297671
2019-05-23T04:35:27.247690Z,2.448143,-0.557665,-0.8508379999999999
2019-05-23T04:35:27.287690Z,2.225968,-0.279721,-0.992173
2019-05-23T04:35:27.327690Z,1.397923,-0.983614,-0.157953
2019-05-23T04:35:27.367690Z,1.971291,-1.232839,-0.031152
2019-05-23T04:35:27.408690Z,1.9880689999999999,-1.3767610000000001,0.056278999999999996
2019-05-23T04:35:27.449690Z,1.7523529999999998,-0.267623,-2.12703
2019-05-23T04:35:27.488690Z,1.484991,0.721182,-1.3062340000000001
2019-05-23T04:35:27.529690Z,1.6109950000000002,0.7051149999999999,-1.281191
2019-05-23T04:35:27.571690Z,0.796913,1.0927280000000001,0.29531399999999997
2019-05-23T04:35:27.609690Z,0.547128,0.779463,0.851891
2019-05-23T04:35:27.648690Z,0.569052,0.723454,0.863049
2019-05-23T04:35:27.689690Z,0.057641,-0.052536,1.1603709999999998
2019-05-23T04:35:27.729690Z,0.507256,0.988967,1.596183
2019-05-23T04:35:27.770690Z,0.386565,0.964468,1.572531
2019-05-23T04:35:27.809690Z,0.27731999999999996,-0.13988399999999998,0.759423
2019-05-23T04:35:27.849690Z,-0.714854,-0.568711,0.0707
2019-05-23T04:35:27.889690Z,-0.809154,-0.61024,0.095683
2019-05-23T04:35:27.932690Z,-0.175928,-0.8365370000000001,0.050700999999999996
2019-05-23T04:35:27.969690Z,0.371621,-1.050786,-0.721409
2019-05-23T04:35:28.065690Z,0.41844,-0.985517,-0.734684
2019-05-23T04:35:28.066690Z,0.638574,-0.682134,-0.758309
2019-05-23T04:35:28.094690Z,-0.152901,-0.491932,-1.347005
2019-05-23T04:35:28.128690Z,-0.288799,-0.5166689999999999,-1.308875
2019-05-23T04:35:28.168690Z,0.42775100000000005,-0.091908,-0.9713149999999999
2019-05-23T04:35:28.209690Z,0.24206399999999997,0.46052200000000004,-0.834572
2019-05-23T04:35:28.251690Z,0.19752999999999998,0.481501,-0.8372809999999999
2019-05-23T04:35:28.289690Z,0.13151600000000002,0.45406,0.195348
2019-05-23T04:35:28.329690Z,0.327349,0.96904,1.673145
2019-05-23T04:35:28.370690Z,0.336409,0.883401,1.686086
2019-05-23T04:35:28.409690Z,0.9431069999999999,1.31733,0.5165069999999999
2019-05-23T04:35:28.449690Z,0.540076,0.209377,3.1374619999999998
2019-05-23T04:35:28.488690Z,0.629972,0.036941,3.177304
2019-05-23T04:35:28.528690Z,0.9143309999999999,-1.403894,1.322832
2019-05-23T04:35:28.568690Z,0.730701,-0.8869959999999999,-0.9586459999999999
2019-05-23T04:35:28.608690Z,0.73756,-0.811304,-0.9806450000000001
2019-05-23T04:35:28.650690Z,0.798884,-0.682416,-2.144749
2019-05-23T04:35:28.688690Z,0.536185,-0.7378,-1.836196
2019-05-23T04:35:28.728690Z,0.475328,-0.5857060000000001,-1.879578
2019-05-23T04:35:28.769690Z,0.056451999999999995,-0.383676,-1.489352
2019-05-23T04:35:28.809690Z,0.401454,0.031137,-0.281407
2019-05-23T04:35:28.850690Z,0.343141,-0.07477400000000001,-0.21977600000000003
2019-05-23T04:35:28.890690Z,0.634857,0.500155,0.684286
2019-05-23T04:35:28.929690Z,0.542065,1.389105,0.085713
2019-05-23T04:35:28.970690Z,0.47742299999999993,1.353428,0.095218
2019-05-23T04:35:29.011690Z,0.178374,1.1294,1.729589
2019-05-23T04:35:29.049690Z,-0.366131,0.8661530000000001,0.796434
2019-05-23T04:35:29.089690Z,-0.496042,0.8317379999999999,0.803804
2019-05-23T04:35:29.130690Z,0.11721199999999998,0.678437,2.22548
2019-05-23T04:35:29.172690Z,-0.11636600000000001,-1.236934,0.42470600000000003
2019-05-23T04:35:29.211690Z,0.038721,-1.2102629999999999,0.404696
2019-05-23T04:35:29.251690Z,-0.8375670000000001,-1.901963,0.064096
2019-05-23T04:35:29.291690Z,-0.259463,-1.701356,-0.47373999999999994
2019-05-23T04:35:29.331690Z,-0.24334899999999998,-1.7448009999999998,-0.41834499999999997
2019-05-23T04:35:29.374690Z,0.788158,-0.990864,-0.923501
2019-05-23T04:35:29.410690Z,0.513275,-0.9199120000000001,-0.898194
2019-05-23T04:35:29.449690Z,0.635281,-0.89213,-0.890901
2019-05-23T04:35:29.490690Z,0.103126,-0.261666,-1.571602
2019-05-23T04:35:29.569690Z,0.036186,0.45283199999999996,0.084423
2019-05-23T04:35:29.571690Z,0.083999,0.352569,0.142677
2019-05-23T04:35:29.609690Z,0.07483200000000001,0.37085300000000004,0.253173
2019-05-23T04:35:29.651690Z,0.433701,0.5386489999999999,0.099098
2019-05-23T04:35:29.690690Z,0.43442700000000006,0.553385,0.081697
2019-05-23T04:35:29.730690Z,0.149238,0.400868,0.515828
2019-05-23T04:35:29.772690Z,0.173208,0.772405,-0.245245
2019-05-23T04:35:29.810690Z,-0.00442,0.999375,-0.38616300000000003
2019-05-23T04:35:29.849690Z,1.279651,-0.456142,1.579949
2019-05-23T04:35:29.890690Z,1.223501,-1.117176,0.639547
2019-05-23T04:35:29.930690Z,1.263903,-1.051739,0.602753
2019-05-23T04:35:29.970690Z,1.412541,-0.401845,-0.496754
2019-05-23T04:35:30.010690Z,0.23994000000000001,-0.374363,-0.720931
2019-05-23T04:35:30.050690Z,0.190148,-0.396856,-0.693785
2019-05-23T04:35:30.090690Z,0.334976,-0.100816,-0.732525
2019-05-23T04:35:30.131690Z,0.12576800000000002,0.029158999999999997,-1.0043600000000001
2019-05-23T04:35:30.173690Z,0.163322,0.071732,-1.010083
2019-05-23T04:35:30.211690Z,-0.197484,0.22482,-0.36061
2019-05-23T04:35:30.250690Z,0.18099,0.8094939999999999,0.322276
2019-05-23T04:35:30.290690Z,0.203128,0.712993,0.36246100000000003
2019-05-23T04:35:30.332690Z,0.583665,1.173,0.174526
2019-05-23T04:35:30.371690Z,0.098097,1.1656030000000002,0.8608110000000001
2019-05-23T04:35:30.411690Z,0.255911,1.0424930000000001,0.910264
2019-05-23T04:35:30.452690Z,0.07974400000000001,0.887476,0.220572
2019-05-23T04:35:30.491690Z,0.088397,0.657179,1.405694
2019-05-23T04:35:30.532690Z,0.1156,0.711627,1.345112
2019-05-23T04:35:30.574690Z,0.244772,-1.376535,0.685772
2019-05-23T04:35:30.610690Z,0.781291,-1.048952,0.273598
2019-05-23T04:35:30.651690Z,0.907934,-1.044072,0.285096
2019-05-23T04:35:30.691690Z,0.8868940000000001,-1.050405,-0.753076
2019-05-23T04:35:30.731690Z,0.41801400000000005,-1.040929,-0.756672
2019-05-23T04:35:30.773690Z,0.413488,-1.078345,-0.711805
2019-05-23T04:35:30.811690Z,0.331933,-0.735548,-1.251427
2019-05-23T04:35:30.851690Z,-0.002009,-0.257441,-1.190851
2019-05-23T04:35:30.891690Z,-0.091641,-0.226334,-1.1939389999999999
2019-05-23T04:35:30.976690Z,-0.18246800000000002,0.42987700000000006,-0.279023
2019-05-23T04:35:30.977690Z,-0.123107,0.406853,0.179357
2019-05-23T04:35:31.015690Z,-0.24525500000000003,0.371949,0.184977
2019-05-23T04:35:31.051690Z,0.586879,1.238558,0.49498400000000004
2019-05-23T04:35:31.091690Z,0.38705900000000004,1.324354,0.583186
2019-05-23T04:35:31.131690Z,0.415825,1.303091,0.574191
2019-05-23T04:35:31.174690Z,-0.098909,1.326824,-0.52072
2019-05-23T04:35:31.212690Z,0.398861,-0.759293,2.331395
2019-05-23T04:35:31.251690Z,0.45005500000000004,-0.884056,2.373043
2019-05-23T04:35:31.291690Z,0.8733110000000001,-0.817674,0.45898999999999995
2019-05-23T04:35:31.331690Z,0.699576,-1.074128,-0.263234
2019-05-23T04:35:31.373690Z,0.721158,-1.0311190000000001,-0.273271
2019-05-23T04:35:31.413690Z,0.18074500000000002,-1.096364,-0.3711
2019-05-23T04:35:31.451690Z,-0.106999,-0.8598379999999999,-1.076103
2019-05-23T04:35:31.493690Z,-0.156319,-0.876308,-1.040857
2019-05-23T04:35:31.531690Z,-0.04338,-0.163733,-1.2216870000000002
2019-05-23T04:35:31.572690Z,0.122721,0.18920399999999998,-0.9615549999999999
2019-05-23T04:35:31.612690Z,0.077707,0.175123,-0.9390379999999999
2019-05-23T04:35:31.651690Z,-0.069065,0.543231,0.13694800000000001
2019-05-23T04:35:31.691690Z,0.047189999999999996,0.80699,-0.081692
2019-05-23T04:35:31.732690Z,0.197959,0.851354,-0.114524
2019-05-23T04:35:31.771690Z,-0.199401,0.862658,0.637391
2019-05-23T04:35:31.812690Z,-0.20181300000000002,1.138439,1.273211
2019-05-23T04:35:31.852690Z,-0.144456,1.078829,1.280972
2019-05-23T04:35:31.892690Z,0.124581,1.041474,1.07148
2019-05-23T04:35:31.932690Z,0.243515,-1.241506,0.93196
2019-05-23T04:35:31.972690Z,0.236021,-1.256632,0.938214
2019-05-23T04:35:32.012690Z,-0.13212000000000002,-1.385131,0.49130100000000004
2019-05-23T04:35:32.051690Z,0.924484,-1.093416,-0.500508
2019-05-23T04:35:32.091690Z,0.9216,-1.053584,-0.505092
2019-05-23T04:35:32.131690Z,0.790842,-1.0556969999999999,-0.34402699999999997
2019-05-23T04:35:32.174690Z,0.8302069999999999,-0.8478600000000001,-0.670343
2019-05-23T04:35:32.214690Z,1.005923,-0.8588450000000001,-0.622602
2019-05-23T04:35:32.252690Z,0.839117,-0.413714,-0.578773
2019-05-23T04:35:32.292690Z,0.80893,-0.13308,-0.407882
2019-05-23T04:35:32.333690Z,0.770142,-0.160098,-0.385705
2019-05-23T04:35:32.373690Z,0.635781,-0.202067,0.300132
2019-05-23T04:35:32.413690Z,1.090427,-0.235729,1.088367
2019-05-23T04:35:32.475690Z,1.120121,-0.250779,1.087862
2019-05-23T04:35:32.504690Z,0.8521780000000001,-0.525521,1.453978
2019-05-23T04:35:32.531690Z,1.152715,-0.385214,1.38481
2019-05-23T04:35:32.573690Z,1.071541,-0.439312,1.3974959999999998
2019-05-23T04:35:32.612690Z,1.8359,-1.508253,1.5588950000000001
2019-05-23T04:35:32.651690Z,1.473731,-2.1746209999999997,0.82558
2019-05-23T04:35:32.693690Z,1.326473,-2.067771,0.7520319999999999
2019-05-23T04:35:32.732690Z,1.619376,-2.135159,1.605651
2019-05-23T04:35:32.774690Z,2.410748,-1.839822,1.632526
2019-05-23T04:35:32.832690Z,2.215649,-1.8342459999999998,1.616899
2019-05-23T04:35:32.852690Z,2.319718,-2.0488939999999998,1.669255
2019-05-23T04:35:32.895690Z,1.212085,-2.300266,1.3223989999999999
2019-05-23T04:35:32.933690Z,1.1455739999999999,-2.2984970000000002,1.323942
2019-05-23T04:35:32.974690Z,0.413826,-1.8960580000000002,1.3011620000000002
2019-05-23T04:35:33.013690Z,0.53442,-1.621493,1.5914190000000001
2019-05-23T04:35:33.052690Z,0.6474270000000001,-1.7938610000000001,1.7017759999999997
2019-05-23T04:35:33.092690Z,0.8170470000000001,-1.9478990000000003,1.32895
2019-05-23T04:35:33.133690Z,0.00186,-2.105876,1.25158
2019-05-23T04:35:33.173690Z,0.407878,-2.074362,1.272685
2019-05-23T04:35:33.212690Z,-0.117308,-1.4960280000000001,0.036909
2019-05-23T04:35:33.268690Z,-1.134552,-1.073747,-0.58868
2019-05-23T04:35:33.292690Z,-1.267776,-0.9551639999999999,-0.6703720000000001
2019-05-23T04:35:33.333690Z,-0.5803,-0.5497989999999999,0.000603
2019-05-23T04:35:33.374690Z,-0.21395100000000003,-0.781909,0.269498
2019-05-23T04:35:33.415690Z,-0.327908,-0.760437,0.24858400000000003
2019-05-23T04:35:33.453690Z,0.406441,-0.57765,0.651633
2019-05-23T04:35:33.498690Z,0.720726,-0.139351,1.440598
2019-05-23T04:35:33.534690Z,0.685852,-0.23282199999999997,1.482102
2019-05-23T04:35:33.596690Z,0.942356,-0.16484200000000002,0.8298180000000001
2019-05-23T04:35:33.613690Z,-0.391443,-1.237536,2.08577
2019-05-23T04:35:33.653690Z,-0.406613,-1.241161,2.0667720000000003
2019-05-23T04:35:33.694690Z,-1.2487110000000001,-2.259431,1.536046
2019-05-23T04:35:33.734690Z,-1.393942,-1.993769,0.45939399999999997
2019-05-23T04:35:33.775690Z,-1.393485,-1.8182939999999999,0.357116
2019-05-23T04:35:33.814690Z,-0.8431569999999999,-1.8987080000000003,0.896958
2019-05-23T04:35:33.854690Z,-0.33285,-1.963432,0.73741
2019-05-23T04:35:33.894690Z,-0.15749100000000002,-2.006792,0.787335
2019-05-23T04:35:33.934690Z,0.330387,-1.441869,-0.259549
2019-05-23T04:35:33.976690Z,0.304157,-0.9541290000000001,-1.066262
2019-05-23T04:35:34.013690Z,0.391853,-0.876805,-1.072337
2019-05-23T04:35:34.108690Z,-0.506258,-0.712903,-1.388117
2019-05-23T04:35:34.109690Z,0.349346,-0.18019000000000002,0.154893
2019-05-23T04:35:34.135690Z,0.147014,-0.140007,0.10343800000000002
2019-05-23T04:35:34.174690Z,-0.21570799999999998,0.040898000000000004,0.9112549999999999
2019-05-23T04:35:34.213690Z,0.348576,-0.16883,1.253973
2019-05-23T04:35:34.254690Z,0.192217,-0.264755,1.2811620000000001
2019-05-23T04:35:34.294690Z,0.157789,0.074698,1.696436
2019-05-23T04:35:34.334690Z,-0.374369,-0.362309,-0.563226
2019-05-23T04:35:34.375690Z,-0.6029680000000001,-0.158486,-0.686535
2019-05-23T04:35:34.417690Z,0.19156700000000002,-1.258772,2.532317
2019-05-23T04:35:34.454690Z,0.299953,-1.9321240000000002,1.3120290000000001
2019-05-23T04:35:34.493690Z,0.322046,-1.878089,1.277575
2019-05-23T04:35:34.533690Z,1.1695659999999999,-1.155265,0.359175
2019-05-23T04:35:34.573690Z,0.323748,-1.327144,0.26626
2019-05-23T04:35:34.615690Z,0.372243,-1.34251,0.285018
2019-05-23T04:35:34.654690Z,0.501947,-0.979138,-0.571815
2019-05-23T04:35:34.694690Z,0.362329,-0.533012,-0.947434
2019-05-23T04:35:34.734690Z,0.378379,-0.588559,-0.892333
2019-05-23T04:35:34.776690Z,0.301442,-0.49729300000000004,-0.37932899999999997
2019-05-23T04:35:34.814690Z,-0.033696,-0.28383400000000003,0.506239
2019-05-23T04:35:34.854690Z,0.009559,-0.333014,0.533741
2019-05-23T04:35:34.895690Z,0.099136,0.008298999999999999,1.099597
2019-05-23T04:35:34.935690Z,0.064763,0.092,1.5786129999999998
2019-05-23T04:35:34.976690Z,0.16083499999999998,0.002101,1.6163530000000002
2019-05-23T04:35:35.015690Z,-0.138654,0.239767,0.25134
2019-05-23T04:35:35.055690Z,-0.133722,-0.313296,1.754291
2019-05-23T04:35:35.096690Z,-0.12025699999999999,-0.32128,1.7342849999999999
2019-05-23T04:35:35.136690Z,-0.09655599999999999,-1.9567740000000002,1.256216
2019-05-23T04:35:35.177690Z,0.044614999999999995,-1.886325,0.8242280000000001
2019-05-23T04:35:35.215690Z,0.087646,-1.845016,0.808067
2019-05-23T04:35:35.256690Z,0.532954,-1.7551130000000001,0.092872
2019-05-23T04:35:35.296690Z,0.75237,-1.4172049999999998,-0.5166689999999999
2019-05-23T04:35:35.335690Z,0.7548739999999999,-1.427948,-0.485176
2019-05-23T04:35:35.376690Z,0.783292,-1.015962,-0.57303
2019-05-23T04:35:35.416690Z,0.823528,-0.876662,-0.38971999999999996
2019-05-23T04:35:35.455690Z,0.8393780000000001,-0.854283,-0.385177
2019-05-23T04:35:35.495690Z,0.45657299999999995,-0.531195,-0.26466999999999996
2019-05-23T04:35:35.534690Z,0.397295,-0.7658119999999999,0.147764
2019-05-23T04:35:35.610690Z,0.409945,-0.7172810000000001,0.125726
2019-05-23T04:35:35.622690Z,1.089453,0.047382,2.2228950000000003
2019-05-23T04:35:35.656690Z,0.6886359999999999,0.018999000000000002,0.843877
2019-05-23T04:35:35.694690Z,0.47202299999999997,0.12902,0.7485430000000001
2019-05-23T04:35:35.735690Z,2.230458,-0.527842,2.402621
2019-05-23T04:35:35.777690Z,2.684702,-0.673162,1.2738639999999999
2019-05-23T04:35:35.815690Z,2.53487,-0.678508,1.260414
2019-05-23T04:35:35.854690Z,3.3265190000000002,-0.7973020000000001,0.034894
2019-05-23T04:35:35.894690Z,2.4279889999999997,-1.145132,0.04383
2019-05-23T04:35:35.934690Z,2.400195,-1.1602649999999999,0.062295
2019-05-23T04:35:35.975690Z,2.025769,-1.268398,-0.240957
2019-05-23T04:35:36.014690Z,1.16874,-1.033435,-0.284621
2019-05-23T04:35:36.054690Z,1.108783,-1.037708,-0.267493
2019-05-23T04:35:36.095690Z,0.8661190000000001,-0.7315010000000001,0.086865
2019-05-23T04:35:36.135690Z,1.0368700000000002,-0.244877,0.329329
2019-05-23T04:35:36.176690Z,1.008125,-0.262753,0.33677399999999996
2019-05-23T04:35:36.215690Z,0.669586,-0.260441,0.38864
2019-05-23T04:35:36.256690Z,0.8730700000000001,0.13948,1.202808
2019-05-23T04:35:36.297690Z,0.8754370000000001,0.061833000000000006,1.2268219999999999
2019-05-23T04:35:36.337690Z,0.47451099999999996,0.15484,0.7517560000000001
2019-05-23T04:35:36.377690Z,0.337933,0.018890999999999998,0.5638479999999999
2019-05-23T04:35:36.416690Z,0.33321999999999996,-0.005123,0.56924
2019-05-23T04:35:36.456690Z,0.10821199999999999,-0.415339,0.9988319999999999
2019-05-23T04:35:36.498690Z,-0.07559199999999999,-1.524846,1.04782
2019-05-23T04:35:36.537690Z,-0.081161,-1.488743,1.023967
2019-05-23T04:35:36.582690Z,-0.425962,-0.9518459999999999,0.444801
2019-05-23T04:35:36.616690Z,-0.050998,-1.101304,0.312006
2019-05-23T04:35:36.656690Z,-0.19424,-1.066216,0.30785
2019-05-23T04:35:36.697690Z,0.019541,-1.1309209999999998,0.370875
2019-05-23T04:35:36.736690Z,0.111304,-0.624606,-0.6890850000000001
2019-05-23T04:35:36.778690Z,0.167995,-0.609943,-0.683768
2019-05-23T04:35:36.815690Z,-0.160616,-0.435895,-0.9197139999999999
2019-05-23T04:35:36.894690Z,-0.07216,-0.018953,-0.527438
2019-05-23T04:35:36.907690Z,-0.070922,-0.051667,-0.49859
2019-05-23T04:35:36.940690Z,-0.280856,-0.097424,0.108953
2019-05-23T04:35:36.976690Z,-0.155248,-0.04682,0.979981
2019-05-23T04:35:37.016690Z,-0.157167,-0.09754,0.996352
2019-05-23T04:35:37.056690Z,-0.183391,-0.191947,0.971053
2019-05-23T04:35:37.097690Z,-0.815437,-0.001935,0.136254
2019-05-23T04:35:37.137690Z,-0.9537100000000001,0.10575799999999999,0.076149
2019-05-23T04:35:37.178690Z,0.392776,-0.633441,1.463902
2019-05-23T04:35:37.217690Z,0.495604,-0.742215,0.692842
2019-05-23T04:35:37.256690Z,0.44347299999999995,-0.737268,0.688561
2019-05-23T04:35:37.297690Z,1.455327,-0.904381,0.789304
2019-05-23T04:35:37.337690Z,0.711709,-1.1556680000000001,0.036057
2019-05-23T04:35:37.377690Z,0.80632,-1.140687,0.032938
2019-05-23T04:35:37.416690Z,0.7623310000000001,-1.096681,0.266925
2019-05-23T04:35:37.457690Z,0.55623,-0.8849309999999999,-0.812301
2019-05-23T04:35:37.496690Z,0.697315,-0.9723459999999999,-0.736074
2019-05-23T04:35:37.538690Z,0.07360499999999999,-0.503594,-0.713672
2019-05-23T04:35:37.576690Z,-0.36849299999999996,-0.269768,-0.485073
2019-05-23T04:35:37.616690Z,-0.370463,-0.330205,-0.433996
2019-05-23T04:35:37.656690Z,-0.46366999999999997,0.100209,-0.010620000000000001
2019-05-23T04:35:37.696690Z,-0.526756,0.08086499999999999,0.317157
2019-05-23T04:35:37.738690Z,-0.6333489999999999,0.103084,0.295061
2019-05-23T04:35:37.779690Z,-0.42650600000000005,-0.15502,1.4043299999999999
2019-05-23T04:35:37.817690Z,-0.284044,0.453003,0.359844
2019-05-23T04:35:37.857690Z,-0.257704,0.521961,0.30341999999999997
2019-05-23T04:35:37.897690Z,-0.640883,-0.143975,1.224969
2019-05-23T04:35:37.938690Z,-1.160917,-2.0369,0.9209350000000001
2019-05-23T04:35:37.979690Z,-1.0440200000000002,-2.016489,0.9183399999999999
2019-05-23T04:35:38.018690Z,-0.9417719999999999,-1.5162440000000001,-0.702101
2019-05-23T04:35:38.056690Z,-0.44256999999999996,-1.09345,-1.2471780000000001
2019-05-23T04:35:38.150690Z,-0.6210680000000001,-0.789516,-1.39275
2019-05-23T04:35:38.151690Z,0.31898000000000004,-1.13331,1.373685
2019-05-23T04:35:38.182690Z,-0.33817800000000003,-1.41035,0.619276
2019-05-23T04:35:38.217690Z,-0.279573,-1.450101,0.643998
2019-05-23T04:35:38.257690Z,-0.033413,-0.162974,-0.5269550000000001
2019-05-23T04:35:38.298690Z,-0.554284,0.08595499999999999,0.07838200000000001
2019-05-23T04:35:38.339690Z,-0.600843,0.09862,0.067774
2019-05-23T04:35:38.380690Z,-0.061212,-0.332557,1.304235
2019-05-23T04:35:38.418690Z,-0.468871,-0.229909,0.716763
2019-05-23T04:35:38.461690Z,-0.45223900000000006,-0.175499,0.6791590000000001
2019-05-23T04:35:38.510690Z,-1.040982,-0.419959,0.592381
2019-05-23T04:35:38.537690Z,-0.436759,-1.162199,1.89232
2019-05-23T04:35:38.579690Z,-0.27858499999999997,-1.144017,1.868025
2019-05-23T04:35:38.618690Z,-1.012486,-1.0366229999999999,0.284478
2019-05-23T04:35:38.657690Z,-1.043399,-1.2695809999999998,0.46036800000000005
2019-05-23T04:35:38.697690Z,-1.098463,-1.259788,0.45503000000000005
2019-05-23T04:35:38.738690Z,-0.829148,-1.3399,0.65575
2019-05-23T04:35:38.780690Z,-0.524088,-0.866395,0.140309
2019-05-23T04:35:38.819690Z,-0.451901,-0.881893,0.155832
2019-05-23T04:35:38.859690Z,0.030601,-0.592558,-0.273339
2019-05-23T04:35:38.898690Z,0.252348,-0.504612,-0.453167
2019-05-23T04:35:38.939690Z,0.21995599999999998,-0.465052,-0.46223400000000003
2019-05-23T04:35:38.980690Z,0.417732,0.052197,-0.298097
2019-05-23T04:35:39.018690Z,1.025475,0.642474,-0.085648
2019-05-23T04:35:39.058690Z,1.028291,0.638688,-0.08669600000000001
2019-05-23T04:35:39.099690Z,1.185188,1.158612,-0.051307000000000005
2019-05-23T04:35:39.138690Z,0.39982199999999996,0.853187,-0.045319
2019-05-23T04:35:39.181690Z,0.372467,0.872924,-0.061374
2019-05-23T04:35:39.220690Z,-0.321971,0.5321859999999999,0.9652950000000001
2019-05-23T04:35:39.258690Z,-0.428062,0.177242,1.046584
2019-05-23T04:35:39.299690Z,-0.562106,0.12829400000000002,1.047359
2019-05-23T04:35:39.339690Z,0.12024800000000001,0.08957799999999999,0.858598
2019-05-23T04:35:39.378690Z,-0.042214999999999996,-1.352048,0.8673209999999999
2019-05-23T04:35:39.419690Z,0.047158,-1.359332,0.8676280000000001
2019-05-23T04:35:39.459690Z,-0.205896,-1.354365,0.083109
2019-05-23T04:35:39.500690Z,0.399891,-1.443941,0.033524
2019-05-23T04:35:39.540690Z,0.448601,-1.363512,0.008293
2019-05-23T04:35:39.580690Z,0.48812,-1.378433,0.13610999999999998
2019-05-23T04:35:39.620690Z,0.019632,-0.980093,-0.377992
2019-05-23T04:35:39.659690Z,0.029337000000000002,-0.976057,-0.365746
2019-05-23T04:35:39.699690Z,-0.246689,-0.9292860000000001,-0.188471
2019-05-23T04:35:39.740690Z,-0.205999,-0.703847,0.288246
2019-05-23T04:35:39.781690Z,-0.338399,-0.817596,0.337517
2019-05-23T04:35:39.818690Z,-0.181032,-0.404888,0.87535
2019-05-23T04:35:39.859690Z,-0.33555999999999997,-0.141631,0.37562399999999996
2019-05-23T04:35:39.899690Z,-0.383733,-0.170093,0.383297
2019-05-23T04:35:39.965690Z,0.03478,0.082428,0.950889
2019-05-23T04:35:39.992690Z,0.099366,-0.148535,0.23983800000000002
2019-05-23T04:35:40.019690Z,0.003068,-0.159244,0.24111300000000002
2019-05-23T04:35:40.061690Z,-0.061814,-0.250083,0.839714
2019-05-23T04:35:40.099690Z,0.172039,-0.871865,0.548741
2019-05-23T04:35:40.139690Z,0.258004,-0.793517,0.508636
2019-05-23T04:35:40.182690Z,-0.005667,-1.608653,0.398808
2019-05-23T04:35:40.219690Z,0.076701,-1.989668,0.671535
2019-05-23T04:35:40.260690Z,0.121531,-2.021723,0.694967
2019-05-23T04:35:40.300690Z,0.47046899999999997,-1.645933,0.134098
2019-05-23T04:35:40.339690Z,0.384101,-0.9794450000000001,-0.095349
2019-05-23T04:35:40.381690Z,0.443428,-1.00912,-0.064887
2019-05-23T04:35:40.420690Z,0.07069099999999999,-1.044461,0.130701
2019-05-23T04:35:40.459690Z,0.9205209999999999,-0.884102,0.7044729999999999
2019-05-23T04:35:40.502690Z,0.9340120000000001,-0.9401700000000001,0.733274
2019-05-23T04:35:40.539690Z,1.334558,-0.496246,0.678658
2019-05-23T04:35:40.580690Z,1.381248,-0.206054,0.333624
2019-05-23T04:35:40.621690Z,1.401484,-0.27558,0.373621
2019-05-23T04:35:40.660690Z,1.074133,0.284431,-0.154857
2019-05-23T04:35:40.699690Z,1.411484,0.872606,0.560951
2019-05-23T04:35:40.740690Z,1.368742,0.781783,0.596598
2019-05-23T04:35:40.782690Z,1.655932,0.772461,0.9270520000000001
2019-05-23T04:35:40.820690Z,0.827375,0.540592,0.352906
2019-05-23T04:35:40.860690Z,0.8456239999999999,0.5945590000000001,0.311797
2019-05-23T04:35:40.901690Z,1.034993,-0.11649300000000001,1.325248
2019-05-23T04:35:40.941690Z,0.331057,-1.304683,0.31900100000000003
2019-05-23T04:35:40.981690Z,0.282587,-1.40608,0.385531
2019-05-23T04:35:41.019690Z,0.680555,-1.411764,0.6881390000000001
2019-05-23T04:35:41.059690Z,0.921895,-1.064433,-0.182412
2019-05-23T04:35:41.109690Z,0.979676,-1.027426,-0.18239
2019-05-23T04:35:41.140690Z,0.7843359999999999,-1.122938,-0.618352
2019-05-23T04:35:41.179690Z,0.524892,-0.8257209999999999,-0.455438
2019-05-23T04:35:41.220690Z,0.525003,-0.834994,-0.43186
2019-05-23T04:35:41.260690Z,0.719481,-0.468156,-0.613928
2019-05-23T04:35:41.300690Z,0.642991,-0.056553,-0.025682
2019-05-23T04:35:41.340690Z,0.6486850000000001,-0.028470999999999996,-0.040256
2019-05-23T04:35:41.380690Z,0.770668,0.323419,0.211319
2019-05-23T04:35:41.446690Z,0.8117439999999999,0.664979,0.164357
2019-05-23T04:35:41.460690Z,0.759834,0.6546930000000001,0.155972
2019-05-23T04:35:41.503690Z,0.554983,0.680525,0.412499
2019-05-23T04:35:41.541690Z,1.089038,0.8619829999999999,1.3340370000000001
2019-05-23T04:35:41.582690Z,1.097828,0.665331,1.436113
2019-05-23T04:35:41.620690Z,0.694455,0.087131,0.250381
2019-05-23T04:35:41.661690Z,1.3163,0.081035,1.397837
2019-05-23T04:35:41.700690Z,1.331805,-0.01625,1.445908
2019-05-23T04:35:41.741690Z,1.8871509999999998,-1.290833,0.662515
2019-05-23T04:35:41.783690Z,1.761277,-1.5356100000000001,-0.18287
2019-05-23T04:35:41.820690Z,1.8334150000000002,-1.479372,-0.191679
2019-05-23T04:35:41.861690Z,1.6919419999999998,-1.424218,-0.620789
2019-05-23T04:35:41.903690Z,1.196049,-0.787312,-0.633578
2019-05-23T04:35:41.943690Z,1.282572,-0.7167020000000001,-0.6465069999999999
2019-05-23T04:35:41.984690Z,1.26005,-0.615683,-0.43059
2019-05-23T04:35:42.021690Z,0.6883199999999999,-0.47938800000000004,-0.5311520000000001
2019-05-23T04:35:42.060690Z,0.651554,-0.406802,-0.570797
2019-05-23T04:35:42.099690Z,0.7754260000000001,0.10551700000000001,-0.022761
2019-05-23T04:35:42.144690Z,1.1328690000000001,0.002964,0.504374
2019-05-23T04:35:42.181690Z,0.976001,-0.002532,0.479886
2019-05-23T04:35:42.221690Z,0.797722,0.713899,0.39182
2019-05-23T04:35:42.260690Z,1.57615,0.829391,0.441909
2019-05-23T04:35:42.301690Z,1.516683,0.861238,0.401986
2019-05-23T04:35:42.341690Z,1.66628,0.16658499999999998,0.738119
2019-05-23T04:35:42.380690Z,1.417446,-0.7417600000000001,0.997347
2019-05-23T04:35:42.421690Z,1.414939,-0.642429,0.9269569999999999
2019-05-23T04:35:42.490690Z,1.181835,-0.712906,0.192438
2019-05-23T04:35:42.501690Z,2.109934,-1.087801,0.8483879999999999
2019-05-23T04:35:42.541690Z,2.060973,-1.052694,0.8242809999999999
2019-05-23T04:35:42.583690Z,2.096264,-1.440001,0.904709
2019-05-23T04:35:42.623690Z,2.4578860000000002,-1.287951,0.608452
2019-05-23T04:35:42.660690Z,2.525188,-1.272946,0.602739
2019-05-23T04:35:42.701690Z,2.283522,-0.907848,-0.587888
2019-05-23T04:35:42.741690Z,1.911571,-0.6074649999999999,-0.366116
2019-05-23T04:35:42.781690Z,1.9738220000000002,-0.621707,-0.344423
2019-05-23T04:35:42.822690Z,0.869339,-1.011732,0.473166
2019-05-23T04:35:42.861690Z,0.450388,-0.534903,1.446074
2019-05-23T04:35:42.902690Z,0.45688999999999996,-0.7632770000000001,1.5762
2019-05-23T04:35:42.941690Z,-0.25104299999999996,0.236465,-0.11397
2019-05-23T04:35:42.980690Z,-0.37414899999999995,0.341119,0.11776800000000001
2019-05-23T04:35:43.022690Z,-0.26390399999999997,0.380239,0.091044
2019-05-23T04:35:43.061690Z,-0.538347,0.324496,1.240294
2019-05-23T04:35:43.101690Z,-0.638295,0.763204,0.463055
2019-05-23T04:35:43.141690Z,-0.740275,0.805501,0.416473
2019-05-23T04:35:43.183690Z,0.469053,0.610283,1.699511
2019-05-23T04:35:43.222690Z,1.56481,-1.4073209999999998,2.000279
2019-05-23T04:35:43.261690Z,1.5089780000000002,-1.5405959999999999,2.073438
2019-05-23T04:35:43.303690Z,1.410103,-1.602064,0.098159
2019-05-23T04:35:43.342690Z,0.9938040000000001,-2.273535,0.545715
2019-05-23T04:35:43.385690Z,1.125143,-2.244882,0.543722
2019-05-23T04:35:43.423690Z,-0.226158,-1.8308810000000002,-0.320365
2019-05-23T04:35:43.462690Z,-0.034605000000000004,-1.186628,0.153204
2019-05-23T04:35:43.502690Z,-0.015267,-1.216917,0.18448499999999998
2019-05-23T04:35:43.542690Z,0.489203,-0.721608,-0.5181640000000001
2019-05-23T04:35:43.581690Z,0.104399,-0.461399,-0.714368
2019-05-23T04:35:43.622690Z,0.23579699999999998,-0.465476,-0.687654
2019-05-23T04:35:43.662690Z,-0.286998,-0.6045149999999999,-0.194996
2019-05-23T04:35:43.702690Z,-0.055265999999999996,0.007497,-0.047997000000000005
2019-05-23T04:35:43.742690Z,-0.023778999999999998,-0.065687,0.008440999999999999
2019-05-23T04:35:43.784690Z,-0.244835,0.668792,-0.42817
2019-05-23T04:35:43.847690Z,0.8372719999999999,0.745263,1.210668
2019-05-23T04:35:43.875690Z,0.855165,0.7341449999999999,1.192257
2019-05-23T04:35:43.902690Z,0.20830700000000002,0.033238,0.42046999999999995
2019-05-23T04:35:43.941690Z,0.9857799999999999,-0.7468819999999999,2.186472
2019-05-23T04:35:43.984690Z,0.9116620000000001,-0.697705,2.1226689999999997
2019-05-23T04:35:44.022690Z,1.1967020000000002,-2.4362790000000003,2.710305
2019-05-23T04:35:44.062690Z,1.384976,-2.578643,1.011347
2019-05-23T04:35:44.102690Z,1.31816,-2.526816,0.987035
2019-05-23T04:35:44.143690Z,2.247689,-2.75513,0.567822
2019-05-23T04:35:44.212690Z,2.320843,-2.560102,0.681299
2019-05-23T04:35:44.224690Z,2.297335,-2.481963,0.647432
2019-05-23T04:35:44.262690Z,1.961141,-1.688322,1.273541
2019-05-23T04:35:44.303690Z,1.293598,-1.827748,1.412984
2019-05-23T04:35:44.343690Z,1.294342,-1.763349,1.36821
2019-05-23T04:35:44.384690Z,0.215523,-1.8043740000000001,1.400289
2019-05-23T04:35:44.422690Z,-0.143288,-1.212472,1.3348209999999998
2019-05-23T04:35:44.463690Z,0.022296,-1.286659,1.373903
2019-05-23T04:35:44.503690Z,-0.251606,-0.5879989999999999,0.160659
2019-05-23T04:35:44.543690Z,-0.7346600000000001,-0.967176,0.649373
2019-05-23T04:35:44.585690Z,-0.735363,-1.0711950000000001,0.715064
2019-05-23T04:35:44.623690Z,-0.907093,-1.0314379999999999,1.190979
2019-05-23T04:35:44.663690Z,-0.8686659999999999,-1.106922,0.177769
2019-05-23T04:35:44.703690Z,-0.8189,-1.087633,0.17585399999999998
2019-05-23T04:35:44.743690Z,-0.298116,-0.584331,-0.232803
2019-05-23T04:35:44.783690Z,0.8622540000000001,-1.58438,0.609388
2019-05-23T04:35:44.822690Z,0.7333890000000001,-1.713805,0.707661
2019-05-23T04:35:44.864690Z,1.075081,-1.537198,0.17504
2019-05-23T04:35:44.904690Z,0.628303,-1.2270940000000001,0.779637
2019-05-23T04:35:44.943690Z,0.923409,-1.047447,0.670558
2019-05-23T04:35:44.985690Z,-0.244493,-1.345273,1.132112
2019-05-23T04:35:45.024690Z,-0.096586,-0.914414,0.572657
2019-05-23T04:35:45.064690Z,0.19494,-1.077561,0.717008
2019-05-23T04:35:45.103690Z,-0.20411700000000002,-0.791557,-1.252135
2019-05-23T04:35:45.182690Z,-1.568812,-0.799534,-1.425424
2019-05-23T04:35:45.194690Z,-1.6818220000000002,-0.713372,-1.469776
2019-05-23T04:35:45.223690Z,-2.063791,-0.677087,0.689284
2019-05-23T04:35:45.262690Z,-1.322825,-0.250231,1.584259
2019-05-23T04:35:45.303690Z,-1.381874,-0.371079,1.63421
2019-05-23T04:35:45.344690Z,-1.7683419999999999,-0.982022,1.240841
2019-05-23T04:35:45.386690Z,-1.677625,-0.831124,0.502668
2019-05-23T04:35:45.426690Z,-1.7923959999999999,-0.645544,0.370488
2019-05-23T04:35:45.464690Z,-1.7431020000000002,-1.882309,1.9027310000000002
2019-05-23T04:35:45.525690Z,-1.9865580000000003,-2.274092,0.639491
2019-05-23T04:35:45.544690Z,-2.0354799999999997,-2.222921,0.616525
2019-05-23T04:35:45.584690Z,-2.087972,-1.736057,0.009023
2019-05-23T04:35:45.624690Z,-1.288829,-1.8063169999999997,1.044902
2019-05-23T04:35:45.664690Z,-1.18505,-1.7316080000000003,1.0052510000000001
2019-05-23T04:35:45.705690Z,-1.259312,-1.577952,1.122967
2019-05-23T04:35:45.747690Z,-1.0389540000000002,-1.377997,1.2083059999999999
2019-05-23T04:35:45.785690Z,-1.0357290000000001,-1.460321,1.249403
2019-05-23T04:35:45.824690Z,-0.748674,-1.02892,0.14896099999999998
2019-05-23T04:35:45.864690Z,0.035283,-0.756125,0.6266649999999999
2019-05-23T04:35:45.905690Z,0.030543,-0.721683,0.603284
2019-05-23T04:35:45.944690Z,0.126502,-0.46587399999999995,0.336262
2019-05-23T04:35:45.985690Z,0.692024,-0.039193,0.21484299999999998
2019-05-23T04:35:46.024690Z,0.691787,0.0047420000000000006,0.18723399999999998
2019-05-23T04:35:46.063690Z,1.146616,0.351217,-0.086409
2019-05-23T04:35:46.105690Z,0.974734,-0.060749,0.466638
2019-05-23T04:35:46.145690Z,1.019284,-0.17183099999999998,0.524238
2019-05-23T04:35:46.185690Z,0.9073530000000001,-0.6321289999999999,-0.12980899999999998
2019-05-23T04:35:46.225690Z,1.27758,0.038137,0.07989600000000001
2019-05-23T04:35:46.264690Z,1.233417,0.075378,0.05611
2019-05-23T04:35:46.304690Z,1.7146599999999999,-0.768227,1.3578540000000001
2019-05-23T04:35:46.345690Z,0.637195,-0.882107,0.138906
2019-05-23T04:35:46.385690Z,0.702642,-0.761754,0.08523700000000001
2019-05-23T04:35:46.426690Z,0.585597,-0.590532,0.00742
2019-05-23T04:35:46.466690Z,-0.027239,-0.268994,0.281352
2019-05-23T04:35:46.504690Z,-0.061277,-0.331285,0.308448
2019-05-23T04:35:46.546690Z,0.9518270000000001,0.177153,-0.595531
2019-05-23T04:35:46.588690Z,0.705218,0.09954600000000001,-0.934442
2019-05-23T04:35:46.627690Z,0.8472709999999999,0.177121,-0.9408299999999999
2019-05-23T04:35:46.665690Z,0.335416,-0.000621,-0.723069
2019-05-23T04:35:46.706690Z,0.155109,0.235445,-0.077477
2019-05-23T04:35:46.746690Z,0.048131,0.146623,-0.045752999999999995
2019-05-23T04:35:46.789690Z,0.055865,0.032099,1.0063229999999999
2019-05-23T04:35:46.826690Z,0.017814,-0.23128200000000002,1.126272
2019-05-23T04:35:46.866690Z,-0.010646,-0.245265,1.114809
2019-05-23T04:35:46.905690Z,0.22025999999999998,0.179595,1.182878
2019-05-23T04:35:46.944690Z,0.355086,-0.26757800000000004,0.978449
2019-05-23T04:35:46.984690Z,0.418235,-0.188172,0.927629
2019-05-23T04:35:47.025690Z,0.536726,-0.674022,-0.15182400000000001
2019-05-23T04:35:47.088690Z,0.040241000000000006,-0.7050420000000001,-1.307308
2019-05-23T04:35:47.116690Z,-0.116272,-0.642637,-1.3289469999999999
2019-05-23T04:35:47.144690Z,0.433409,-0.240664,-0.45680600000000005
2019-05-23T04:35:47.184690Z,0.447989,-0.12418900000000001,-0.615786
2019-05-23T04:35:47.225690Z,0.46317700000000006,0.00042199999999999996,-0.661903
2019-05-23T04:35:47.265690Z,0.558348,0.306087,-0.031313
2019-05-23T04:35:47.305690Z,0.304371,0.41858599999999996,-0.328999
2019-05-23T04:35:47.348690Z,0.353561,0.502141,-0.357723
2019-05-23T04:35:47.387690Z,0.22661599999999998,0.7491300000000001,-0.21419499999999997
2019-05-23T04:35:47.439690Z,0.29897199999999996,0.6471399999999999,0.25590100000000005
2019-05-23T04:35:47.465690Z,0.26106599999999996,0.6179680000000001,0.25664899999999996
2019-05-23T04:35:47.506690Z,0.073412,0.368798,0.366962
2019-05-23T04:35:47.549690Z,0.238182,0.5716680000000001,1.0830790000000001
2019-05-23T04:35:47.585690Z,0.232275,0.40814,1.137067
2019-05-23T04:35:47.626690Z,0.381146,0.44702200000000003,0.491924
2019-05-23T04:35:47.665690Z,0.36731199999999997,0.260868,-0.252707
2019-05-23T04:35:47.706690Z,0.266417,0.417022,-0.329779
2019-05-23T04:35:47.746690Z,0.751364,-0.688289,1.343043
2019-05-23T04:35:47.787690Z,0.9042399999999999,-1.026525,0.541492
2019-05-23T04:35:47.826690Z,0.952176,-1.138976,0.60011
2019-05-23T04:35:47.866690Z,0.839907,-0.574397,-0.727916
2019-05-23T04:35:47.905690Z,0.542502,-0.9826969999999999,0.28419099999999997
2019-05-23T04:35:47.946690Z,0.605597,-0.9090219999999999,0.25924899999999995
2019-05-23T04:35:48.033690Z,0.014747999999999999,-0.387154,-1.151823
2019-05-23T04:35:48.034690Z,0.9565290000000001,0.570222,-1.015615
2019-05-23T04:35:48.068690Z,0.8276889999999999,0.580292,-1.014354
2019-05-23T04:35:48.105690Z,0.797298,0.681848,-0.680164
2019-05-23T04:35:48.146690Z,0.284659,0.261394,-0.058382
2019-05-23T04:35:48.188690Z,0.275319,0.22180500000000003,-0.041943
2019-05-23T04:35:48.226690Z,0.100413,0.462613,-0.12295299999999999
2019-05-23T04:35:48.266690Z,0.42901999999999996,0.793036,-0.098095
2019-05-23T04:35:48.307690Z,0.381011,0.726959,-0.072711
2019-05-23T04:35:48.348690Z,0.285713,0.47815,1.048316
2019-05-23T04:35:48.386690Z,0.181103,0.311979,0.858532
2019-05-23T04:35:48.426690Z,0.24843800000000002,0.306529,0.848348
2019-05-23T04:35:48.467690Z,0.227361,0.47304700000000005,0.560944
2019-05-23T04:35:48.506690Z,0.181842,-0.8881690000000001,1.9423139999999999
2019-05-23T04:35:48.546690Z,0.28262,-0.8307680000000001,1.894524
2019-05-23T04:35:48.586690Z,0.1502,-1.545035,0.7473810000000001
2019-05-23T04:35:48.626690Z,0.334884,-0.722644,-0.625781
2019-05-23T04:35:48.666690Z,0.21559099999999998,-0.7715,-0.593014
2019-05-23T04:35:48.706690Z,0.31793699999999997,-0.919932,-0.503311
2019-05-23T04:35:48.747690Z,0.374527,-1.099961,-0.002944
2019-05-23T04:35:48.787690Z,0.481059,-1.0393059999999998,-0.015054
2019-05-23T04:35:48.872690Z,0.296786,-0.346984,-0.713266
2019-05-23T04:35:48.874690Z,0.48514300000000005,0.133683,-0.8239790000000001
2019-05-23T04:35:48.909690Z,0.494655,0.168999,-0.826642
2019-05-23T04:35:48.946690Z,0.315895,0.572342,-0.48274300000000003
2019-05-23T04:35:48.990690Z,0.425892,0.332534,-0.192578
2019-05-23T04:35:49.027690Z,0.37001799999999996,0.37261500000000003,-0.213902
2019-05-23T04:35:49.067690Z,0.37552800000000003,0.305898,0.12908599999999998
2019-05-23T04:35:49.107690Z,0.339986,0.553033,0.6334850000000001
2019-05-23T04:35:49.147690Z,0.262824,0.44655600000000006,0.665622
2019-05-23T04:35:49.189690Z,0.702499,0.32168800000000003,0.20806999999999998
2019-05-23T04:35:49.226690Z,1.167498,-0.512883,0.674133
2019-05-23T04:35:49.266690Z,1.120279,-0.44312799999999997,0.6336689999999999
2019-05-23T04:35:49.307690Z,0.9471229999999999,-0.740566,0.532838
2019-05-23T04:35:49.348690Z,2.002344,-1.186488,2.45025
2019-05-23T04:35:49.390690Z,1.938057,-1.259244,2.451987
2019-05-23T04:35:49.427690Z,2.189867,-1.285334,0.699796
2019-05-23T04:35:49.468690Z,1.5334780000000001,-1.209327,-0.38373
2019-05-23T04:35:49.507690Z,1.389925,-1.224111,-0.355268
2019-05-23T04:35:49.547690Z,1.2770059999999999,-1.258362,0.47571499999999994
2019-05-23T04:35:49.587690Z,0.983353,-0.845232,-0.133979
2019-05-23T04:35:49.628690Z,0.9734370000000001,-0.8270620000000001,-0.134158
2019-05-23T04:35:49.668690Z,0.888439,-0.558834,-0.27029000000000003
2019-05-23T04:35:49.708690Z,0.41606099999999996,-0.643428,0.093409
2019-05-23T04:35:49.747690Z,0.43975600000000004,-0.64005,0.093218
2019-05-23T04:35:49.788690Z,0.116529,-0.382075,0.48917
2019-05-23T04:35:49.828690Z,-0.02131,-0.30084299999999997,0.42954799999999993
2019-05-23T04:35:49.868690Z,0.033326,-0.40946,0.476113
2019-05-23T04:35:49.907690Z,-0.30799699999999997,-0.22131900000000002,0.34130900000000003
2019-05-23T04:35:49.947690Z,-0.708615,-0.320666,0.681292
2019-05-23T04:35:49.989690Z,-0.749985,-0.437259,0.738416
2019-05-23T04:35:50.028690Z,-0.5694279999999999,-0.018849,0.45592299999999997
2019-05-23T04:35:50.068690Z,-0.522613,-1.182275,1.966516
2019-05-23T04:35:50.108690Z,-0.489692,-1.156266,1.928402
2019-05-23T04:35:50.149690Z,-0.894599,-1.372932,1.4931940000000001
2019-05-23T04:35:50.191690Z,-0.883692,-1.3489719999999998,0.22493000000000002
2019-05-23T04:35:50.228690Z,-0.845989,-1.393392,0.257157
2019-05-23T04:35:50.268690Z,-0.617164,-1.4466510000000001,0.073812
2019-05-23T04:35:50.308690Z,-0.476021,-1.279397,0.42244799999999993
2019-05-23T04:35:50.348690Z,-0.355854,-1.322711,0.448288
2019-05-23T04:35:50.391690Z,-0.189474,-1.091064,-0.11027100000000001
2019-05-23T04:35:50.430690Z,-0.575087,-1.146073,-0.000393
2019-05-23T04:35:50.469690Z,-0.5343899999999999,-1.141829,0.007949
2019-05-23T04:35:50.507690Z,-0.44346800000000003,-1.031901,0.342431
2019-05-23T04:35:50.549690Z,-0.549453,-0.7657189999999999,-0.026854000000000003
2019-05-23T04:35:50.589690Z,-0.591946,-0.757772,-0.023752000000000002
2019-05-23T04:35:50.628690Z,-0.41008599999999995,-0.36702399999999996,0.10953399999999999
2019-05-23T04:35:50.669690Z,-0.630425,-0.0791,-0.48121099999999994
2019-05-23T04:35:50.709690Z,-0.669847,-0.016133,-0.50678
2019-05-23T04:35:50.748690Z,-0.8499680000000001,0.18118,-0.035644999999999996
2019-05-23T04:35:50.789690Z,-0.723379,0.147171,-0.17343599999999998
2019-05-23T04:35:50.843690Z,-0.741429,0.33283,-0.265676
2019-05-23T04:35:50.868690Z,-0.7578020000000001,0.032882,0.793503
2019-05-23T04:35:50.909690Z,-0.49344099999999996,0.106452,1.1177780000000002
2019-05-23T04:35:50.949690Z,-0.389454,0.10758699999999999,1.097245
2019-05-23T04:35:50.992690Z,-0.074769,0.241916,0.06969299999999999
2019-05-23T04:35:51.029690Z,-0.296579,-0.24423899999999998,-0.26867199999999997
2019-05-23T04:35:51.068690Z,-0.332791,0.036588,-0.380853
2019-05-23T04:35:51.109690Z,-0.104153,-1.161558,0.510774
2019-05-23T04:35:51.167690Z,0.8327559999999999,-0.550817,0.43083599999999994
2019-05-23T04:35:51.203690Z,0.8292149999999999,-0.6473220000000001,0.465254
2019-05-23T04:35:51.228690Z,0.567082,-1.0445659999999999,0.234048
2019-05-23T04:35:51.268690Z,0.069143,-1.718134,-0.106271
2019-05-23T04:35:51.309690Z,0.07752300000000001,-1.719098,-0.091861
2019-05-23T04:35:51.348690Z,0.085133,-1.34093,0.44860500000000003
2019-05-23T04:35:51.390690Z,0.042009,-0.766338,-0.161623
2019-05-23T04:35:51.430690Z,0.035863,-0.8059430000000001,-0.13483499999999998
2019-05-23T04:35:51.503690Z,-0.164974,-0.6754680000000001,-0.340936
2019-05-23T04:35:51.530690Z,-0.250419,-0.318367,-0.550313
2019-05-23T04:35:51.548690Z,-0.26903499999999997,-0.276508,-0.557796
2019-05-23T04:35:51.590690Z,-0.278814,-0.215642,-0.265457
2019-05-23T04:35:51.629690Z,-0.034033999999999995,0.058188,0.33463000000000004
2019-05-23T04:35:51.669690Z,-0.028185,0.021337000000000002,0.34586
2019-05-23T04:35:51.711690Z,0.10424100000000001,0.577362,-0.168991
2019-05-23T04:35:51.749690Z,-0.13957999999999998,0.600661,0.23809
2019-05-23T04:35:51.788690Z,-0.15120999999999998,0.5906,0.23438699999999998
2019-05-23T04:35:51.830690Z,-0.46441099999999996,0.36590900000000004,0.626108
2019-05-23T04:35:51.870690Z,-0.375229,0.695304,0.5054609999999999
2019-05-23T04:35:51.910690Z,-0.379607,0.741704,0.470967
2019-05-23T04:35:51.949690Z,0.17924600000000002,0.516043,0.559221
2019-05-23T04:35:51.989690Z,0.42726899999999995,-0.512376,1.865104
2019-05-23T04:35:52.029690Z,0.39616,-0.5526770000000001,1.855932
2019-05-23T04:35:52.070690Z,0.024176,-1.846886,1.205649
2019-05-23T04:35:52.109690Z,-0.39670500000000003,-1.4849700000000001,-0.556601
2019-05-23T04:35:52.148690Z,-0.376325,-1.418859,-0.56542
2019-05-23T04:35:52.189690Z,-0.108674,-1.007147,-0.694349
2019-05-23T04:35:52.229690Z,0.028122,-0.960958,-0.125359
2019-05-23T04:35:52.269690Z,0.060213,-0.8771370000000001,-0.15113800000000002
2019-05-23T04:35:52.310690Z,0.154055,-0.5575899999999999,-0.21170999999999998
2019-05-23T04:35:52.351690Z,0.35485,-0.10781500000000001,-0.47578400000000004
2019-05-23T04:35:52.390690Z,0.413545,0.14619400000000002,-0.558276
2019-05-23T04:35:52.429690Z,0.37409499999999996,0.262223,-0.616478
2019-05-23T04:35:52.525690Z,0.165276,0.10066,0.611187
2019-05-23T04:35:52.526690Z,0.309325,0.068037,0.613629
2019-05-23T04:35:52.551690Z,0.123598,-0.37961999999999996,0.206946
2019-05-23T04:35:52.590690Z,0.393519,0.21785700000000002,1.2232530000000001
2019-05-23T04:35:52.629690Z,0.29144000000000003,-0.013463,1.287008
2019-05-23T04:35:52.670690Z,0.799851,-0.02419,0.591605
2019-05-23T04:35:52.709690Z,0.6208560000000001,-0.398565,0.672272
2019-05-23T04:35:52.750690Z,0.500537,-0.485412,0.70276
2019-05-23T04:35:52.790690Z,0.442982,-1.2217149999999999,1.2254049999999999
2019-05-23T04:35:52.829690Z,0.6263029999999999,-0.978932,0.644567
2019-05-23T04:35:52.886690Z,0.560198,-1.066074,0.685105
2019-05-23T04:35:52.909690Z,1.366794,-0.8960809999999999,0.24142199999999997
2019-05-23T04:35:52.951690Z,0.590613,-0.846982,-0.467088
2019-05-23T04:35:52.992690Z,0.5537479999999999,-0.862083,-0.444038
2019-05-23T04:35:53.031690Z,0.611855,-0.5362979999999999,-0.284513
2019-05-23T04:35:53.070690Z,0.337447,-0.24151199999999998,-1.073949
2019-05-23T04:35:53.110690Z,0.32645599999999997,-0.20648699999999998,-1.07045
2019-05-23T04:35:53.151690Z,0.10985199999999999,-0.250765,-0.298429
2019-05-23T04:35:53.193690Z,0.268031,-0.020686000000000003,0.47179099999999996
2019-05-23T04:35:53.230690Z,0.262685,-0.067303,0.486716
2019-05-23T04:35:53.269690Z,0.404995,-0.014488999999999998,0.688936
2019-05-23T04:35:53.310690Z,0.246961,0.044617000000000004,0.24892899999999998
2019-05-23T04:35:53.351690Z,0.279071,-0.017376,0.273597
2019-05-23T04:35:53.392690Z,-0.09576799999999999,-0.29399699999999995,0.258123
2019-05-23T04:35:53.432690Z,-0.962708,-0.182539,-0.32356399999999996
2019-05-23T04:35:53.470690Z,-1.073581,-0.11130899999999999,-0.345986
2019-05-23T04:35:53.510690Z,-0.563375,0.029022000000000003,1.2213040000000002
2019-05-23T04:35:53.550690Z,-0.623003,-1.056471,1.825997
2019-05-23T04:35:53.594690Z,-0.567466,-0.994633,1.770909
2019-05-23T04:35:53.632690Z,-0.611694,-1.483156,0.8560409999999999
2019-05-23T04:35:53.671690Z,-0.8234319999999999,-1.169805,-0.681459
2019-05-23T04:35:53.711690Z,-0.8354889999999999,-1.1368120000000002,-0.6751729999999999
2019-05-23T04:35:53.751690Z,-0.9383459999999999,-0.9488260000000001,-0.6337649999999999
2019-05-23T04:35:53.793690Z,-1.074518,-0.864665,-0.5505909999999999
2019-05-23T04:35:53.830690Z,-0.913798,-0.5654,-0.666288
2019-05-23T04:35:53.872690Z,-1.036411,-0.697879,-0.015533000000000002
2019-05-23T04:35:53.950690Z,-1.128103,-0.309143,0.185178
2019-05-23T04:35:53.959690Z,-1.194826,-0.45676700000000003,0.245631
2019-05-23T04:35:53.992690Z,-1.479095,-0.19833900000000002,-0.116407
2019-05-23T04:35:54.030690Z,-0.649814,-0.054463,0.548419
2019-05-23T04:35:54.070690Z,-0.653163,-0.109099,0.5639460000000001
2019-05-23T04:35:54.111690Z,-0.74637,-0.122919,0.7700060000000001
2019-05-23T04:35:54.152690Z,-0.354564,-0.046446,0.780287
2019-05-23T04:35:54.194690Z,-0.254581,-0.091585,0.7848189999999999
2019-05-23T04:35:54.231690Z,-0.295015,-0.012546999999999999,-1.121713
2019-05-23T04:35:54.272690Z,-0.384262,-0.7255520000000001,1.7653830000000001
2019-05-23T04:35:54.326690Z,-0.564347,-0.849936,1.813352
2019-05-23T04:35:54.351690Z,0.35804899999999995,-1.459922,1.199876
2019-05-23T04:35:54.392690Z,-0.020387,-0.583142,-0.5018819999999999
2019-05-23T04:35:54.432690Z,-0.017133000000000002,-0.565736,-0.497087
2019-05-23T04:35:54.471690Z,-0.166738,-1.010923,-0.093074
2019-05-23T04:35:54.511690Z,-0.191972,-1.043387,-0.5817220000000001
2019-05-23T04:35:54.551690Z,-0.178766,-1.028669,-0.5715560000000001
2019-05-23T04:35:54.592690Z,0.730956,-0.23220500000000002,-0.257846
2019-05-23T04:35:54.631690Z,0.12574000000000002,0.100207,-0.449929
2019-05-23T04:35:54.671690Z,0.058574,0.015527000000000001,-0.403184
2019-05-23T04:35:54.710690Z,0.5468850000000001,0.520057,0.269372
2019-05-23T04:35:54.752690Z,0.07773200000000001,0.582497,-0.50041
2019-05-23T04:35:54.794690Z,0.048184,0.699151,-0.5481090000000001
2019-05-23T04:35:54.831690Z,-0.505638,0.671389,-0.390236
2019-05-23T04:35:54.871690Z,0.129331,0.876216,0.394843
2019-05-23T04:35:54.913690Z,0.148169,0.852666,0.390993
2019-05-23T04:35:54.952690Z,0.24402800000000002,0.638534,1.519419
2019-05-23T04:35:54.995690Z,0.44845,0.344776,0.7464430000000001
2019-05-23T04:35:55.032690Z,0.530473,0.290313,0.7549859999999999
2019-05-23T04:35:55.071690Z,0.43383900000000003,-0.550662,1.026376
2019-05-23T04:35:55.112690Z,0.43303,-1.483216,0.006809
