Datetime,accx,accy,accz
2019-04-29T18:46:47.777635Z,0.410631,0.046093,8.1e-05
2019-04-29T18:46:47.977635Z,0.52276,0.305299,-0.143734
2019-04-29T18:46:48.185635Z,0.111577,0.16088,-0.124974
2019-04-29T18:46:48.379635Z,0.037634,0.5603090000000001,0.547661
2019-04-29T18:46:48.579635Z,0.098603,-1.509671,0.374109
2019-04-29T18:46:48.777635Z,0.052936000000000004,-1.035179,-0.6245029999999999
2019-04-29T18:46:48.978635Z,-0.22096300000000002,0.040658,-0.400729
2019-04-29T18:46:49.183635Z,-0.382146,0.5972649999999999,-0.137712
2019-04-29T18:46:49.381635Z,-0.557081,0.5374479999999999,0.119997
2019-04-29T18:46:49.586635Z,-0.502386,-1.057449,-0.294223
2019-04-29T18:46:49.779635Z,0.499542,-0.21556,-0.346961
2019-04-29T18:46:49.978635Z,0.478687,0.29493,0.437301
2019-04-29T18:46:50.177635Z,0.129448,0.319612,0.754955
2019-04-29T18:46:50.380635Z,-0.337282,-1.184232,0.267973
2019-04-29T18:46:50.580635Z,0.289189,-0.887407,-0.590642
2019-04-29T18:46:50.781635Z,0.608923,-0.411976,-0.051551
2019-04-29T18:46:50.993635Z,0.170552,0.68318,-0.119953
2019-04-29T18:46:51.180635Z,-0.616142,0.441196,0.502185
2019-04-29T18:46:51.380635Z,0.780613,-0.9429690000000001,-0.044105
2019-04-29T18:46:51.579635Z,1.378983,-1.0843200000000002,0.13283499999999998
2019-04-29T18:46:51.779635Z,0.373357,-0.9729620000000001,0.444801
2019-04-29T18:46:51.981635Z,0.534216,-0.721743,1.41019
2019-04-29T18:46:52.191635Z,-0.644554,-2.250784,0.306867
2019-04-29T18:46:52.384635Z,-0.296844,-1.3427639999999998,0.0017649999999999999
2019-04-29T18:46:52.581635Z,-0.36002,-0.7247319999999999,0.08230900000000001
2019-04-29T18:46:52.788635Z,-0.47075900000000004,-0.09966900000000001,0.12222100000000001
2019-04-29T18:46:52.982635Z,-0.8306879999999999,-0.84041,0.517782
2019-04-29T18:46:53.197635Z,-1.144427,-0.888906,-0.316258
2019-04-29T18:46:53.380635Z,-1.045667,-0.351907,0.000566
2019-04-29T18:46:53.582635Z,-0.44696400000000003,0.231832,-0.10668299999999999
2019-04-29T18:46:53.781635Z,-0.17465799999999998,0.159103,0.32858899999999996
2019-04-29T18:46:53.990635Z,0.160827,-1.045413,1.1005479999999999
2019-04-29T18:46:54.183635Z,-0.12053499999999999,-0.529358,-1.159725
2019-04-29T18:46:54.382635Z,0.41905200000000004,0.527157,-0.21657600000000002
2019-04-29T18:46:54.580635Z,0.22485300000000003,0.39561999999999997,0.7286050000000001
2019-04-29T18:46:54.783635Z,0.20582199999999998,-0.5004149999999999,0.364615
2019-04-29T18:46:54.982635Z,0.035253,-0.596213,-0.492904
2019-04-29T18:46:55.181635Z,-1.304275,-0.011143,-0.286644
2019-04-29T18:46:55.409635Z,-0.484513,-0.422417,0.763375
2019-04-29T18:46:55.583635Z,0.37461500000000003,-1.5375290000000001,0.578025
2019-04-29T18:46:55.783635Z,0.9375,-0.4591,-0.320504
2019-04-29T18:46:55.982635Z,1.266284,0.529504,-0.07438
2019-04-29T18:46:56.182635Z,0.555067,0.355567,0.801147
2019-04-29T18:46:56.383635Z,0.7509979999999999,-0.802554,0.699289
2019-04-29T18:46:56.587635Z,1.582249,-0.657605,-0.454421
2019-04-29T18:46:56.782635Z,1.094066,0.504938,0.012683
2019-04-29T18:46:56.983635Z,0.990447,0.28676999999999997,0.902285
2019-04-29T18:46:57.184635Z,1.2468110000000001,-1.371312,0.565768
2019-04-29T18:46:57.386635Z,1.483257,-0.644011,-0.24727399999999997
2019-04-29T18:46:57.583635Z,0.929882,-0.303516,0.267256
2019-04-29T18:46:57.785635Z,-0.23483099999999998,-0.555905,0.717929
2019-04-29T18:46:57.984635Z,0.62275,-1.426027,0.380927
2019-04-29T18:46:58.185635Z,0.119755,-0.538131,-0.19793
2019-04-29T18:46:58.384635Z,0.11552899999999999,0.179721,0.539276
2019-04-29T18:46:58.586635Z,-0.104429,-0.073728,0.73449
2019-04-29T18:46:58.785635Z,0.615402,-1.569595,0.427176
2019-04-29T18:46:58.986635Z,0.688366,-0.915373,-0.187802
2019-04-29T18:46:59.194635Z,0.309218,-0.023768,-0.366149
2019-04-29T18:46:59.386635Z,0.322405,-0.10383699999999998,0.8564360000000001
2019-04-29T18:46:59.586635Z,0.683161,-1.4438030000000002,0.393588
2019-04-29T18:46:59.786635Z,0.782162,-1.057279,0.260819
2019-04-29T18:46:59.986635Z,0.351107,-0.48658199999999996,0.418653
2019-04-29T18:47:00.185635Z,-0.211173,-0.583917,0.7903100000000001
2019-04-29T18:47:00.388635Z,-0.27376300000000003,-1.4181840000000001,0.276326
2019-04-29T18:47:00.585635Z,-0.254571,-0.405296,-0.673511
2019-04-29T18:47:00.786635Z,-1.236773,0.144319,0.417871
2019-04-29T18:47:00.987635Z,-1.174967,-0.41162,0.46716599999999997
2019-04-29T18:47:01.194635Z,-1.3675059999999999,-1.226926,0.082441
2019-04-29T18:47:01.387635Z,-0.987931,-0.773096,-0.132116
2019-04-29T18:47:01.588635Z,0.394406,0.391363,0.42276800000000003
2019-04-29T18:47:01.787635Z,0.341001,-0.034999,1.319763
2019-04-29T18:47:01.987635Z,0.170524,-1.242508,-0.249261
2019-04-29T18:47:02.202635Z,0.606169,-0.082478,-0.8739379999999999
2019-04-29T18:47:02.388635Z,0.331401,0.558964,0.625181
2019-04-29T18:47:02.588635Z,0.510886,-0.153204,0.712359
2019-04-29T18:47:02.788635Z,0.516359,-0.575205,-0.45544799999999996
2019-04-29T18:47:02.988635Z,0.931818,0.128824,-0.49639399999999995
2019-04-29T18:47:03.198635Z,0.57793,0.657954,0.571179
2019-04-29T18:47:03.389635Z,-0.48119300000000004,-0.388667,0.765089
2019-04-29T18:47:03.588635Z,0.328594,-0.8793040000000001,-0.535722
2019-04-29T18:47:03.789635Z,0.593353,-0.014430000000000002,-0.160433
2019-04-29T18:47:04.027635Z,0.681956,0.560742,0.179297
2019-04-29T18:47:04.188635Z,1.282269,-1.1931770000000002,0.8293290000000001
2019-04-29T18:47:04.415635Z,1.337848,-1.480861,0.129601
2019-04-29T18:47:04.591635Z,1.007185,-0.7532,0.45725299999999997
2019-04-29T18:47:04.791635Z,0.363271,0.122637,0.507054
2019-04-29T18:47:04.992635Z,-0.46951499999999996,-1.085728,0.539435
2019-04-29T18:47:05.189635Z,-0.39464899999999997,-1.001032,-0.501955
2019-04-29T18:47:05.409635Z,-0.12711,-0.082311,-0.08691499999999999
2019-04-29T18:47:05.590635Z,-0.656104,0.329354,0.5374770000000001
2019-04-29T18:47:05.794635Z,0.9739209999999999,-1.245763,0.5574060000000001
2019-04-29T18:47:05.991635Z,-0.8449770000000001,-1.572645,0.41113900000000003
2019-04-29T18:47:06.192635Z,-0.605349,-0.741742,-0.337282
2019-04-29T18:47:06.392635Z,0.009939,0.136799,0.633074
2019-04-29T18:47:06.591635Z,0.033583999999999996,-1.024908,0.8287559999999999
2019-04-29T18:47:06.790635Z,-0.011796,-1.140142,-0.46266199999999996
2019-04-29T18:47:06.990635Z,-0.086315,0.127997,-0.316333
2019-04-29T18:47:07.191635Z,0.007983,0.047363,0.828166
2019-04-29T18:47:07.392635Z,0.9107299999999999,-1.068965,0.44938100000000003
2019-04-29T18:47:07.593635Z,1.032271,-1.069792,0.22184299999999998
2019-04-29T18:47:07.793635Z,0.710237,-0.316164,-0.19176700000000002
2019-04-29T18:47:07.992635Z,0.362748,0.630785,-0.197062
2019-04-29T18:47:08.193635Z,-0.7474390000000001,0.104082,1.045823
2019-04-29T18:47:08.393635Z,-0.9392870000000001,-1.3218159999999999,0.149348
2019-04-29T18:47:08.592635Z,-1.4934100000000001,-1.029527,-0.113102
2019-04-29T18:47:08.818635Z,-0.589952,-0.16133499999999998,0.331681
2019-04-29T18:47:08.992635Z,-0.44367,0.198967,0.613804
2019-04-29T18:47:09.193635Z,0.017185,-0.955557,0.18265399999999998
2019-04-29T18:47:09.393635Z,0.19561900000000002,-0.476645,-0.335642
2019-04-29T18:47:09.599635Z,-0.500788,0.771213,0.011770000000000001
2019-04-29T18:47:09.796635Z,-0.105701,-0.087521,1.067917
2019-04-29T18:47:09.993635Z,0.562759,-1.265439,0.064696
2019-04-29T18:47:10.193635Z,0.11790899999999999,-0.12278199999999999,-0.735152
2019-04-29T18:47:10.393635Z,0.203702,0.492962,0.385167
2019-04-29T18:47:10.597635Z,0.721882,0.063307,0.352132
2019-04-29T18:47:10.794635Z,0.622622,-0.603662,-0.29370999999999997
2019-04-29T18:47:10.994635Z,-0.262869,0.20731599999999997,-0.59221
2019-04-29T18:47:11.196635Z,-0.364788,0.384982,0.543495
2019-04-29T18:47:11.395635Z,0.197921,-0.783729,0.287371
2019-04-29T18:47:11.598635Z,0.020488,-0.21637699999999999,-0.623695
2019-04-29T18:47:11.795635Z,-0.147951,0.175171,0.432327
2019-04-29T18:47:11.996635Z,-0.07514900000000001,0.014437,0.728669
2019-04-29T18:47:12.196635Z,-0.013541,-0.946442,-0.128549
2019-04-29T18:47:12.405635Z,0.259398,0.21485300000000002,-0.98445
2019-04-29T18:47:12.600635Z,-0.25459299999999996,0.541337,0.231341
2019-04-29T18:47:12.798635Z,-0.23050500000000002,-0.010242,0.814669
2019-04-29T18:47:12.995635Z,-0.37147199999999997,-0.690392,-0.531849
2019-04-29T18:47:13.196635Z,-0.33660100000000004,0.025131999999999998,-0.27314099999999997
2019-04-29T18:47:13.397635Z,0.294568,-0.039776,0.506456
2019-04-29T18:47:13.597635Z,1.192186,-0.519614,0.519251
2019-04-29T18:47:13.802635Z,0.802721,-0.9247,0.034761
2019-04-29T18:47:13.997635Z,0.470603,-0.238048,-0.184475
2019-04-29T18:47:14.196635Z,1.06971,-0.8845290000000001,1.205429
2019-04-29T18:47:14.396635Z,0.6206470000000001,-0.37551,0.40594
2019-04-29T18:47:14.597635Z,0.633609,-0.466553,-0.88229
2019-04-29T18:47:14.797635Z,0.11390499999999999,-0.35885,-0.08590700000000001
2019-04-29T18:47:15.001635Z,-0.43204,-0.9706459999999999,1.573016
2019-04-29T18:47:15.198635Z,-0.020390000000000002,-1.4374850000000001,-0.16752999999999998
2019-04-29T18:47:15.400635Z,-0.143762,-0.476127,-0.5301359999999999
2019-04-29T18:47:15.599635Z,-0.704129,0.523227,0.458549
2019-04-29T18:47:15.798635Z,-0.50515,-1.004716,1.214867
2019-04-29T18:47:15.997635Z,0.004038,-1.815691,0.021234
2019-04-29T18:47:16.197635Z,0.193672,-1.01268,0.064814
2019-04-29T18:47:16.398635Z,-0.842324,0.11195699999999999,-0.118379
2019-04-29T18:47:16.600635Z,-0.06489,-0.304682,0.9061600000000001
2019-04-29T18:47:16.799635Z,0.16664600000000002,-1.102438,0.139651
2019-04-29T18:47:17.001635Z,-0.027721,-0.165456,-0.450589
2019-04-29T18:47:17.203635Z,-0.056435,0.213668,0.45347200000000004
2019-04-29T18:47:17.402635Z,0.226177,-0.8274819999999999,1.163883
2019-04-29T18:47:17.599635Z,0.305978,-1.485303,-0.268876
2019-04-29T18:47:17.810635Z,-0.06097999999999999,-0.336469,-0.466681
2019-04-29T18:47:18.000635Z,-0.375832,0.288979,0.545404
2019-04-29T18:47:18.200635Z,0.278273,-1.141572,0.7772439999999999
2019-04-29T18:47:18.399635Z,-0.6881390000000001,-0.6219399999999999,-0.428428
2019-04-29T18:47:18.600635Z,-1.337791,0.026027999999999996,-0.042289
2019-04-29T18:47:18.802635Z,-1.419889,-0.9723129999999999,1.090753
2019-04-29T18:47:19.004635Z,-0.005584,-0.9987389999999999,0.134516
2019-04-29T18:47:19.200635Z,-0.186202,-0.7542,0.13773
2019-04-29T18:47:19.404635Z,-0.178617,0.048944,1.185872
2019-04-29T18:47:19.602635Z,0.732691,-1.243608,0.226602
2019-04-29T18:47:19.811635Z,-0.335086,-0.706059,-0.573045
2019-04-29T18:47:20.001635Z,-1.105246,-1.9017169999999999,1.525248
2019-04-29T18:47:20.202635Z,0.7444850000000001,-3.546079,2.167336
2019-04-29T18:47:20.401635Z,-0.15561,-3.822882,2.974951
2019-04-29T18:47:20.606635Z,0.33533,-2.338014,-1.247951
2019-04-29T18:47:20.803635Z,1.628315,0.26821999999999996,0.8558389999999999
2019-04-29T18:47:21.003635Z,1.747397,-0.932263,2.026359
2019-04-29T18:47:21.203635Z,0.8730610000000001,-1.601799,0.634024
2019-04-29T18:47:21.402635Z,1.1649200000000002,-0.278859,0.173177
2019-04-29T18:47:21.608635Z,1.028724,-0.07802100000000001,0.715626
2019-04-29T18:47:21.807635Z,0.412771,-1.3714950000000001,0.9019950000000001
2019-04-29T18:47:22.002635Z,0.741297,-1.59008,0.490026
2019-04-29T18:47:22.204635Z,1.109459,-1.068422,0.326263
2019-04-29T18:47:22.404635Z,1.292229,-0.547635,0.428762
2019-04-29T18:47:22.604635Z,0.359086,-0.12903499999999998,-0.371079
2019-04-29T18:47:22.807635Z,-1.172786,-0.368114,0.527591
2019-04-29T18:47:23.004635Z,-0.406805,-0.968909,0.79619
2019-04-29T18:47:23.205635Z,-0.877606,-0.15653599999999998,-0.376616
2019-04-29T18:47:23.407635Z,-0.5587489999999999,-0.129407,0.096074
2019-04-29T18:47:23.607635Z,0.182096,-0.485012,0.7858609999999999
2019-04-29T18:47:23.809635Z,0.44559099999999996,-0.5996319999999999,0.429428
2019-04-29T18:47:24.005635Z,0.418677,-0.46288199999999996,0.363113
2019-04-29T18:47:24.204635Z,-0.500634,-0.45805500000000005,0.24822800000000003
2019-04-29T18:47:24.405635Z,-0.777123,-0.42753599999999997,0.638188
2019-04-29T18:47:24.605635Z,1.0003950000000001,-0.298217,0.077314
2019-04-29T18:47:24.805635Z,1.3931069999999999,-0.875417,0.199501
2019-04-29T18:47:25.005635Z,0.02562,-0.217308,-0.16429000000000002
2019-04-29T18:47:25.204635Z,0.161423,-0.280619,0.469224
2019-04-29T18:47:25.407635Z,0.509551,-0.48203900000000005,0.31557399999999997
2019-04-29T18:47:25.607635Z,0.934652,-0.34189899999999995,0.343145
2019-04-29T18:47:25.806635Z,0.353566,-0.208655,-0.04244
2019-04-29T18:47:26.006635Z,0.386705,-0.093817,0.059019
2019-04-29T18:47:26.207635Z,0.48984300000000003,-0.12533699999999998,-0.04911
2019-04-29T18:47:26.412635Z,0.5420550000000001,0.039195,-0.017769999999999998
2019-04-29T18:47:26.608635Z,0.46202299999999996,-0.062107,0.119092
2019-04-29T18:47:26.808635Z,-0.028811,-0.125834,-0.076076
2019-04-29T18:47:27.008635Z,0.5959810000000001,0.009268,0.178612
2019-04-29T18:47:27.208635Z,0.536457,-0.11125299999999999,0.020358
2019-04-29T18:47:27.407635Z,0.161649,-0.15109,0.066012
2019-04-29T18:47:27.609635Z,0.404097,0.009269,-0.0032530000000000002
2019-04-29T18:47:27.809635Z,0.131297,-0.106966,0.055966999999999996
2019-04-29T18:47:28.009635Z,0.116344,0.017419,0.032477
2019-04-29T18:47:28.207635Z,0.25764899999999996,0.025425,-0.154355
2019-04-29T18:47:28.407635Z,0.162971,0.09346,0.013575
2019-04-29T18:47:28.609635Z,0.316253,-0.076389,0.07986499999999999
2019-04-29T18:47:28.809635Z,0.829802,0.087156,0.008579999999999999
2019-04-29T18:47:29.008635Z,0.689088,0.013655,-0.039156
2019-04-29T18:47:29.208635Z,0.104289,0.075801,-0.502913
2019-04-29T18:47:29.408635Z,-0.722776,0.61151,-0.136125
2019-04-29T18:47:29.608635Z,0.28084699999999996,0.6152850000000001,-0.06551
2019-04-29T18:47:29.808635Z,-0.072339,0.210024,0.49978
2019-04-29T18:47:30.009635Z,0.667625,-0.967475,0.17949500000000002
2019-04-29T18:47:30.210635Z,0.12548800000000002,-0.480677,-0.555983
2019-04-29T18:47:30.410635Z,-0.285914,0.33665100000000003,0.215716
2019-04-29T18:47:30.610635Z,0.016366,0.771388,0.31392800000000004
2019-04-29T18:47:30.811635Z,0.239339,-1.10814,0.566399
2019-04-29T18:47:31.010635Z,-0.00795,-1.284122,-0.5854779999999999
2019-04-29T18:47:31.209635Z,-0.23651999999999998,0.106327,0.10255399999999999
2019-04-29T18:47:31.411635Z,-0.27731300000000003,0.134025,1.1256629999999999
2019-04-29T18:47:31.613635Z,0.200878,-0.8890540000000001,-0.15015499999999998
2019-04-29T18:47:31.811635Z,-0.046756,-0.401467,-0.23638499999999998
2019-04-29T18:47:32.012635Z,-0.416225,0.15475999999999998,0.061717999999999995
2019-04-29T18:47:32.211635Z,-1.118274,-0.6223890000000001,0.733987
2019-04-29T18:47:32.422635Z,-1.2246270000000001,-0.782305,-0.255494
2019-04-29T18:47:32.611635Z,-1.107286,-0.760622,0.536086
2019-04-29T18:47:32.810635Z,-0.261712,-0.133785,0.065079
2019-04-29T18:47:33.012635Z,0.355138,-0.46591899999999997,0.428493
2019-04-29T18:47:33.213635Z,0.484309,-0.967499,-0.16404000000000002
2019-04-29T18:47:33.416635Z,0.864137,-0.004508,-0.474534
2019-04-29T18:47:33.613635Z,0.31407199999999996,0.257496,0.9300799999999999
2019-04-29T18:47:33.812635Z,-0.153015,-0.527777,0.988099
2019-04-29T18:47:34.053635Z,0.183684,-0.770307,-0.621988
2019-04-29T18:47:34.211635Z,-0.873042,-0.5776319999999999,-0.036513
2019-04-29T18:47:34.412635Z,-0.193878,-0.22215900000000002,0.192992
2019-04-29T18:47:34.612635Z,0.07526000000000001,-0.29017,0.702264
2019-04-29T18:47:34.813635Z,0.571808,-1.028508,0.20875
2019-04-29T18:47:35.014635Z,1.062674,-0.338575,-0.28201
2019-04-29T18:47:35.214635Z,1.178639,0.138755,0.08154600000000001
2019-04-29T18:47:35.414635Z,1.100532,0.082725,0.706962
2019-04-29T18:47:35.612635Z,0.7580560000000001,-1.034006,0.32544
2019-04-29T18:47:35.815635Z,0.8364,-0.5558930000000001,-0.47975
2019-04-29T18:47:36.014635Z,0.305799,0.25610700000000003,0.033658999999999994
2019-04-29T18:47:36.214635Z,0.8314860000000001,0.106464,1.047026
2019-04-29T18:47:36.414635Z,1.423932,-0.633682,0.277557
2019-04-29T18:47:36.618635Z,1.5798,-0.23679,-0.485015
2019-04-29T18:47:36.814635Z,1.558561,0.24177600000000002,0.686804
2019-04-29T18:47:37.014635Z,1.56542,-1.215731,0.589086
2019-04-29T18:47:37.215635Z,1.193666,-0.978642,-0.025751999999999997
2019-04-29T18:47:37.414635Z,0.147626,-0.074132,0.200076
2019-04-29T18:47:37.615635Z,0.350144,-0.310037,1.052514
2019-04-29T18:47:37.819635Z,0.48118900000000003,-0.560426,-0.158496
2019-04-29T18:47:38.016635Z,0.491384,-0.008745000000000001,-1.2277049999999998
2019-04-29T18:47:38.215635Z,-0.23112199999999997,0.181516,0.569021
2019-04-29T18:47:38.416635Z,-0.49306400000000006,-0.381721,0.650131
2019-04-29T18:47:38.615635Z,-0.172308,-0.667144,-0.092512
2019-04-29T18:47:38.816635Z,-0.133672,-0.26154499999999997,0.143503
2019-04-29T18:47:39.015635Z,0.107839,-0.178254,1.163171
2019-04-29T18:47:39.219635Z,0.475254,-0.719657,-0.316454
2019-04-29T18:47:39.452635Z,0.227429,-0.174718,-0.48329700000000003
2019-04-29T18:47:39.617635Z,-1.8978240000000002,0.090443,0.54357
2019-04-29T18:47:39.816635Z,-1.920998,-2.649784,1.513781
2019-04-29T18:47:40.017635Z,-1.096941,-3.168656,0.699859
2019-04-29T18:47:40.217635Z,-0.6263569999999999,-2.400916,0.550104
2019-04-29T18:47:40.418635Z,0.260089,-2.321888,1.5617020000000001
2019-04-29T18:47:40.618635Z,1.356011,-1.460045,0.8695780000000001
2019-04-29T18:47:40.817635Z,2.271293,-0.971083,0.552283
2019-04-29T18:47:41.018635Z,1.87653,-0.20466199999999998,-0.534237
2019-04-29T18:47:41.218635Z,0.609283,0.775828,0.344409
2019-04-29T18:47:41.443635Z,0.256711,-0.24246900000000002,1.144358
2019-04-29T18:47:41.619635Z,0.8691840000000001,-1.387749,0.331257
2019-04-29T18:47:41.818635Z,1.0385870000000001,-0.980074,-0.9311590000000001
2019-04-29T18:47:42.018635Z,0.48918900000000004,0.30833299999999997,0.122923
2019-04-29T18:47:42.222635Z,-0.160697,-0.420354,1.730015
2019-04-29T18:47:42.420635Z,0.45323,-1.557466,-0.37571
2019-04-29T18:47:42.618635Z,0.828941,-0.333559,-0.8272149999999999
2019-04-29T18:47:42.818635Z,0.842569,0.333339,0.790636
2019-04-29T18:47:43.018635Z,1.0723200000000002,-1.384309,1.009945
2019-04-29T18:47:43.226635Z,1.043583,-0.92106,-0.9140209999999999
2019-04-29T18:47:43.420635Z,0.146181,0.240067,0.248322
2019-04-29T18:47:43.620635Z,-0.14016199999999998,0.756568,0.48786199999999996
2019-04-29T18:47:43.821635Z,1.309338,-1.1149719999999999,0.699187
2019-04-29T18:47:44.021635Z,0.860324,-0.655944,-1.12752
2019-04-29T18:47:44.227635Z,0.162847,0.254377,-0.052360000000000004
2019-04-29T18:47:44.420635Z,-0.096715,0.203222,0.94834
2019-04-29T18:47:44.621635Z,-0.042199,-0.849783,0.11098800000000002
2019-04-29T18:47:44.820635Z,0.195939,-0.233738,-0.767476
2019-04-29T18:47:45.021635Z,0.327,0.246548,0.807362
2019-04-29T18:47:45.221635Z,0.8706649999999999,-0.703094,0.451568
2019-04-29T18:47:45.432635Z,0.678723,-0.46047899999999997,-0.8709790000000001
2019-04-29T18:47:45.622635Z,-0.003242,0.253815,0.568144
2019-04-29T18:47:45.822635Z,-0.102259,-0.585454,1.317496
2019-04-29T18:47:46.021635Z,0.5807329999999999,-1.427165,-0.73857
2019-04-29T18:47:46.222635Z,0.223592,0.064289,-0.229479
2019-04-29T18:47:46.422635Z,-0.30733,0.44681899999999997,0.335268
2019-04-29T18:47:46.622635Z,-0.2227,-0.6127319999999999,0.30501999999999996
2019-04-29T18:47:46.824635Z,0.426171,-0.09879099999999999,-1.018262
2019-04-29T18:47:47.022635Z,0.14121,0.760763,0.41662200000000005
2019-04-29T18:47:47.223635Z,0.009511,-0.619467,0.8990799999999999
2019-04-29T18:47:47.422635Z,0.279117,-1.3084120000000001,-0.23437399999999997
2019-04-29T18:47:47.623635Z,-0.628417,0.425551,-0.09212999999999999
2019-04-29T18:47:47.823635Z,0.644568,0.635486,0.23754499999999998
2019-04-29T18:47:48.028635Z,0.184756,-0.824517,0.153996
2019-04-29T18:47:48.223635Z,0.306583,-0.56514,-0.42900200000000005
2019-04-29T18:47:48.423635Z,0.22027,0.263612,-0.087085
2019-04-29T18:47:48.624635Z,-0.51143,0.23608200000000001,1.211178
2019-04-29T18:47:48.823635Z,-0.322658,-0.836988,-0.601705
2019-04-29T18:47:49.024635Z,-0.704928,-0.48102399999999995,-0.076638
2019-04-29T18:47:49.226635Z,-1.003787,-0.371098,0.45901499999999995
2019-04-29T18:47:49.424635Z,-0.790898,-1.2041520000000001,0.426308
2019-04-29T18:47:49.625635Z,0.37485599999999997,-1.192282,-0.296065
2019-04-29T18:47:49.826635Z,1.2845870000000001,-0.076828,0.28257600000000005
2019-04-29T18:47:50.026635Z,1.15276,0.7871100000000001,0.402926
2019-04-29T18:47:50.225635Z,0.728142,-0.358677,0.725004
2019-04-29T18:47:50.425635Z,0.737993,-0.8429049999999999,-0.5204989999999999
2019-04-29T18:47:50.671635Z,0.571771,0.120572,-0.468876
2019-04-29T18:47:50.825635Z,-0.059641,0.382758,0.421892
2019-04-29T18:47:51.035635Z,1.104954,-0.565367,0.4862
2019-04-29T18:47:51.226635Z,1.0706719999999998,-0.5200819999999999,-0.243673
2019-04-29T18:47:51.426635Z,1.143226,0.12143399999999999,0.015313
2019-04-29T18:47:51.626635Z,0.651525,-0.07245,0.649259
2019-04-29T18:47:51.827635Z,0.508263,-0.823485,-0.441341
2019-04-29T18:47:52.026635Z,-0.043866,-0.06431100000000001,-0.272471
2019-04-29T18:47:52.228635Z,0.33664099999999997,0.264995,0.7124060000000001
2019-04-29T18:47:52.426635Z,0.71904,-0.179637,0.033607
2019-04-29T18:47:52.626635Z,0.605075,-0.615209,-0.012495000000000001
2019-04-29T18:47:52.827635Z,0.750632,0.44676000000000005,-0.546838
2019-04-29T18:47:53.030635Z,0.296444,0.32929,0.5499069999999999
2019-04-29T18:47:53.227635Z,0.446168,-1.004249,0.451615
2019-04-29T18:47:53.426635Z,0.34979299999999997,-0.38641,-0.804034
2019-04-29T18:47:53.628635Z,0.143268,0.70309,0.25745500000000004
2019-04-29T18:47:53.829635Z,0.08304,0.045604,1.201131
2019-04-29T18:47:54.029635Z,0.8876950000000001,-0.921135,-0.486289
2019-04-29T18:47:54.228635Z,0.266383,-0.215986,-0.330289
2019-04-29T18:47:54.428635Z,0.426893,0.25461,0.289591
2019-04-29T18:47:54.637635Z,-0.032514999999999995,-0.264755,-0.0020570000000000002
2019-04-29T18:47:54.831635Z,0.047057999999999996,-0.347403,0.052663999999999996
2019-04-29T18:47:55.028635Z,-0.14826,0.33628800000000003,-0.574661
2019-04-29T18:47:55.229635Z,0.12718,0.453354,0.633078
2019-04-29T18:47:55.428635Z,0.181919,-0.411807,0.283965
2019-04-29T18:47:55.630635Z,0.466145,-0.45396000000000003,-0.360167
2019-04-29T18:47:55.831635Z,0.5128520000000001,0.46480600000000005,-0.614017
2019-04-29T18:47:56.030635Z,0.20581100000000002,0.238265,0.655489
2019-04-29T18:47:56.231635Z,-0.303334,-0.47174499999999997,0.410498
2019-04-29T18:47:56.430635Z,-0.206211,-0.481538,-0.26422399999999996
2019-04-29T18:47:56.630635Z,-0.138255,0.210963,-0.159138
2019-04-29T18:47:56.830635Z,0.168303,0.254879,0.254871
2019-04-29T18:47:57.030635Z,0.044385,-0.382132,0.040777999999999995
2019-04-29T18:47:57.230635Z,-0.37708,-0.235634,-0.814742
2019-04-29T18:47:57.430635Z,-1.216958,0.424142,0.346472
2019-04-29T18:47:57.661635Z,-0.721684,-0.91956,0.8888940000000001
2019-04-29T18:47:57.830635Z,0.139451,-1.0920530000000002,-0.009737
2019-04-29T18:47:58.031635Z,0.727406,-0.04534,0.015087999999999999
2019-04-29T18:47:58.232635Z,0.8214469999999999,0.2774,0.436366
2019-04-29T18:47:58.431635Z,0.993764,-0.113849,-0.00183
2019-04-29T18:47:58.631635Z,0.43759799999999993,-0.609794,-0.018721
2019-04-29T18:47:58.833635Z,1.103038,0.033123,-0.30336
2019-04-29T18:47:59.032635Z,0.618908,0.63827,0.053002
2019-04-29T18:47:59.234635Z,0.259317,-0.350066,0.594228
2019-04-29T18:47:59.432635Z,0.541453,-0.843781,-0.273125
2019-04-29T18:47:59.632635Z,0.815056,0.16654000000000002,-0.102501
2019-04-29T18:47:59.832635Z,0.24834499999999998,0.6958850000000001,0.471667
2019-04-29T18:48:00.033635Z,0.532284,-0.726865,0.467499
2019-04-29T18:48:00.232635Z,1.008456,-0.391059,-1.07292
2019-04-29T18:48:00.433635Z,-0.241522,0.8337629999999999,0.22892300000000002
2019-04-29T18:48:00.633635Z,0.098466,-0.166703,0.98359
2019-04-29T18:48:00.835635Z,0.364332,-0.57172,-0.7656970000000001
2019-04-29T18:48:01.033635Z,0.400905,0.240839,-0.245088
2019-04-29T18:48:01.235635Z,0.247219,0.055446,1.021652
2019-04-29T18:48:01.434635Z,0.7752560000000001,-1.259168,0.392019
2019-04-29T18:48:01.693635Z,0.283129,-0.34512,-1.099473
2019-04-29T18:48:01.837635Z,-1.2254049999999999,0.867527,0.18553699999999998
2019-04-29T18:48:02.033635Z,-1.6363219999999998,-1.035742,0.943055
2019-04-29T18:48:02.234635Z,-0.623999,-1.8055830000000002,0.100676
2019-04-29T18:48:02.435635Z,0.765016,-0.767678,0.33564499999999997
2019-04-29T18:48:02.637635Z,1.0151059999999998,0.39758899999999997,0.602432
2019-04-29T18:48:02.836635Z,1.061844,-1.019043,0.374612
2019-04-29T18:48:03.035635Z,0.979822,-0.406461,0.24197399999999997
2019-04-29T18:48:03.235635Z,0.878131,-0.255062,0.1507
2019-04-29T18:48:03.435635Z,0.9865010000000001,-0.642908,0.37550500000000003
2019-04-29T18:48:03.644635Z,0.855984,-0.8702840000000001,0.253675
2019-04-29T18:48:03.836635Z,0.817037,-0.548192,-0.011843000000000001
2019-04-29T18:48:04.035635Z,1.6410919999999998,-0.647245,0.770824
2019-04-29T18:48:04.235635Z,2.693126,-0.873605,0.7112
2019-04-29T18:48:04.437635Z,1.220667,-0.22440900000000003,0.11713599999999999
2019-04-29T18:48:04.638635Z,0.6830970000000001,-0.41299300000000005,0.323394
2019-04-29T18:48:04.837635Z,-0.680381,-0.7214189999999999,0.376297
2019-04-29T18:48:05.038635Z,-0.08796799999999999,-1.103233,0.285083
2019-04-29T18:48:05.239635Z,0.131313,-0.581171,-0.438733
2019-04-29T18:48:05.438635Z,0.164589,-0.339527,-0.013441
2019-04-29T18:48:05.636635Z,-0.25254499999999996,-0.572315,0.6553640000000001
2019-04-29T18:48:05.837635Z,0.368684,-0.5009170000000001,0.6443369999999999
2019-04-29T18:48:06.037635Z,0.875559,-0.142978,-0.326912
2019-04-29T18:48:06.237635Z,0.28033800000000003,0.115678,0.379902
2019-04-29T18:48:06.441635Z,-0.306731,-0.9956370000000001,0.784352
2019-04-29T18:48:06.638635Z,-0.47641400000000006,-1.491671,-0.387313
2019-04-29T18:48:06.837635Z,-0.505637,-0.370793,0.13930499999999998
2019-04-29T18:48:07.038635Z,-0.303846,-0.7233109999999999,0.22938000000000003
2019-04-29T18:48:07.239635Z,0.8451540000000001,-1.49959,0.985725
2019-04-29T18:48:07.439635Z,0.618056,-0.415437,-0.531529
2019-04-29T18:48:07.638635Z,-0.482393,0.409398,-0.009211
2019-04-29T18:48:07.859635Z,0.183785,-0.038825,0.721292
2019-04-29T18:48:08.039635Z,1.1003450000000001,-1.537094,0.793261
2019-04-29T18:48:08.238635Z,0.910523,-1.033511,-0.463897
2019-04-29T18:48:08.439635Z,-0.8727450000000001,0.274302,-0.085383
2019-04-29T18:48:08.644635Z,-1.33017,-0.374956,1.051728
2019-04-29T18:48:08.840635Z,-1.3056,-1.0333649999999999,0.174963
2019-04-29T18:48:09.041635Z,-2.238692,-1.507823,0.673092
2019-04-29T18:48:09.240635Z,-1.135867,-1.299834,0.518262
2019-04-29T18:48:09.440635Z,0.730341,-0.445984,-0.025642
2019-04-29T18:48:09.640635Z,0.523848,-0.188578,0.39617199999999997
2019-04-29T18:48:09.841635Z,0.579723,-0.898509,0.207819
2019-04-29T18:48:10.042635Z,1.395443,0.022137,-0.152357
2019-04-29T18:48:10.241635Z,1.29774,0.5255920000000001,0.981158
