Datetime,accx,accy,accz
2019-03-28T12:08:28.249103Z,0.0,0.0,0.0
2019-03-28T12:08:28.446103Z,-0.169441,-0.194663,-0.010324
2019-03-28T12:08:28.750103Z,1.134126,-1.339439,1.338166
2019-03-28T12:08:28.902103Z,1.222568,-1.494294,0.5812470000000001
2019-03-28T12:08:29.058103Z,1.16351,-1.006023,0.357061
2019-03-28T12:08:29.255103Z,0.22387100000000001,-0.587864,0.390989
2019-03-28T12:08:29.558103Z,1.372333,0.5887060000000001,-0.013655
2019-03-28T12:08:29.710103Z,0.38961399999999996,0.039965,-0.5377149999999999
2019-03-28T12:08:29.866103Z,1.56392,0.25274800000000003,-0.202468
2019-03-28T12:08:30.064103Z,0.13609100000000002,-0.201433,-0.569778
2019-03-28T12:08:30.368103Z,0.7272689999999999,0.42093,0.115156
2019-03-28T12:08:30.518103Z,0.6234149999999999,0.31700500000000004,0.012145999999999999
2019-03-28T12:08:30.677103Z,0.258986,-0.505125,0.144279
2019-03-28T12:08:30.872103Z,0.462582,-0.9878819999999999,0.377434
2019-03-28T12:08:31.176103Z,0.751586,0.5099090000000001,0.062805
2019-03-28T12:08:31.327103Z,0.662341,0.6686270000000001,-0.557072
2019-03-28T12:08:31.484103Z,0.406014,0.822609,-0.6220829999999999
2019-03-28T12:08:31.681103Z,0.420779,0.93706,-0.50456
2019-03-28T12:08:32.002103Z,-0.010253,0.562233,0.31550700000000004
2019-03-28T12:08:32.137103Z,-0.722907,0.143626,-0.177374
2019-03-28T12:08:32.901103Z,0.0,0.0,0.0
2019-03-28T12:08:33.101103Z,-0.074278,-0.157895,-0.158614
2019-03-28T12:08:33.303103Z,0.11165499999999999,0.077735,0.024301
2019-03-28T12:08:33.505103Z,0.220546,0.104493,-0.03082
2019-03-28T12:08:33.707103Z,-0.17749600000000001,-0.13177,0.018844
2019-03-28T12:08:33.909103Z,-0.093614,-0.090461,0.001243
2019-03-28T12:08:34.112103Z,0.087267,0.032336000000000004,-0.020677
2019-03-28T12:08:34.316103Z,0.06730599999999999,-0.051237,-0.0047420000000000006
2019-03-28T12:08:34.517103Z,0.035328,0.094153,-0.043662
2019-03-28T12:08:34.718103Z,0.048603,0.14619000000000001,-0.025549000000000002
2019-03-28T12:08:34.921103Z,-0.033094,0.064901,-0.015769
2019-03-28T12:08:35.122103Z,-0.13100699999999998,0.090818,-0.120868
2019-03-28T12:08:35.325103Z,0.147636,0.42953800000000003,-0.11268299999999999
2019-03-28T12:08:35.527103Z,-0.23477699999999999,0.210563,0.118524
2019-03-28T12:08:35.729103Z,0.222759,1.161965,-0.671325
2019-03-28T12:08:36.215103Z,0.811713,3.7421,-0.07849400000000001
2019-03-28T12:08:36.416103Z,1.174304,3.865821,-0.02868
2019-03-28T12:08:36.618103Z,1.428452,3.9786089999999996,-0.232308
2019-03-28T12:08:36.830103Z,0.390464,1.6939689999999998,0.44736000000000004
2019-03-28T12:08:37.022103Z,0.38863600000000004,1.9666830000000002,-0.9552149999999999
2019-03-28T12:08:37.224103Z,0.15164,2.50547,0.8819450000000001
2019-03-28T12:08:37.426103Z,-0.814508,2.217837,1.9085830000000001
2019-03-28T12:08:37.629103Z,-0.33142,0.4391,-2.873477
2019-03-28T12:08:37.859103Z,0.6512060000000001,2.313965,0.15118800000000002
2019-03-28T12:08:38.041103Z,0.757641,2.895278,-0.608367
2019-03-28T12:08:38.242103Z,0.7932640000000001,1.886036,0.8534870000000001
2019-03-28T12:08:38.462103Z,0.084718,0.57096,-0.19426400000000002
2019-03-28T12:08:38.637103Z,1.0140799999999999,1.472551,0.086512
2019-03-28T12:08:38.840103Z,0.9907950000000001,1.5409899999999999,-0.718202
2019-03-28T12:08:39.042103Z,0.719345,2.323441,-0.460736
2019-03-28T12:08:39.244103Z,0.772478,1.928186,0.586058
2019-03-28T12:08:39.446103Z,-1.127734,1.513737,-0.298652
2019-03-28T12:08:39.647103Z,-1.14126,1.927343,0.520403
2019-03-28T12:08:39.851103Z,-0.197759,2.579207,-0.311027
2019-03-28T12:08:40.052103Z,-0.961829,2.028855,1.3344200000000002
2019-03-28T12:08:40.259103Z,0.644584,1.243724,-0.525025
2019-03-28T12:08:40.457103Z,0.21850300000000003,2.505175,0.228902
2019-03-28T12:08:40.659103Z,-0.335007,3.58871,-1.414136
2019-03-28T12:08:40.861103Z,-0.184838,2.702588,0.383779
2019-03-28T12:08:41.234103Z,-0.286111,2.673048,0.345717
2019-03-28T12:08:41.436103Z,0.0,0.0,0.0
2019-03-28T12:08:41.638103Z,-0.08228400000000001,-0.286198,0.12151400000000001
2019-03-28T12:08:41.841103Z,0.7847770000000001,-0.221825,-0.03884
2019-03-28T12:08:42.042103Z,0.39464499999999997,-0.11614400000000001,-0.23347600000000002
2019-03-28T12:08:42.244103Z,0.09374,0.083438,0.42879300000000004
2019-03-28T12:08:42.446103Z,-1.4979799999999999,-1.02281,0.371818
2019-03-28T12:08:42.648103Z,-1.236243,-0.356608,-0.118395
2019-03-28T12:08:42.850103Z,-1.043015,0.180581,0.051001
2019-03-28T12:08:43.052103Z,-1.090532,-0.006514,0.5422600000000001
2019-03-28T12:08:43.254103Z,-0.5892069999999999,-1.2708840000000001,0.47835900000000003
2019-03-28T12:08:43.456103Z,-0.908767,-1.442273,-0.451457
2019-03-28T12:08:43.658103Z,-0.375952,0.11603499999999999,-0.18571400000000002
2019-03-28T12:08:43.860103Z,-1.17754,0.041158,1.100602
2019-03-28T12:08:44.062103Z,-1.596251,-0.677667,0.11828599999999999
2019-03-28T12:08:44.264103Z,-1.8325310000000001,-0.164199,-0.19736099999999998
2019-03-28T12:08:44.735103Z,-0.804495,0.02646,0.105268
2019-03-28T12:08:44.950103Z,-1.41683,-0.816669,0.601804
2019-03-28T12:08:45.138103Z,-0.9053690000000001,0.091176,0.02705
2019-03-28T12:08:45.341103Z,-1.10382,0.171548,0.013134999999999999
2019-03-28T12:08:45.543103Z,-1.59192,0.18823499999999999,0.067196
2019-03-28T12:08:45.745103Z,-1.686333,0.362246,-0.5223979999999999
2019-03-28T12:08:45.947103Z,-1.21076,0.806266,-0.481925
2019-03-28T12:08:46.149103Z,-1.563911,-0.18066600000000002,0.170781
2019-03-28T12:08:46.351103Z,-2.62113,-1.782203,1.2933729999999999
2019-03-28T12:08:46.553103Z,-1.992427,-0.01348,-0.72701
2019-03-28T12:08:46.755103Z,-1.8846900000000002,0.47594899999999996,0.7346630000000001
2019-03-28T12:08:46.957103Z,-1.390749,1.055083,0.106681
2019-03-28T12:08:47.159103Z,-1.499409,-0.067122,0.569419
2019-03-28T12:08:47.361103Z,-1.2489649999999999,-0.529217,-0.28778899999999996
2019-03-28T12:08:47.563103Z,-1.292318,0.177206,-0.35031599999999996
2019-03-28T12:08:47.765103Z,-1.68727,-0.0034649999999999998,-0.117869
2019-03-28T12:08:47.982103Z,-1.391405,-0.062158000000000005,0.152349
2019-03-28T12:08:48.169103Z,-1.153055,0.49282299999999996,-0.061475999999999996
2019-03-28T12:08:48.371103Z,-0.808297,0.5043479999999999,-0.123704
2019-03-28T12:08:48.573103Z,-0.763541,0.759897,0.32131
2019-03-28T12:08:48.775103Z,-1.161243,-1.208488,0.687925
2019-03-28T12:08:48.977103Z,-0.374607,-0.988082,-0.041085
2019-03-28T12:08:49.179103Z,-0.9470299999999999,-0.769071,-0.115851
2019-03-28T12:08:49.382103Z,-1.143902,-0.38608400000000004,0.222683
2019-03-28T12:08:49.766103Z,-0.571234,0.829471,-0.023269
2019-03-28T12:08:49.967103Z,0.0,0.0,0.0
2019-03-28T12:08:50.169103Z,0.099557,0.274856,-0.098723
2019-03-28T12:08:50.372103Z,0.08305,0.46401499999999996,-0.050202
2019-03-28T12:08:50.574103Z,-0.362244,0.317284,0.10273499999999999
2019-03-28T12:08:50.776103Z,0.18649300000000002,0.536381,-0.271919
2019-03-28T12:08:50.978103Z,0.483731,0.953664,-0.16331700000000002
2019-03-28T12:08:51.180103Z,-0.09217,0.618525,0.398808
2019-03-28T12:08:51.381103Z,0.100452,-0.8827879999999999,0.5498069999999999
2019-03-28T12:08:51.584103Z,0.34389000000000003,-1.42766,0.046575
2019-03-28T12:08:51.786103Z,0.392226,-0.8203440000000001,-0.009748
2019-03-28T12:08:51.988103Z,0.208467,-0.27775,0.129927
2019-03-28T12:08:52.191103Z,0.436759,-0.6018979999999999,0.6363850000000001
2019-03-28T12:08:52.392103Z,1.223547,-1.570926,0.303089
2019-03-28T12:08:52.594103Z,1.259039,-1.1851559999999999,0.6007399999999999
2019-03-28T12:08:52.796103Z,1.178359,-0.6830430000000001,0.019911
2019-03-28T12:08:53.266103Z,1.2744950000000002,-0.40469,0.19864500000000002
2019-03-28T12:08:53.468103Z,2.298907,0.630829,1.472525
2019-03-28T12:08:53.671103Z,0.818836,1.34453,0.580337
2019-03-28T12:08:53.872103Z,0.588065,-0.616786,-0.680515
2019-03-28T12:08:54.075103Z,0.872497,-0.403248,-0.6771159999999999
2019-03-28T12:08:54.276103Z,-0.162883,-0.14157999999999998,0.9340709999999999
2019-03-28T12:08:54.478103Z,0.032093,-0.702593,0.651401
2019-03-28T12:08:54.681103Z,1.492745,0.24145300000000003,0.021222
2019-03-28T12:08:54.882103Z,1.356054,1.1729040000000002,-0.550408
2019-03-28T12:08:55.084103Z,0.591234,1.6886430000000001,-0.059074
2019-03-28T12:08:55.287103Z,1.0748790000000001,0.009859,-0.171834
2019-03-28T12:08:55.488103Z,1.774314,-0.081235,0.044572
2019-03-28T12:08:55.706103Z,1.473168,0.767573,-0.087358
2019-03-28T12:08:55.893103Z,1.8195119999999998,0.544929,0.9694280000000001
2019-03-28T12:08:56.094103Z,2.116952,0.379217,-0.528254
2019-03-28T12:08:56.296103Z,1.2275,-0.760524,0.188487
2019-03-28T12:08:56.499103Z,1.3006280000000001,1.72332,1.309744
2019-03-28T12:08:56.701103Z,-1.9480790000000001,0.698418,-0.377994
2019-03-28T12:08:56.903103Z,-0.918076,0.25617199999999996,-0.10571900000000001
2019-03-28T12:08:57.105103Z,1.0825930000000001,-0.490155,0.26910700000000004
2019-03-28T12:08:57.306103Z,-0.809449,-0.712747,0.141562
2019-03-28T12:08:57.508103Z,-0.754416,-0.7707729999999999,0.394361
2019-03-28T12:08:57.711103Z,-0.7713869999999999,-0.296149,-0.45231400000000005
2019-03-28T12:08:57.913103Z,-1.6566599999999998,-0.013253000000000001,0.575681
2019-03-28T12:08:58.301103Z,-1.494443,-0.145656,0.576308
2019-03-28T12:08:58.503103Z,0.0,0.0,0.0
2019-03-28T12:08:58.705103Z,-0.171465,0.19159400000000001,0.100647
2019-03-28T12:08:58.907103Z,-0.108872,0.158364,0.068646
2019-03-28T12:08:59.110103Z,-0.754977,-0.7873359999999999,0.162524
2019-03-28T12:08:59.312103Z,-0.205197,-0.033915,0.131853
2019-03-28T12:08:59.514103Z,0.618643,0.630476,-0.228131
2019-03-28T12:08:59.718103Z,0.67942,0.8992829999999999,0.082591
2019-03-28T12:08:59.917103Z,1.1886809999999999,0.96598,-0.065256
2019-03-28T12:09:00.119103Z,-0.241142,0.638798,-0.173059
2019-03-28T12:09:00.322103Z,-0.945894,0.625635,-0.16573
2019-03-28T12:09:00.523103Z,-0.920549,0.037675,0.32395799999999997
2019-03-28T12:09:00.725103Z,0.45015900000000003,0.444092,-0.15792
2019-03-28T12:09:00.927103Z,0.382791,-0.631763,0.401514
2019-03-28T12:09:01.129103Z,1.8281459999999998,-0.724995,0.130467
2019-03-28T12:09:01.331103Z,1.491763,-0.169464,-0.07156
2019-03-28T12:09:01.821103Z,0.8222860000000001,-2.056808,0.511305
2019-03-28T12:09:02.023103Z,0.429555,-3.06517,1.278801
2019-03-28T12:09:02.225103Z,0.216191,-2.4730119999999998,0.973663
2019-03-28T12:09:02.427103Z,0.336011,-1.478933,1.7367650000000001
2019-03-28T12:09:02.630103Z,0.328953,-2.03306,0.762675
2019-03-28T12:09:02.831103Z,1.241624,-2.775864,1.178187
2019-03-28T12:09:03.034103Z,0.804367,-1.13378,0.9650059999999999
2019-03-28T12:09:03.235103Z,1.574777,-0.783103,1.095067
2019-03-28T12:09:03.437103Z,0.545477,-1.575105,0.46358
2019-03-28T12:09:03.639103Z,0.7085560000000001,-1.027359,0.7177140000000001
2019-03-28T12:09:03.841103Z,1.169828,-0.80314,0.117315
2019-03-28T12:09:04.043103Z,1.356265,-0.646456,-0.694816
2019-03-28T12:09:04.245103Z,0.855858,0.213524,0.8964799999999999
2019-03-28T12:09:04.447103Z,0.978859,0.6760970000000001,0.377033
2019-03-28T12:09:04.649103Z,1.9630880000000002,-0.619636,0.47166
2019-03-28T12:09:04.851103Z,0.506077,-1.59713,1.0744129999999998
2019-03-28T12:09:05.053103Z,0.49283299999999997,-0.42894399999999994,0.218138
2019-03-28T12:09:05.254103Z,0.935702,0.505795,0.297485
2019-03-28T12:09:05.457103Z,0.8834120000000001,-0.05954400000000001,2.349845
2019-03-28T12:09:05.659103Z,2.100221,-0.048445999999999996,-1.405227
2019-03-28T12:09:05.860103Z,1.839666,1.664037,-0.163617
2019-03-28T12:09:06.062103Z,1.04839,2.083183,-0.023507
2019-03-28T12:09:06.265103Z,2.301607,-0.151569,0.8250059999999999
2019-03-28T12:09:06.466103Z,2.050215,-1.6731200000000002,1.517023
2019-03-28T12:09:06.668103Z,1.6895330000000002,-0.8261229999999999,1.394841
2019-03-28T12:09:06.870103Z,0.850982,-0.5432640000000001,-1.201684
2019-03-28T12:09:07.072103Z,1.7177799999999999,-0.686519,1.400299
2019-03-28T12:09:07.274103Z,1.372622,0.134962,-0.174413
2019-03-28T12:09:07.486103Z,0.80569,0.8423120000000001,-0.648416
2019-03-28T12:09:07.677103Z,0.66915,0.12571500000000002,0.018247
2019-03-28T12:09:07.879103Z,0.141497,-1.469852,1.152763
2019-03-28T12:09:08.082103Z,-0.257393,-1.4497120000000001,0.368104
2019-03-28T12:09:08.283103Z,0.088193,-0.693171,0.039372000000000004
2019-03-28T12:09:08.486103Z,0.6548729999999999,-1.219559,1.425724
2019-03-28T12:09:08.688103Z,0.042869,-1.874034,-0.189156
2019-03-28T12:09:08.889103Z,1.365248,0.44330299999999995,-0.082338
2019-03-28T12:09:09.091103Z,1.1313540000000002,-0.089769,0.32052600000000003
2019-03-28T12:09:09.294103Z,-0.112171,-0.83042,0.600964
2019-03-28T12:09:09.518103Z,-0.726073,0.111918,0.266671
2019-03-28T12:09:09.697103Z,-0.125182,0.614905,-0.330857
2019-03-28T12:09:09.900103Z,-0.055745,0.963463,-0.050194
2019-03-28T12:09:10.102103Z,0.62542,2.129065,0.6344420000000001
2019-03-28T12:09:10.303103Z,0.80584,2.0869779999999998,-0.6891649999999999
2019-03-28T12:09:10.505103Z,0.8138350000000001,2.3582009999999998,0.554859
2019-03-28T12:09:10.707103Z,1.395158,0.859844,0.625448
2019-03-28T12:09:10.909103Z,1.505572,0.083362,-1.452942
2019-03-28T12:09:11.111103Z,1.530829,0.97815,0.185254
2019-03-28T12:09:11.313103Z,1.030208,0.516676,0.5730529999999999
2019-03-28T12:09:11.515103Z,0.949601,-1.7118330000000002,0.747613
2019-03-28T12:09:11.717103Z,0.7731779999999999,-0.808909,-0.465542
2019-03-28T12:09:11.919103Z,-0.051836,-0.547438,0.231319
2019-03-28T12:09:12.120103Z,1.471462,0.132191,-0.7784810000000001
2019-03-28T12:09:12.323103Z,1.153445,0.359562,0.008615000000000001
2019-03-28T12:09:12.524103Z,2.242911,0.409868,0.121143
2019-03-28T12:09:12.726103Z,1.116236,1.039766,1.486545
2019-03-28T12:09:12.972103Z,-0.638968,1.3372629999999999,-1.093701
2019-03-28T12:09:13.130103Z,-0.764914,0.694419,0.197278
2019-03-28T12:09:13.332103Z,-0.057589999999999995,0.564737,-0.35015999999999997
2019-03-28T12:09:13.535103Z,-1.128263,1.9585110000000001,-0.341385
2019-03-28T12:09:13.736103Z,-1.507776,1.098982,0.7564960000000001
2019-03-28T12:09:13.938103Z,-1.9473080000000003,-0.237769,-0.32554099999999997
2019-03-28T12:09:14.140103Z,-1.335815,0.224177,-0.186409
2019-03-28T12:09:14.342103Z,-1.143369,0.914773,-0.36398400000000003
2019-03-28T12:09:14.544103Z,-1.336986,1.679241,0.0601
2019-03-28T12:09:14.746103Z,-0.8309350000000001,0.9181360000000001,-0.24799699999999997
2019-03-28T12:09:14.947103Z,-0.43359,0.144862,-0.078565
2019-03-28T12:09:15.149103Z,-0.5911569999999999,1.451703,-0.7969609999999999
2019-03-28T12:09:15.352103Z,-0.9919819999999999,2.188685,-0.105521
2019-03-28T12:09:15.553103Z,-1.439582,0.44433100000000003,0.7659239999999999
2019-03-28T12:09:15.755103Z,-0.000924,0.576997,-0.943634
2019-03-28T12:09:15.957103Z,0.640613,1.6580669999999997,-0.6148899999999999
2019-03-28T12:09:16.159103Z,0.27163899999999996,1.6917200000000001,-0.22307800000000003
2019-03-28T12:09:16.361103Z,-0.42649499999999996,0.455617,0.562263
2019-03-28T12:09:16.563103Z,-1.5806280000000001,1.323858,-0.7995479999999999
2019-03-28T12:09:16.765103Z,-0.354104,1.874134,-0.876481
2019-03-28T12:09:16.966103Z,-0.321755,1.763009,-1.672025
2019-03-28T12:09:17.169103Z,-0.9132979999999999,1.227429,0.32140599999999997
2019-03-28T12:09:17.370103Z,-0.7028909999999999,1.454979,-0.437709
2019-03-28T12:09:17.572103Z,-0.430295,1.865947,-0.7814909999999999
2019-03-28T12:09:17.775103Z,-0.6499550000000001,2.254932,0.215759
2019-03-28T12:09:17.976103Z,-0.840081,2.337556,0.38163800000000003
2019-03-28T12:09:18.178103Z,0.06411599999999999,2.9815840000000002,-0.308015
2019-03-28T12:09:18.380103Z,-0.76589,2.642014,-0.06955399999999999
2019-03-28T12:09:18.582103Z,0.077999,0.7248560000000001,-0.474689
2019-03-28T12:09:18.784103Z,0.06022,0.424828,-1.084486
2019-03-28T12:09:18.986103Z,0.6267119999999999,1.208186,0.44109
2019-03-28T12:09:19.188103Z,-0.342055,0.34347,2.7528669999999997
2019-03-28T12:09:19.390103Z,-0.509921,-0.9148229999999999,-0.8064399999999999
2019-03-28T12:09:19.592103Z,-0.373163,0.104325,-1.0504040000000001
2019-03-28T12:09:19.794103Z,-0.391146,0.060447,0.515537
2019-03-28T12:09:19.995103Z,0.72702,1.615993,0.529048
2019-03-28T12:09:20.198103Z,-0.318923,1.463445,-0.348432
2019-03-28T12:09:20.399103Z,-0.045304000000000004,1.70515,-0.30351999999999996
2019-03-28T12:09:20.601103Z,-0.125825,1.976247,-0.16172999999999998
2019-03-28T12:09:20.803103Z,-0.7131850000000001,2.119487,-0.44475699999999996
2019-03-28T12:09:21.005103Z,0.142967,1.3356620000000001,0.775399
2019-03-28T12:09:21.207103Z,1.075558,0.605039,-1.463848
2019-03-28T12:09:21.409103Z,0.007815,1.854828,-0.028307
2019-03-28T12:09:21.610103Z,1.136562,2.269417,-0.11582999999999999
2019-03-28T12:09:21.812103Z,0.13353800000000002,0.028291000000000004,-0.254766
2019-03-28T12:09:22.016103Z,-1.5375159999999999,-0.9288350000000001,-0.12163
2019-03-28T12:09:22.216103Z,-2.054532,-0.24442600000000003,0.194895
2019-03-28T12:09:22.419103Z,-1.618549,0.320741,0.763263
2019-03-28T12:09:22.620103Z,-2.00299,0.719093,-0.8212389999999999
2019-03-28T12:09:22.822103Z,0.425328,-0.28134699999999996,0.404941
2019-03-28T12:09:23.048103Z,0.7336020000000001,-0.36054,-0.708866
2019-03-28T12:09:23.226103Z,-0.39105,0.033947000000000005,-0.357508
2019-03-28T12:09:23.428103Z,-0.330893,-0.090532,-0.089882
2019-03-28T12:09:23.630103Z,-0.847867,-0.090321,0.248412
2019-03-28T12:09:23.832103Z,-0.715132,0.752312,0.128333
2019-03-28T12:09:24.033103Z,-1.007863,1.033794,-0.301493
2019-03-28T12:09:24.235103Z,-0.877647,0.114475,0.950723
2019-03-28T12:09:24.437103Z,-0.41248999999999997,-0.291146,-0.086651
2019-03-28T12:09:24.639103Z,-1.9093229999999999,0.084685,-0.531587
2019-03-28T12:09:24.841103Z,-0.991607,1.300002,-0.27829699999999996
2019-03-28T12:09:25.044103Z,-1.1663569999999999,1.1652120000000001,0.7790189999999999
2019-03-28T12:09:25.245103Z,0.181623,0.184443,-0.790061
2019-03-28T12:09:25.447103Z,-1.370061,1.126192,0.076164
2019-03-28T12:09:25.649103Z,-1.342117,1.443039,0.29851700000000003
2019-03-28T12:09:25.851103Z,-0.816022,0.244575,0.20991100000000001
2019-03-28T12:09:26.053103Z,0.358498,0.813535,-0.5358609999999999
2019-03-28T12:09:26.255103Z,-0.45214499999999996,0.46189600000000003,0.134235
2019-03-28T12:09:26.457103Z,-0.772788,0.743187,0.275681
2019-03-28T12:09:26.681103Z,-2.379427,0.142351,-0.888541
2019-03-28T12:09:26.861103Z,-1.856228,-0.35423499999999997,0.372195
2019-03-28T12:09:27.062103Z,-0.6754439999999999,-0.252712,0.255135
2019-03-28T12:09:27.264103Z,0.191227,0.085631,-0.540221
2019-03-28T12:09:27.467103Z,-0.255776,-0.058878,0.682143
2019-03-28T12:09:27.668103Z,-0.934,-0.463138,-0.089426
2019-03-28T12:09:27.870103Z,-0.887056,-0.236116,0.9663430000000001
2019-03-28T12:09:28.072103Z,-2.4121330000000003,0.7433489999999999,-0.17160999999999998
2019-03-28T12:09:28.274103Z,-2.040748,0.388263,0.594276
2019-03-28T12:09:28.476103Z,-1.589749,0.115527,0.42276400000000003
2019-03-28T12:09:28.678103Z,-1.453164,-0.8049350000000001,-0.167464
2019-03-28T12:09:28.879103Z,-2.194871,0.459088,-0.241666
2019-03-28T12:09:29.081103Z,-2.194214,1.1920190000000002,0.240542
2019-03-28T12:09:29.284103Z,-2.8944970000000003,-0.577979,0.511436
2019-03-28T12:09:29.485103Z,-2.036019,0.31619899999999995,0.45048699999999997
2019-03-28T12:09:29.687103Z,-1.7119779999999998,0.453099,0.444139
2019-03-28T12:09:29.889103Z,-2.168214,0.795657,-0.249191
2019-03-28T12:09:30.091103Z,-2.545788,0.933217,-0.631386
2019-03-28T12:09:30.293103Z,-3.130155,1.562278,-1.099013
2019-03-28T12:09:30.495103Z,-2.060129,1.7331599999999998,0.910645
2019-03-28T12:09:30.697103Z,-2.752972,0.623767,0.36036999999999997
2019-03-28T12:09:30.899103Z,-2.236148,-2.5308580000000003,-1.014271
2019-03-28T12:09:31.101103Z,-0.86954,0.6268060000000001,-0.402449
2019-03-28T12:09:31.302103Z,-2.18978,-1.917348,0.861873
2019-03-28T12:09:31.505103Z,-1.7242939999999998,-4.746567,2.904811
2019-03-28T12:09:31.707103Z,-2.08893,-4.958087,2.140466
2019-03-28T12:09:31.908103Z,-1.6129149999999999,-3.770804,1.889417
2019-03-28T12:09:32.127103Z,-1.866336,-3.323514,0.522883
2019-03-28T12:09:32.313103Z,-1.6032629999999999,-2.492986,1.681561
2019-03-28T12:09:32.514103Z,-3.0301549999999997,-2.175278,1.360925
2019-03-28T12:09:32.716103Z,-1.8887189999999998,-1.576558,0.836842
2019-03-28T12:09:32.918103Z,-1.8204369999999999,-1.800807,1.157286
2019-03-28T12:09:33.119103Z,-1.4969709999999998,-2.760816,1.7748169999999999
2019-03-28T12:09:33.322103Z,-1.097712,-2.351236,0.430062
2019-03-28T12:09:33.524103Z,-1.440316,-1.171549,0.774097
2019-03-28T12:09:33.725103Z,-1.696425,-0.478768,1.761584
2019-03-28T12:09:33.927103Z,-1.08372,-3.3036019999999997,1.3137510000000001
2019-03-28T12:09:34.130103Z,-1.770073,-3.024092,1.672838
2019-03-28T12:09:34.331103Z,-0.625934,-2.558907,1.332683
2019-03-28T12:09:34.534103Z,-0.34067600000000003,-2.001748,0.6791020000000001
2019-03-28T12:09:34.748103Z,-1.066076,-1.5373379999999999,0.400331
2019-03-28T12:09:34.937103Z,-0.621215,-1.086859,0.606436
2019-03-28T12:09:35.139103Z,-0.720762,-0.933642,0.512284
2019-03-28T12:09:35.341103Z,-0.7958270000000001,-0.342731,0.6232800000000001
2019-03-28T12:09:35.543103Z,-0.610959,-0.374567,1.423027
2019-03-28T12:09:35.744103Z,-1.138781,-0.7212310000000001,0.032352
2019-03-28T12:09:35.947103Z,-1.359872,-1.747094,-0.44907700000000006
2019-03-28T12:09:36.148103Z,-1.701654,-0.8745209999999999,-0.06994600000000001
2019-03-28T12:09:36.350103Z,-2.0312490000000003,0.32913000000000003,0.667369
2019-03-28T12:09:36.553103Z,-2.291082,-0.678237,1.337307
2019-03-28T12:09:36.754103Z,-2.472089,-1.024008,0.325006
2019-03-28T12:09:36.956103Z,-1.078063,0.756991,-0.257738
2019-03-28T12:09:37.158103Z,-1.3385129999999998,0.67335,1.008535
2019-03-28T12:09:37.360103Z,-0.664971,0.100756,0.56938
2019-03-28T12:09:37.562103Z,-0.542097,-0.791987,0.37852399999999997
2019-03-28T12:09:37.780103Z,-0.068177,0.050395999999999996,0.623201
2019-03-28T12:09:37.966103Z,-0.41443199999999997,-0.046810000000000004,0.486221
2019-03-28T12:09:38.167103Z,-2.260412,0.29054,-1.236334
2019-03-28T12:09:38.370103Z,-1.943285,-0.45378900000000005,1.221805
2019-03-28T12:09:38.571103Z,-0.648563,1.266316,0.040632999999999996
2019-03-28T12:09:38.773103Z,-0.213668,1.494039,-0.136257
2019-03-28T12:09:38.975103Z,0.970966,0.174484,-0.18068199999999998
2019-03-28T12:09:39.177103Z,0.173903,-0.043599,-0.464235
2019-03-28T12:09:39.379103Z,0.357689,0.305361,0.107984
2019-03-28T12:09:39.581103Z,-0.039804,1.128207,0.004529
2019-03-28T12:09:39.783103Z,-1.357378,-1.475351,3.0529349999999997
2019-03-28T12:09:39.985103Z,0.11508099999999999,-0.8108069999999999,-0.459164
2019-03-28T12:09:40.187103Z,0.357998,0.048052,0.5725
2019-03-28T12:09:40.388103Z,0.72041,-0.7503380000000001,0.827493
2019-03-28T12:09:40.591103Z,-0.369406,-0.582808,0.743762
2019-03-28T12:09:40.792103Z,-0.427492,-0.212639,0.39832399999999996
2019-03-28T12:09:40.995103Z,0.185064,-0.163973,0.23428400000000002
2019-03-28T12:09:41.196103Z,0.13583699999999999,0.291115,-0.29249899999999995
2019-03-28T12:09:41.398103Z,-0.840725,0.449506,0.082828
2019-03-28T12:09:41.600103Z,0.510644,0.564528,0.28477800000000003
2019-03-28T12:09:41.802103Z,1.294756,-1.7926950000000001,0.9822
2019-03-28T12:09:42.004103Z,0.784663,-1.101796,0.35227800000000004
2019-03-28T12:09:42.206103Z,0.9597760000000001,-0.113601,1.1146479999999999
2019-03-28T12:09:42.407103Z,1.5910879999999998,-1.31045,0.5753739999999999
2019-03-28T12:09:42.609103Z,1.189692,-2.471263,1.369428
2019-03-28T12:09:42.811103Z,1.635375,-1.128392,-0.005181
2019-03-28T12:09:43.013103Z,2.154214,-0.542662,0.952987
2019-03-28T12:09:43.215103Z,1.6418130000000002,-0.833751,2.0863240000000003
2019-03-28T12:09:43.417103Z,-0.025084,-1.928216,0.8671549999999999
2019-03-28T12:09:43.619103Z,-0.954633,-1.339497,0.556855
2019-03-28T12:09:43.821103Z,-0.437879,-0.801991,1.010185
2019-03-28T12:09:44.023103Z,-1.481635,-1.6080379999999999,0.84855
2019-03-28T12:09:44.224103Z,-1.216739,-1.2981260000000001,0.24685500000000002
2019-03-28T12:09:44.427103Z,-1.076941,-1.146559,0.5928800000000001
2019-03-28T12:09:44.628103Z,-0.658467,-0.378121,0.543111
2019-03-28T12:09:44.830103Z,-0.528666,-0.45295,-1.111141
2019-03-28T12:09:45.033103Z,-1.249976,-0.605401,2.440259
2019-03-28T12:09:45.234103Z,-1.061036,-3.384665,0.24914699999999998
2019-03-28T12:09:45.436103Z,-0.565107,-2.6277220000000003,-0.738893
2019-03-28T12:09:45.638103Z,0.7996300000000001,-0.667642,0.8916229999999999
2019-03-28T12:09:45.840103Z,0.40228,-1.284485,0.26818800000000004
2019-03-28T12:09:46.041103Z,0.780147,-2.981288,0.9594389999999999
2019-03-28T12:09:46.244103Z,-1.068524,-2.4013169999999997,0.019538999999999997
2019-03-28T12:09:46.445103Z,-1.112981,-1.2631350000000001,0.855806
2019-03-28T12:09:46.647103Z,-0.182751,-2.4089110000000002,1.0064959999999998
2019-03-28T12:09:46.849103Z,-0.192834,-1.573242,0.333656
2019-03-28T12:09:47.051103Z,0.977361,-0.862634,0.9433540000000001
2019-03-28T12:09:47.252103Z,-0.16383499999999998,-1.056072,0.352005
2019-03-28T12:09:47.455103Z,-0.323789,-0.587795,-0.365421
2019-03-28T12:09:47.656103Z,-0.126085,-0.229015,0.50894
2019-03-28T12:09:47.858103Z,-0.9514229999999999,-0.605981,0.137242
2019-03-28T12:09:48.061103Z,-0.185142,0.07079099999999999,0.22879899999999997
2019-03-28T12:09:48.262103Z,0.174094,0.301689,0.247571
2019-03-28T12:09:48.465103Z,0.604829,0.540305,-0.022682
2019-03-28T12:09:48.666103Z,0.043175,-0.760127,0.224271
2019-03-28T12:09:48.868103Z,0.124885,-1.536666,0.089991
2019-03-28T12:09:49.070103Z,0.665137,-0.739897,0.25754699999999997
2019-03-28T12:09:49.272103Z,0.00025,-0.34045,0.5464479999999999
2019-03-28T12:09:49.473103Z,0.593834,-0.000618,0.031666
2019-03-28T12:09:49.675103Z,0.088533,-0.169871,0.127026
2019-03-28T12:09:49.878103Z,-0.12191099999999999,-0.09805900000000001,0.079693
2019-03-28T12:09:50.079103Z,-0.247496,-0.086158,-0.097551
2019-03-28T12:09:50.280103Z,-0.11498299999999999,-0.082571,-0.062416
2019-03-28T12:09:50.483103Z,0.159329,0.24358400000000002,0.021605000000000003
2019-03-28T12:09:50.684103Z,-0.024463,0.716996,-0.152186
2019-03-28T12:09:50.886103Z,0.140101,0.282779,0.365101
2019-03-28T12:09:51.089103Z,0.37754299999999996,0.15346700000000002,-0.062554
2019-03-28T12:09:51.290103Z,0.015611000000000002,-0.023247,-0.033881
2019-03-28T12:09:51.492103Z,-0.45148699999999997,0.262117,-0.002597
2019-03-28T12:09:51.695103Z,-1.113293,0.183851,0.060142999999999995
2019-03-28T12:09:51.896103Z,0.03992,0.418488,0.319102
2019-03-28T12:09:52.098103Z,0.58026,0.274577,-0.878561
2019-03-28T12:09:52.301103Z,-0.541806,0.8258110000000001,-0.195304
2019-03-28T12:09:52.501103Z,-0.022371000000000002,0.846025,-0.111882
2019-03-28T12:09:52.703103Z,-0.747668,-0.31198200000000004,0.15187799999999999
2019-03-28T12:09:52.905103Z,0.179829,-0.49057,0.265706
2019-03-28T12:09:53.107103Z,0.628193,0.39076700000000003,-0.351084
2019-03-28T12:09:53.314103Z,-0.710749,0.12204000000000001,-0.142048
2019-03-28T12:09:53.520103Z,-0.962815,-1.160282,1.691124
2019-03-28T12:09:53.718103Z,0.38465900000000003,-0.29349699999999995,0.140372
2019-03-28T12:09:53.920103Z,-0.087775,-0.913135,0.899934
2019-03-28T12:09:54.122103Z,0.596938,-0.877343,0.491712
2019-03-28T12:09:54.323103Z,0.062345000000000005,0.078682,-0.029912
2019-03-28T12:09:54.527103Z,0.916897,0.47314399999999995,-0.31638499999999997
2019-03-28T12:09:54.738103Z,0.082699,0.41239499999999996,0.364938
2019-03-28T12:09:54.923103Z,0.41718,0.986,-0.310743
2019-03-28T12:09:55.125103Z,0.279729,0.908589,-0.48271800000000004
2019-03-28T12:09:55.327103Z,-0.258851,1.3941299999999999,-0.617035
2019-03-28T12:09:55.529103Z,-0.661299,1.230466,-0.291224
2019-03-28T12:09:55.730103Z,-0.552106,1.444791,-0.426097
2019-03-28T12:09:55.943103Z,0.450176,1.630585,-0.624434
2019-03-28T12:09:56.135103Z,0.429629,0.97709,0.49974700000000005
2019-03-28T12:09:56.337103Z,1.6926759999999998,1.0267110000000002,-0.017916
2019-03-28T12:09:56.538103Z,1.256294,2.543309,-0.43004499999999996
2019-03-28T12:09:56.740103Z,0.743753,2.2349080000000003,0.716729
2019-03-28T12:09:56.942103Z,1.792546,0.5626939999999999,0.125661
2019-03-28T12:09:57.145103Z,1.464934,-0.778447,0.091378
2019-03-28T12:09:57.346103Z,0.968424,0.508252,0.803535
2019-03-28T12:09:57.547103Z,2.197339,0.44026000000000004,1.010702
2019-03-28T12:09:57.749103Z,2.550049,-0.35362,1.073089
2019-03-28T12:09:57.951103Z,1.337605,-0.058240999999999994,0.557072
2019-03-28T12:09:58.153103Z,2.025608,0.6206149999999999,1.050792
2019-03-28T12:09:58.355103Z,1.793068,0.879828,-0.051604
2019-03-28T12:09:58.557103Z,2.131313,1.43279,0.686064
2019-03-28T12:09:58.759103Z,2.1571279999999997,0.949831,-0.030187000000000002
2019-03-28T12:09:58.961103Z,2.4103689999999998,0.39839600000000003,0.904277
2019-03-28T12:09:59.162103Z,1.969813,-0.20599,0.040808
2019-03-28T12:09:59.364103Z,1.286944,0.45814799999999994,1.2150729999999998
2019-03-28T12:09:59.566103Z,1.201922,0.547675,0.389462
2019-03-28T12:09:59.767103Z,1.517644,1.212491,-0.253064
2019-03-28T12:09:59.969103Z,1.4990139999999998,-0.488962,1.9569619999999999
2019-03-28T12:10:00.172103Z,2.978971,-0.292206,-0.802135
2019-03-28T12:10:00.373103Z,2.781525,0.792887,0.753184
2019-03-28T12:10:00.575103Z,1.6966299999999999,0.314886,0.554818
2019-03-28T12:10:00.777103Z,1.264253,-1.635656,1.498174
2019-03-28T12:10:00.979103Z,0.710647,-0.9875649999999999,0.34891500000000003
2019-03-28T12:10:01.219103Z,1.0819530000000002,-0.724345,0.6157729999999999
2019-03-28T12:10:01.383103Z,1.5002229999999999,0.268363,0.426048
2019-03-28T12:10:01.584103Z,0.159706,0.22181199999999998,-0.15279700000000002
2019-03-28T12:10:01.786103Z,0.461269,0.48734099999999997,-0.42683999999999994
2019-03-28T12:10:01.988103Z,-0.133582,0.15349000000000002,0.8607879999999999
2019-03-28T12:10:02.190103Z,-0.897143,-0.030612999999999998,2.01554
2019-03-28T12:10:02.391103Z,1.605464,-0.339376,0.17366199999999998
2019-03-28T12:10:02.593103Z,1.367177,0.8482790000000001,-0.23016599999999998
2019-03-28T12:10:02.795103Z,0.5055890000000001,0.642571,0.70014
2019-03-28T12:10:02.997103Z,1.068322,-1.1981680000000001,0.843557
2019-03-28T12:10:03.199103Z,1.9514779999999998,-1.29726,0.26360700000000004
2019-03-28T12:10:03.401103Z,0.721774,-0.556271,0.8124859999999999
2019-03-28T12:10:03.641103Z,-0.44711300000000004,-0.5637989999999999,-0.696229
2019-03-28T12:10:03.804103Z,0.301611,-0.111732,-0.001836
2019-03-28T12:10:04.007103Z,-0.589875,0.536874,-0.24339
2019-03-28T12:10:04.209103Z,-1.949323,0.240666,1.058926
2019-03-28T12:10:04.420103Z,-1.228887,0.37288699999999997,0.6888810000000001
2019-03-28T12:10:04.612103Z,0.046852,-1.774382,-1.310542
2019-03-28T12:10:04.813103Z,0.549298,-1.488649,-0.53463
2019-03-28T12:10:05.016103Z,0.106688,-0.627344,0.19558399999999998
2019-03-28T12:10:05.217103Z,-0.5661,-0.477087,0.509987
2019-03-28T12:10:05.419103Z,0.42375100000000004,-2.376686,1.531131
2019-03-28T12:10:05.621103Z,-1.319317,-3.029958,1.4385620000000001
2019-03-28T12:10:05.822103Z,-1.622158,-2.010936,1.939186
2019-03-28T12:10:06.025103Z,-0.534231,-2.177412,0.849018
2019-03-28T12:10:06.227103Z,0.07939700000000001,-2.753274,1.761828
2019-03-28T12:10:06.428103Z,-1.0547440000000001,-2.1603,1.146408
2019-03-28T12:10:06.630103Z,-0.8840959999999999,-2.247019,1.121578
2019-03-28T12:10:06.832103Z,-1.388989,-1.975266,1.5519450000000001
2019-03-28T12:10:07.034103Z,-0.498565,-0.358038,0.339959
2019-03-28T12:10:07.235103Z,-0.702723,-0.61815,-0.158223
2019-03-28T12:10:07.437103Z,-1.940462,-0.739394,0.70239
2019-03-28T12:10:07.639103Z,-1.329297,0.891961,0.46943999999999997
2019-03-28T12:10:07.841103Z,-0.235965,0.36458,0.560588
2019-03-28T12:10:08.043103Z,0.413022,-0.347564,-0.15429500000000002
2019-03-28T12:10:08.244103Z,0.06964,1.0686870000000002,-2.268943
2019-03-28T12:10:08.446103Z,-1.1509790000000002,1.341068,0.16194
2019-03-28T12:10:08.648103Z,-2.357217,0.206893,3.5069169999999996
2019-03-28T12:10:08.850103Z,-1.1270129999999998,-0.533762,-0.8918360000000001
2019-03-28T12:10:09.052103Z,-1.17839,1.175397,-0.177063
2019-03-28T12:10:09.254103Z,-1.0710979999999999,1.841749,0.099878
2019-03-28T12:10:09.455103Z,-2.174344,-0.555031,-1.241285
2019-03-28T12:10:09.657103Z,-1.222988,0.48955,-0.746871
2019-03-28T12:10:09.859103Z,-1.769252,0.5610390000000001,0.376151
2019-03-28T12:10:10.061103Z,-0.642228,0.703429,-1.677357
