Datetime,accx,accy,accz
2019-04-09T17:28:10.046914Z,0.0,0.0,0.0
2019-04-09T17:28:10.253914Z,-0.03313,0.11410799999999999,-0.24006100000000002
2019-04-09T17:28:10.454914Z,0.21909499999999998,-0.230923,0.12878299999999998
2019-04-09T17:28:10.651914Z,0.274095,0.014013999999999999,-0.025265
2019-04-09T17:28:10.850914Z,0.113898,0.431975,0.060785000000000006
2019-04-09T17:28:11.052914Z,-0.033283999999999994,0.36739499999999997,0.266388
2019-04-09T17:28:11.245914Z,0.182971,-0.5900850000000001,0.257218
2019-04-09T17:28:11.444914Z,0.529528,-0.8935860000000001,-0.742594
2019-04-09T17:28:11.647914Z,-0.441054,-0.277625,-0.066624
2019-04-09T17:28:11.847914Z,-0.47752,0.407335,0.43375
2019-04-09T17:28:12.058914Z,-0.07449,0.322808,0.834908
2019-04-09T17:28:12.245914Z,0.312504,-1.0379450000000001,-0.772191
2019-04-09T17:28:12.445914Z,0.215673,-0.138747,-0.317176
2019-04-09T17:28:12.648914Z,-0.255117,0.614835,0.03751
2019-04-09T17:28:12.848914Z,-0.971239,0.26172,1.336466
2019-04-09T17:28:13.048914Z,-0.107224,-1.306163,-0.6233569999999999
2019-04-09T17:28:13.257914Z,0.415033,-0.8994260000000001,-0.08683400000000001
2019-04-09T17:28:13.450914Z,-0.296718,0.35983699999999996,0.731692
2019-04-09T17:28:13.652914Z,0.598284,-0.435076,0.249621
2019-04-09T17:28:13.849914Z,0.293643,-0.461614,-0.8929540000000001
2019-04-09T17:28:14.049914Z,0.132435,0.730522,0.21170799999999998
2019-04-09T17:28:14.246914Z,-0.85808,0.118404,0.7759699999999999
2019-04-09T17:28:14.448914Z,-0.378821,-1.188372,-0.44619
2019-04-09T17:28:14.646914Z,0.081049,-0.524809,-0.044254
2019-04-09T17:28:14.848914Z,0.12635,0.292178,0.9950969999999999
2019-04-09T17:28:15.055914Z,0.006335,-1.1076629999999998,-0.09434400000000001
2019-04-09T17:28:15.248914Z,0.24459099999999998,-0.792769,-0.129937
2019-04-09T17:28:15.451914Z,0.202595,0.130901,0.35895900000000003
2019-04-09T17:28:15.648914Z,0.120152,-0.091698,0.43443100000000007
2019-04-09T17:28:15.850914Z,-0.27563200000000004,-1.020453,0.042706
2019-04-09T17:28:16.052914Z,0.17130399999999998,-0.173763,-0.462797
2019-04-09T17:28:16.248914Z,0.15436,0.302073,0.7666350000000001
2019-04-09T17:28:16.450914Z,1.616126,-0.6416850000000001,0.42515299999999995
2019-04-09T17:28:16.650914Z,1.133834,-1.195975,0.118158
2019-04-09T17:28:16.849914Z,0.358693,-0.46573000000000003,0.076693
2019-04-09T17:28:17.052914Z,0.021559000000000002,0.161276,0.521151
2019-04-09T17:28:17.252914Z,0.135357,-1.273269,0.831206
2019-04-09T17:28:17.450914Z,-0.48363199999999995,-1.243698,-0.069256
2019-04-09T17:28:17.651914Z,-1.068516,-0.370469,-0.116645
2019-04-09T17:28:17.884914Z,-0.389365,0.144046,0.388729
2019-04-09T17:28:18.054914Z,0.029001999999999997,-1.1475540000000002,0.722015
2019-04-09T17:28:18.251914Z,-0.192088,-0.921703,-0.33914099999999997
2019-04-09T17:28:18.452914Z,-0.18196400000000001,0.34649,0.011629
2019-04-09T17:28:18.650914Z,-0.236637,-0.318255,1.127304
2019-04-09T17:28:18.853914Z,0.40635,-1.37252,0.210279
2019-04-09T17:28:19.052914Z,0.265413,-0.9073959999999999,-0.58765
2019-04-09T17:28:19.251914Z,-0.288622,-0.094458,0.687236
2019-04-09T17:28:19.452914Z,0.392663,-0.443562,0.446875
2019-04-09T17:28:19.652914Z,0.34084000000000003,-0.83681,-0.204005
2019-04-09T17:28:19.852914Z,-0.27326100000000003,-0.136676,0.254244
2019-04-09T17:28:20.054914Z,0.193824,-0.21279,0.60438
2019-04-09T17:28:20.252914Z,-0.12116500000000001,-1.237326,0.148259
2019-04-09T17:28:20.451914Z,0.08075299999999999,-0.723442,-0.32466799999999996
2019-04-09T17:28:20.651914Z,0.124482,0.138963,0.508831
2019-04-09T17:28:20.853914Z,-0.020804,-0.04767,0.601696
2019-04-09T17:28:21.053914Z,0.017178,-0.493072,-0.5352
2019-04-09T17:28:21.253914Z,0.21006599999999997,0.30409,-0.657775
2019-04-09T17:28:21.454914Z,-0.102805,-0.081428,0.9310780000000001
2019-04-09T17:28:21.654914Z,-0.6354069999999999,-0.9979680000000001,0.653183
2019-04-09T17:28:21.855914Z,-0.302224,-0.671689,-0.274491
2019-04-09T17:28:22.054914Z,-0.517137,0.10683800000000002,-0.209092
2019-04-09T17:28:22.254914Z,-0.11676500000000001,-0.130164,0.675349
2019-04-09T17:28:22.458914Z,0.409796,-1.0631899999999999,0.560095
2019-04-09T17:28:22.654914Z,0.269629,-0.481392,-0.274363
2019-04-09T17:28:22.855914Z,0.104468,0.561696,-0.830833
2019-04-09T17:28:23.054914Z,0.059,0.6138859999999999,0.22788000000000003
2019-04-09T17:28:23.253914Z,-0.011377,0.20205599999999999,0.555963
2019-04-09T17:28:23.459914Z,-0.346091,-0.48531899999999994,0.180845
2019-04-09T17:28:23.656914Z,-0.231221,-0.42366400000000004,-0.5173479999999999
2019-04-09T17:28:23.855914Z,-0.33016599999999996,0.128421,0.352114
2019-04-09T17:28:24.054914Z,-0.06488300000000001,-0.205905,0.6574770000000001
2019-04-09T17:28:24.255914Z,-0.8613649999999999,-1.132554,-0.13536800000000002
2019-04-09T17:28:24.485914Z,-0.33488,-0.628324,0.011999
2019-04-09T17:28:24.656914Z,-0.031705000000000004,-0.67971,0.286385
2019-04-09T17:28:24.855914Z,-0.305417,-1.347776,0.6270680000000001
2019-04-09T17:28:25.056914Z,-0.091172,-2.0007189999999997,0.295398
2019-04-09T17:28:25.256914Z,1.334183,-1.7549599999999999,0.818937
2019-04-09T17:28:25.458914Z,1.860854,-1.548036,1.300818
2019-04-09T17:28:25.658914Z,1.899088,-0.608827,0.324963
2019-04-09T17:28:25.857914Z,1.067931,0.388509,0.832257
2019-04-09T17:28:26.057914Z,1.293993,-0.574993,0.083993
2019-04-09T17:28:26.258914Z,1.208089,-0.571121,-0.293296
2019-04-09T17:28:26.457914Z,0.174621,-0.38154,-0.019266
2019-04-09T17:28:26.657914Z,-0.506632,-0.963606,0.31212199999999996
2019-04-09T17:28:26.862914Z,-0.639668,-1.527058,0.79402
2019-04-09T17:28:27.058914Z,-0.096358,-2.4283799999999998,1.068505
2019-04-09T17:28:27.262914Z,0.8266030000000001,-2.168994,1.087165
2019-04-09T17:28:27.458914Z,1.2968389999999999,-1.423317,0.591576
2019-04-09T17:28:27.665914Z,1.024515,-1.264509,0.9218700000000001
2019-04-09T17:28:27.862914Z,1.087185,-0.7532310000000001,0.45365600000000006
2019-04-09T17:28:28.059914Z,0.9895780000000001,-0.685281,0.5519890000000001
2019-04-09T17:28:28.258914Z,0.334108,-0.9929680000000001,0.346116
2019-04-09T17:28:28.460914Z,0.31435100000000005,-0.86625,0.36034
2019-04-09T17:28:28.739914Z,0.377105,-0.342304,0.21314499999999997
2019-04-09T17:28:28.861914Z,0.351378,-0.10846700000000001,0.41836599999999996
2019-04-09T17:28:29.058914Z,0.7698119999999999,-0.15578399999999998,0.42563199999999995
2019-04-09T17:28:29.258914Z,0.8311930000000001,0.083465,-0.295207
2019-04-09T17:28:29.465914Z,0.35384499999999997,0.38907800000000003,-0.07292699999999999
2019-04-09T17:28:29.660914Z,-0.0168,-0.127277,0.7200979999999999
2019-04-09T17:28:29.861914Z,0.161677,-0.8525510000000001,-0.515733
2019-04-09T17:28:30.067914Z,0.841095,-0.311717,-0.39065900000000003
2019-04-09T17:28:30.260914Z,1.1084129999999999,-0.31088499999999997,1.382773
2019-04-09T17:28:30.459914Z,1.602441,-1.489359,0.580475
2019-04-09T17:28:30.660914Z,1.856391,-0.6237020000000001,0.148411
2019-04-09T17:28:30.861914Z,0.032954000000000004,-0.243071,-0.050579
2019-04-09T17:28:31.060914Z,-0.722968,-0.37146399999999996,0.57016
2019-04-09T17:28:31.262914Z,-0.13534000000000002,-0.781361,0.20522600000000002
2019-04-09T17:28:31.460914Z,-0.315713,-0.556186,-0.244471
2019-04-09T17:28:31.661914Z,-0.709266,-0.157849,0.270431
2019-04-09T17:28:31.860914Z,-0.127966,-0.48132299999999995,1.1288690000000001
2019-04-09T17:28:32.061914Z,-0.124676,-0.785419,-0.373433
2019-04-09T17:28:32.262914Z,0.302267,-0.007629,-0.460545
2019-04-09T17:28:32.463914Z,-0.46028500000000006,0.414366,0.682295
2019-04-09T17:28:32.668914Z,-0.056351,-1.0294370000000002,0.808614
2019-04-09T17:28:32.860914Z,0.167804,-0.9743870000000001,-0.593432
2019-04-09T17:28:33.062914Z,0.307178,-0.070985,0.0056630000000000005
2019-04-09T17:28:33.262914Z,0.46864799999999995,0.312576,0.789587
2019-04-09T17:28:33.462914Z,0.709072,-1.157745,0.174986
2019-04-09T17:28:33.663914Z,0.40085,-0.389166,-0.822678
2019-04-09T17:28:33.860914Z,-0.444184,0.6921109999999999,0.792995
2019-04-09T17:28:34.062914Z,-0.32366300000000003,-0.842175,0.589588
2019-04-09T17:28:34.261914Z,0.148785,-1.307539,-0.358151
2019-04-09T17:28:34.461914Z,-0.163364,0.08636,-0.12851500000000002
2019-04-09T17:28:34.663914Z,0.16403299999999998,0.16693,1.2795219999999998
2019-04-09T17:28:34.864914Z,0.47697399999999995,-0.9278770000000001,-0.55897
2019-04-09T17:28:35.061914Z,-0.273077,0.05653300000000001,-0.6637460000000001
2019-04-09T17:28:35.262914Z,-0.671028,0.288254,0.943298
2019-04-09T17:28:35.463914Z,-1.1952129999999999,-1.27568,-0.006495
2019-04-09T17:28:35.663914Z,-0.252289,-0.8153600000000001,-0.334303
2019-04-09T17:28:35.864914Z,-0.279706,-0.183534,0.875235
2019-04-09T17:28:36.066914Z,0.524319,-0.51459,0.7766609999999999
2019-04-09T17:28:36.263914Z,-0.766915,-1.163225,-0.21109
2019-04-09T17:28:36.463914Z,-2.325205,-1.6788459999999998,0.154231
2019-04-09T17:28:36.664914Z,-1.360749,-3.247745,3.5171080000000003
2019-04-09T17:28:36.868914Z,-0.096557,-5.808095,2.7988060000000003
2019-04-09T17:28:37.065914Z,1.2070969999999999,-5.137504,2.62022
2019-04-09T17:28:37.265914Z,1.317692,-2.268555,1.511081
2019-04-09T17:28:37.465914Z,0.136708,-1.882909,1.354267
2019-04-09T17:28:37.665914Z,0.08808099999999999,-2.035005,1.38583
2019-04-09T17:28:37.864914Z,1.007248,-0.776505,0.53994
2019-04-09T17:28:38.070914Z,0.73243,-0.29357300000000003,0.837333
2019-04-09T17:28:38.268914Z,-0.0010609999999999999,-0.243792,0.277764
2019-04-09T17:28:38.469914Z,-0.560137,-1.04951,0.563321
2019-04-09T17:28:38.667914Z,-0.31357399999999996,-0.647679,0.030246
2019-04-09T17:28:38.865914Z,-0.107671,-0.142703,0.011226
2019-04-09T17:28:39.065914Z,-0.320121,0.30653800000000003,0.425179
2019-04-09T17:28:39.267914Z,0.427868,-0.808022,0.588148
2019-04-09T17:28:39.531914Z,0.243365,-0.553855,-0.524825
2019-04-09T17:28:39.666914Z,0.362175,0.619243,0.172747
2019-04-09T17:28:39.872914Z,0.19676400000000002,0.19963499999999998,0.868426
2019-04-09T17:28:40.071914Z,0.7767569999999999,-0.924059,-0.244218
2019-04-09T17:28:40.267914Z,0.347519,-0.0009130000000000001,-0.5327430000000001
2019-04-09T17:28:40.466914Z,0.056215,0.219783,0.680087
2019-04-09T17:28:40.668914Z,0.60957,-0.8718450000000001,0.95709
2019-04-09T17:28:40.908914Z,-0.152855,-0.547705,-0.9168219999999999
2019-04-09T17:28:41.067914Z,-0.5917439999999999,0.8230709999999999,1.047452
2019-04-09T17:28:41.268914Z,0.653767,-0.849409,0.668536
2019-04-09T17:28:41.469914Z,1.34764,-1.1714799999999999,-0.32271700000000003
2019-04-09T17:28:41.668914Z,1.146682,-0.012729,0.6210939999999999
2019-04-09T17:28:41.874914Z,1.1511870000000002,-0.162466,2.3022240000000003
2019-04-09T17:28:42.069914Z,1.61747,-2.0584759999999998,-0.276086
2019-04-09T17:28:42.269914Z,0.322739,-0.462661,0.6079439999999999
2019-04-09T17:28:42.468914Z,0.394822,-0.874705,1.433025
2019-04-09T17:28:42.670914Z,0.888913,-1.763266,0.21272399999999997
2019-04-09T17:28:42.872914Z,1.046983,-0.74926,1.0699020000000001
2019-04-09T17:28:43.068914Z,1.962172,-1.106848,1.515449
2019-04-09T17:28:43.269914Z,1.619006,-1.06564,0.20552199999999998
2019-04-09T17:28:43.469914Z,-0.41837700000000005,0.304578,0.459873
2019-04-09T17:28:43.668914Z,-0.010339,-0.9540790000000001,1.3339530000000002
2019-04-09T17:28:43.883914Z,0.034181,-1.2391590000000001,-0.9702620000000001
2019-04-09T17:28:44.071914Z,-0.415126,0.212981,0.813839
2019-04-09T17:28:44.270914Z,0.539871,-0.5247430000000001,1.5229190000000001
2019-04-09T17:28:44.470914Z,0.247319,-1.7574450000000001,-0.605336
2019-04-09T17:28:44.709914Z,-1.031368,-0.466794,0.277825
2019-04-09T17:28:44.870914Z,-3.073234,-1.44367,1.227428
2019-04-09T17:28:45.092914Z,-1.187992,-3.1842479999999997,0.825191
2019-04-09T17:28:45.271914Z,0.375578,-0.9431889999999999,1.1858879999999998
2019-04-09T17:28:45.471914Z,0.38771300000000003,-0.47362299999999996,0.9801030000000001
2019-04-09T17:28:45.672914Z,1.105278,-0.9371309999999999,-0.5290239999999999
2019-04-09T17:28:45.874914Z,0.49428500000000003,0.5008100000000001,0.30954699999999996
2019-04-09T17:28:46.071914Z,-0.32898499999999997,-0.264934,1.272841
2019-04-09T17:28:46.272914Z,-0.343146,-1.3041459999999998,-0.5312479999999999
2019-04-09T17:28:46.471914Z,0.558631,-0.382324,0.444601
2019-04-09T17:28:46.672914Z,1.0608959999999998,0.035411,1.101369
2019-04-09T17:28:46.873914Z,0.719591,-1.114983,-0.157424
2019-04-09T17:28:47.103914Z,0.16326,-0.049538,-0.600422
2019-04-09T17:28:47.272914Z,0.03744,0.444333,1.04965
2019-04-09T17:28:47.484914Z,0.383823,-0.9337840000000001,0.482625
2019-04-09T17:28:47.673914Z,0.421829,-0.7043560000000001,-0.7777470000000001
2019-04-09T17:28:47.874914Z,-1.0720379999999998,0.156435,0.432036
2019-04-09T17:28:48.073914Z,-1.294817,-1.445134,1.197755
2019-04-09T17:28:48.273914Z,-1.085823,-1.31894,0.263484
2019-04-09T17:28:48.473914Z,0.599108,-0.602067,0.14115899999999998
2019-04-09T17:28:48.674914Z,1.4501680000000001,0.62064,0.518687
2019-04-09T17:28:48.875914Z,0.14763199999999999,-0.132972,0.666808
2019-04-09T17:28:49.075914Z,0.8668870000000001,-1.253896,0.373531
2019-04-09T17:28:49.274914Z,0.48792700000000006,-0.270778,-0.176299
2019-04-09T17:28:49.492914Z,0.477796,0.389811,0.270363
2019-04-09T17:28:49.678914Z,0.735703,0.086017,0.46897700000000003
2019-04-09T17:28:49.874914Z,1.191363,-0.54123,-0.7110029999999999
2019-04-09T17:28:50.074914Z,0.687896,0.499406,-0.147885
2019-04-09T17:28:50.274914Z,0.429482,0.19401,1.3571229999999999
2019-04-09T17:28:50.477914Z,0.630858,-0.9819979999999999,-0.43834399999999996
2019-04-09T17:28:50.681914Z,0.149612,0.194875,-0.47349600000000003
2019-04-09T17:28:50.875914Z,0.025496,0.516636,0.7032390000000001
2019-04-09T17:28:51.074914Z,0.7527189999999999,-0.551487,-0.617872
2019-04-09T17:28:51.275914Z,-0.138271,-0.198295,-0.5324409999999999
2019-04-09T17:28:51.475914Z,-0.38860900000000004,0.360124,0.963791
2019-04-09T17:28:51.677914Z,0.404152,-1.384795,0.853001
2019-04-09T17:28:51.876914Z,0.464366,-1.059687,0.501015
2019-04-09T17:28:52.081914Z,-0.197329,-0.446762,-0.398956
2019-04-09T17:28:52.277914Z,-0.426295,-0.45407700000000006,0.8936729999999999
2019-04-09T17:28:52.479914Z,-0.481367,-1.050741,0.524768
2019-04-09T17:28:52.677914Z,0.400953,-0.445647,-0.039776
2019-04-09T17:28:52.879914Z,1.31525,0.309706,0.532977
2019-04-09T17:28:53.078914Z,0.9379149999999999,-0.299675,0.679323
2019-04-09T17:28:53.279914Z,1.7412419999999997,-0.865964,0.197403
2019-04-09T17:28:53.479914Z,1.71828,-0.328361,1.1867969999999999
2019-04-09T17:28:53.691914Z,1.604794,0.038489999999999996,-0.060325
2019-04-09T17:28:53.878914Z,1.708869,0.042573,-0.372738
2019-04-09T17:28:54.078914Z,0.7560399999999999,0.091669,0.21597199999999997
2019-04-09T17:28:54.277914Z,-0.38655100000000003,-0.21191500000000002,0.28747399999999995
2019-04-09T17:28:54.478914Z,-0.24428200000000003,-0.46315500000000004,-0.32659699999999997
2019-04-09T17:28:54.683914Z,-0.364571,0.27269099999999996,-0.7199180000000001
2019-04-09T17:28:54.880914Z,0.10190700000000001,0.285637,0.620791
2019-04-09T17:28:55.082914Z,0.75465,-0.849635,0.485285
2019-04-09T17:28:55.278914Z,0.055178,-0.41107899999999997,-0.46434
2019-04-09T17:28:55.479914Z,-0.222665,0.763941,0.032513
2019-04-09T17:28:55.680914Z,-0.512278,0.50962,0.696365
2019-04-09T17:28:55.880914Z,-2.0440959999999997,-1.193704,0.064947
2019-04-09T17:28:56.080914Z,-0.6949890000000001,-0.647133,-0.09992000000000001
2019-04-09T17:28:56.281914Z,0.5470510000000001,0.517462,0.699159
2019-04-09T17:28:56.481914Z,0.10192799999999999,-0.750681,0.792095
2019-04-09T17:28:56.680914Z,-0.510124,-0.44012799999999996,-0.466905
2019-04-09T17:28:56.881914Z,0.5760149999999999,0.609364,-0.511356
2019-04-09T17:28:57.082914Z,-0.250456,0.577743,0.4753
2019-04-09T17:28:57.283914Z,0.403505,-0.9939049999999999,0.9488540000000001
2019-04-09T17:28:57.479914Z,0.127058,-0.390852,-1.080188
2019-04-09T17:28:57.680914Z,-0.38074,0.5037729999999999,0.497733
2019-04-09T17:28:57.882914Z,0.44241499999999995,-0.23953000000000002,0.7813220000000001
2019-04-09T17:28:58.083914Z,0.165995,-0.974407,0.016567
2019-04-09T17:28:58.282914Z,-0.494546,-0.069024,-1.184549
2019-04-09T17:28:58.483914Z,-2.1293830000000002,0.614953,0.25897
2019-04-09T17:28:58.709914Z,-1.880743,-2.331459,1.1543709999999998
2019-04-09T17:28:58.881914Z,0.145455,-0.7709010000000001,-0.148894
2019-04-09T17:28:59.083914Z,0.174201,0.419281,0.49149799999999993
2019-04-09T17:28:59.285914Z,0.5955010000000001,0.613544,0.969831
2019-04-09T17:28:59.483914Z,1.091067,-0.8449979999999999,0.21281
2019-04-09T17:28:59.688914Z,1.36275,-0.287767,-0.753973
2019-04-09T17:28:59.881914Z,-0.502229,0.975511,0.024288999999999998
2019-04-09T17:29:00.088914Z,0.217388,0.159243,0.643833
2019-04-09T17:29:00.282914Z,0.753633,-0.7488060000000001,-0.713543
2019-04-09T17:29:00.482914Z,0.591938,-0.286196,0.354265
2019-04-09T17:29:00.684914Z,0.699206,0.47616800000000004,1.195125
2019-04-09T17:29:00.882914Z,1.658781,-0.9778319999999999,-0.08847999999999999
2019-04-09T17:29:01.082914Z,0.552928,0.170703,-1.152575
2019-04-09T17:29:01.284914Z,0.11923299999999999,0.708517,0.9978940000000001
2019-04-09T17:29:01.483914Z,0.220374,-0.563334,0.637621
2019-04-09T17:29:01.684914Z,0.596808,-0.668726,-0.595852
2019-04-09T17:29:01.888914Z,0.514223,0.28426399999999996,0.043458
2019-04-09T17:29:02.086914Z,0.7245699999999999,0.459183,1.214544
2019-04-09T17:29:02.283914Z,1.155852,-0.783194,-0.545003
2019-04-09T17:29:02.483914Z,0.518795,0.247691,-0.749371
2019-04-09T17:29:02.685914Z,0.383552,0.9560850000000001,0.449812
2019-04-09T17:29:02.884914Z,-0.473188,-0.7166060000000001,0.6280399999999999
2019-04-09T17:29:03.085914Z,0.114168,-0.751409,-0.37453000000000003
2019-04-09T17:29:03.284914Z,-0.153102,0.5188689999999999,0.118681
2019-04-09T17:29:03.486914Z,0.578044,0.036494,0.695583
2019-04-09T17:29:03.684914Z,1.073336,-0.775104,-0.47125200000000006
2019-04-09T17:29:03.886914Z,0.308229,0.622648,-0.146814
2019-04-09T17:29:04.085914Z,0.409605,0.09893400000000001,1.455555
2019-04-09T17:29:04.287914Z,0.858193,-1.07708,-0.358797
2019-04-09T17:29:04.485914Z,-0.638075,-0.104342,-1.010394
2019-04-09T17:29:04.686914Z,-0.729456,0.605743,0.819651
2019-04-09T17:29:04.885914Z,-0.205341,-1.1155389999999998,0.507627
2019-04-09T17:29:05.085914Z,-0.11788499999999999,-0.876974,-1.7013880000000001
2019-04-09T17:29:05.286914Z,-1.7298060000000002,-0.213482,0.720909
2019-04-09T17:29:05.515914Z,-1.6834259999999999,-2.8837599999999997,2.095618
2019-04-09T17:29:05.690914Z,-0.9703930000000001,-2.496674,0.667139
2019-04-09T17:29:05.887914Z,0.078152,-2.425668,1.665927
2019-04-09T17:29:06.087914Z,0.33467399999999997,-1.472806,1.1359540000000001
2019-04-09T17:29:06.288914Z,0.9561280000000001,-0.526458,0.7794979999999999
2019-04-09T17:29:06.488914Z,1.890579,-0.8871979999999999,1.141285
2019-04-09T17:29:06.691914Z,1.209306,-0.512843,0.47188900000000006
2019-04-09T17:29:06.890914Z,1.380148,-0.299589,0.614915
2019-04-09T17:29:07.087914Z,0.131043,0.667338,0.866102
2019-04-09T17:29:07.287914Z,0.330911,-1.247372,-0.161946
2019-04-09T17:29:07.489914Z,0.6377229999999999,-0.244761,-0.411434
2019-04-09T17:29:07.687914Z,0.436308,-0.129978,1.097599
2019-04-09T17:29:07.889914Z,1.618103,-0.749054,0.917743
2019-04-09T17:29:08.088914Z,1.41117,-0.794786,-0.064973
2019-04-09T17:29:08.308914Z,0.830208,0.04775,0.704976
2019-04-09T17:29:08.489914Z,1.614164,-1.0993030000000001,1.523694
2019-04-09T17:29:08.691914Z,2.008639,-0.331406,0.159114
2019-04-09T17:29:08.892914Z,0.918947,-0.77822,0.136889
2019-04-09T17:29:09.088914Z,0.574477,-0.7021569999999999,1.6763259999999998
2019-04-09T17:29:09.290914Z,-0.154197,-1.407634,0.1424
2019-04-09T17:29:09.490914Z,0.42946599999999996,-0.565385,0.078568
2019-04-09T17:29:09.688914Z,0.385853,-0.046644,0.128206
2019-04-09T17:29:09.891914Z,-0.70339,-0.37866,0.557395
2019-04-09T17:29:10.090914Z,0.08782899999999999,-0.588817,0.08456
2019-04-09T17:29:10.290914Z,-0.26556399999999997,0.195801,-0.311986
2019-04-09T17:29:10.490914Z,-0.356758,0.519508,0.331862
2019-04-09T17:29:10.691914Z,0.028100999999999998,-0.55279,0.46260500000000004
2019-04-09T17:29:10.890914Z,0.58013,-0.9567829999999999,-0.097096
2019-04-09T17:29:11.153914Z,0.22014,-0.488008,-0.211966
2019-04-09T17:29:11.290914Z,-0.762675,0.086158,0.555556
2019-04-09T17:29:11.516914Z,-1.187138,-1.004048,0.6794060000000001
2019-04-09T17:29:11.691914Z,-1.045491,-0.80705,0.5183300000000001
2019-04-09T17:29:11.892914Z,0.002049,-0.5775859999999999,0.144533
2019-04-09T17:29:12.092914Z,0.028517,0.284895,-0.04192
2019-04-09T17:29:12.292914Z,0.202271,0.8908709999999999,-0.283004
2019-04-09T17:29:12.493914Z,0.6897840000000001,-0.15791,0.6268739999999999
2019-04-09T17:29:12.695914Z,0.782458,-1.010226,-0.164327
2019-04-09T17:29:12.894914Z,0.6750729999999999,-0.21009099999999997,-0.258657
2019-04-09T17:29:13.100914Z,-0.388391,-0.428892,0.376398
2019-04-09T17:29:13.293914Z,-1.091905,-0.645504,0.810419
2019-04-09T17:29:13.493914Z,-0.8772409999999999,-1.50566,0.13462000000000002
2019-04-09T17:29:13.693914Z,0.194731,-0.332937,0.408229
2019-04-09T17:29:13.894914Z,0.45404300000000003,0.356118,0.14183800000000002
2019-04-09T17:29:14.094914Z,0.710757,-0.032148,1.310835
2019-04-09T17:29:14.294914Z,1.651807,-1.011915,0.004425
2019-04-09T17:29:14.505914Z,0.758637,0.589544,-1.050778
2019-04-09T17:29:14.694914Z,0.760668,0.546981,0.575055
2019-04-09T17:29:14.893914Z,0.991373,-0.633212,0.763109
2019-04-09T17:29:15.093914Z,0.86666,-1.242048,-0.132157
2019-04-09T17:29:15.295914Z,0.782601,-0.11472,0.43642600000000004
2019-04-09T17:29:15.546914Z,1.337261,-0.399001,0.697605
2019-04-09T17:29:15.695914Z,1.650249,-0.7551899999999999,-0.140018
2019-04-09T17:29:15.908914Z,1.529347,-0.101904,-0.203684
2019-04-09T17:29:16.094914Z,0.9724430000000001,-0.028592000000000003,1.033212
2019-04-09T17:29:16.296914Z,1.1519469999999998,-1.088681,0.40157
2019-04-09T17:29:16.494914Z,0.700091,-0.221138,-0.179038
2019-04-09T17:29:16.695914Z,0.13313599999999998,0.10027799999999999,0.41892299999999993
2019-04-09T17:29:16.898914Z,0.327881,-0.433659,0.9481120000000001
2019-04-09T17:29:17.095914Z,1.119235,-1.226583,-0.124096
2019-04-09T17:29:17.298914Z,0.559199,-0.376176,0.038776
2019-04-09T17:29:17.496914Z,0.6595489999999999,-0.68121,0.964218
2019-04-09T17:29:17.696914Z,1.600466,-1.8902709999999998,0.9125200000000001
2019-04-09T17:29:17.896914Z,1.065959,-1.200943,0.21131
2019-04-09T17:29:18.097914Z,-0.8296629999999999,-0.902223,1.314975
2019-04-09T17:29:18.297914Z,-0.171875,-0.5818,0.555901
2019-04-09T17:29:18.497914Z,-0.504995,-1.552758,0.36197399999999996
2019-04-09T17:29:18.702914Z,-1.250675,-0.466816,-0.45104099999999997
2019-04-09T17:29:18.897914Z,-1.102277,-0.8028,0.988366
2019-04-09T17:29:19.096914Z,-0.8609020000000001,-1.167881,0.12034500000000001
2019-04-09T17:29:19.297914Z,-0.805938,-0.556543,0.108078
2019-04-09T17:29:19.500914Z,-0.176102,3.6e-05,0.29435500000000003
2019-04-09T17:29:19.699914Z,0.218906,0.215214,0.23118899999999998
2019-04-09T17:29:19.899914Z,0.182446,-0.9486370000000001,0.637043
2019-04-09T17:29:20.097914Z,0.050200999999999996,-0.416867,-0.11306300000000001
2019-04-09T17:29:20.306914Z,-0.202729,0.132894,-0.252573
2019-04-09T17:29:20.498914Z,-0.9644389999999999,-0.068116,0.312842
2019-04-09T17:29:20.698914Z,-1.59107,-1.331706,0.201159
2019-04-09T17:29:20.899914Z,-0.561326,-0.783782,0.47910600000000003
2019-04-09T17:29:21.098914Z,0.8847219999999999,-0.488142,0.338827
2019-04-09T17:29:21.299914Z,1.395734,-0.123722,0.6655409999999999
2019-04-09T17:29:21.500914Z,1.627939,-0.544714,0.41039200000000003
2019-04-09T17:29:21.699914Z,1.58542,-0.06801900000000001,-0.611988
2019-04-09T17:29:21.898914Z,1.482785,0.546908,0.584236
2019-04-09T17:29:22.099914Z,1.1542,-0.9522299999999999,1.464136
2019-04-09T17:29:22.300914Z,0.514,-0.617219,-0.38456799999999997
2019-04-09T17:29:22.499914Z,0.27370300000000003,0.29116,-0.023739
2019-04-09T17:29:22.700914Z,0.345404,-0.131004,0.6481319999999999
2019-04-09T17:29:22.900914Z,0.36806500000000003,-0.9607889999999999,0.129131
2019-04-09T17:29:23.102914Z,-0.039254000000000004,-0.6967,0.13850099999999999
2019-04-09T17:29:23.302914Z,0.054013,-0.580033,0.676284
2019-04-09T17:29:23.500914Z,0.014157,-0.989714,0.31913600000000003
2019-04-09T17:29:23.704914Z,-0.084725,-0.419508,0.078682
2019-04-09T17:29:23.902914Z,0.12380799999999999,-0.241317,0.260743
2019-04-09T17:29:24.101914Z,0.385999,-0.079389,-0.036177
2019-04-09T17:29:24.302914Z,0.073466,-0.038294999999999996,-0.009287
2019-04-09T17:29:24.499914Z,-0.029788,-0.442475,0.463371
2019-04-09T17:29:24.701914Z,0.9460059999999999,-1.012953,0.5158
2019-04-09T17:29:24.902914Z,0.5016520000000001,-0.6701729999999999,-0.098413
2019-04-09T17:29:25.101914Z,0.7483449999999999,-0.26088,0.329801
2019-04-09T17:29:25.305914Z,0.31844,-0.32574000000000003,0.65245
2019-04-09T17:29:25.504914Z,0.22598200000000002,-1.406188,0.678759
2019-04-09T17:29:25.703914Z,0.6651279999999999,-1.575934,0.39881500000000003
2019-04-09T17:29:25.982914Z,0.285734,-0.655213,0.335889
2019-04-09T17:29:26.101914Z,-0.247527,-0.499295,1.0147540000000002
2019-04-09T17:29:26.302914Z,0.49777200000000005,-1.59906,1.033908
2019-04-09T17:29:26.503914Z,0.5822229999999999,-1.1419780000000002,0.08415
2019-04-09T17:29:26.704914Z,0.05811,-0.437954,-0.113153
2019-04-09T17:29:26.904914Z,0.386513,-0.09825700000000001,0.200985
2019-04-09T17:29:27.103914Z,0.12601099999999998,-0.073777,0.247525
2019-04-09T17:29:27.304914Z,0.140722,-0.858153,0.540089
2019-04-09T17:29:27.505914Z,-0.190718,-1.239706,0.25513600000000003
2019-04-09T17:29:27.703914Z,0.016918,-1.019283,0.26907800000000004
2019-04-09T17:29:27.908914Z,-0.147867,-0.817732,0.611962
2019-04-09T17:29:28.104914Z,-0.143763,-0.752398,0.542962
2019-04-09T17:29:28.304914Z,-0.371954,-0.7643260000000001,0.100765
2019-04-09T17:29:28.503914Z,-0.871143,-0.26704,0.076073
2019-04-09T17:29:28.705914Z,-0.283804,-0.446766,-0.297234
2019-04-09T17:29:28.904914Z,0.699577,0.408071,0.48360299999999995
2019-04-09T17:29:29.106914Z,1.015174,-0.11243800000000001,0.621103
2019-04-09T17:29:29.306914Z,1.095208,0.104996,-0.51808
2019-04-09T17:29:29.506914Z,0.5452239999999999,0.20722600000000002,-0.266832
2019-04-09T17:29:29.707914Z,0.5399609999999999,0.508596,0.070999
2019-04-09T17:29:29.906914Z,-0.297674,0.147397,0.5583020000000001
2019-04-09T17:29:30.105914Z,-0.234675,-0.281131,-0.815682
2019-04-09T17:29:30.305914Z,-0.358672,-0.246402,0.11101199999999999
2019-04-09T17:29:30.505914Z,-0.118002,-0.060654,0.49218
2019-04-09T17:29:30.708914Z,0.135755,-0.9740479999999999,0.722245
2019-04-09T17:29:30.905914Z,0.380677,-0.395592,-0.266464
2019-04-09T17:29:31.113914Z,-0.852852,-0.168207,-0.128958
2019-04-09T17:29:31.308914Z,-0.65027,-0.706615,0.814059
2019-04-09T17:29:31.506914Z,-0.5880449999999999,-1.474202,0.260921
2019-04-09T17:29:31.708914Z,0.621947,-0.687048,0.564416
2019-04-09T17:29:31.908914Z,0.897265,-0.261292,0.317267
2019-04-09T17:29:32.107914Z,0.923383,0.011724,0.417832
2019-04-09T17:29:32.309914Z,1.16547,-0.58412,0.301529
2019-04-09T17:29:32.541914Z,0.275957,0.0626,-0.760401
2019-04-09T17:29:32.708914Z,-0.485199,-0.33117199999999997,0.525694
2019-04-09T17:29:32.912914Z,-0.545471,-1.616368,0.883926
2019-04-09T17:29:33.107914Z,-0.561471,-3.1454150000000003,1.057875
2019-04-09T17:29:33.308914Z,-0.203009,-2.458225,1.0496299999999998
2019-04-09T17:29:33.509914Z,0.738213,-1.576692,1.510499
2019-04-09T17:29:33.710914Z,1.036586,-1.3151110000000001,0.258797
2019-04-09T17:29:33.909914Z,0.450773,-0.45804799999999996,0.615021
2019-04-09T17:29:34.110914Z,0.668674,-0.9701860000000001,1.195491
2019-04-09T17:29:34.312914Z,0.96593,-0.511391,-0.452099
2019-04-09T17:29:34.520914Z,0.377247,-0.42087600000000003,0.520346
2019-04-09T17:29:34.709914Z,-0.063627,-0.950953,0.8097449999999999
2019-04-09T17:29:34.911914Z,0.158762,-0.9160010000000001,-0.0015300000000000001
2019-04-09T17:29:35.110914Z,-0.226412,-0.311553,0.07116
2019-04-09T17:29:35.309914Z,0.420944,-0.390327,0.580923
2019-04-09T17:29:35.511914Z,0.634692,-1.226,0.80975
2019-04-09T17:29:35.709914Z,-0.24070100000000003,-1.041687,0.208686
2019-04-09T17:29:35.911914Z,-0.589743,-0.37299899999999997,0.33507
2019-04-09T17:29:36.110914Z,-0.749532,-0.749491,0.048424
2019-04-09T17:29:36.312914Z,0.267492,-0.736379,0.196352
2019-04-09T17:29:36.512914Z,1.985626,0.052409000000000004,0.26843
2019-04-09T17:29:36.711914Z,-0.734924,0.236409,0.14215
2019-04-09T17:29:36.911914Z,0.013441,0.610036,-0.21702399999999997
2019-04-09T17:29:37.110914Z,0.573239,0.223818,0.319344
2019-04-09T17:29:37.312914Z,0.670773,-0.40331,0.349165
2019-04-09T17:29:37.512914Z,0.968894,-0.036213999999999996,-0.678461
2019-04-09T17:29:37.710914Z,0.809146,-0.26706599999999997,0.936931
2019-04-09T17:29:37.916914Z,0.35041700000000003,-0.308165,-0.253198
2019-04-09T17:29:38.111914Z,-1.367233,-0.7854270000000001,0.023709
2019-04-09T17:29:38.313914Z,-1.551182,-1.969614,1.116482
2019-04-09T17:29:38.513914Z,0.089391,-1.341652,0.794462
2019-04-09T17:29:38.713914Z,0.643569,-1.091488,0.6203350000000001
2019-04-09T17:29:38.917914Z,0.871662,-0.331175,0.155305
2019-04-09T17:29:39.116914Z,0.834684,0.399581,0.48058500000000004
2019-04-09T17:29:39.332914Z,1.5872950000000001,-0.682207,0.7750060000000001
2019-04-09T17:29:39.513914Z,1.5157450000000001,-0.920259,-0.41238500000000006
2019-04-09T17:29:39.714914Z,0.749351,-0.114808,-0.115656
2019-04-09T17:29:39.913914Z,1.022764,0.5871890000000001,-0.298352
2019-04-09T17:29:40.112914Z,1.060645,0.094915,-0.04677
2019-04-09T17:29:40.317914Z,1.412542,-0.43978900000000004,0.600741
2019-04-09T17:29:40.513914Z,0.643926,-0.860266,0.008355
2019-04-09T17:29:40.718914Z,0.6830390000000001,0.05411900000000001,-0.262229
2019-04-09T17:29:40.914914Z,1.037266,-0.204415,0.694808
2019-04-09T17:29:41.113914Z,1.319663,-1.070759,0.705685
2019-04-09T17:29:41.314914Z,0.87311,-0.9793299999999999,-0.041347
2019-04-09T17:29:41.515914Z,1.4097,0.085501,0.349521
2019-04-09T17:29:41.715914Z,-2.183842,-1.536115,0.316394
2019-04-09T17:29:41.916914Z,-1.0306899999999999,0.297923,-0.101358
2019-04-09T17:29:42.115914Z,0.33686,-0.119925,1.3351950000000001
2019-04-09T17:29:42.316914Z,0.015401,-0.763841,0.07219199999999999
2019-04-09T17:29:42.516914Z,0.12677,-0.6197020000000001,0.089067
2019-04-09T17:29:42.714914Z,-0.146222,-0.23569299999999999,-0.01411
2019-04-09T17:29:42.940914Z,0.242323,-0.051289999999999995,-0.276912
2019-04-09T17:29:43.119914Z,0.563299,-0.16423900000000002,0.138816
2019-04-09T17:29:43.315914Z,0.658651,-0.8436020000000001,1.154557
2019-04-09T17:29:43.516914Z,0.853468,-0.7420220000000001,0.08366599999999999
2019-04-09T17:29:43.716914Z,0.20557199999999998,-0.479383,0.033735
2019-04-09T17:29:43.916914Z,-0.46464799999999995,-0.17524800000000001,-0.083813
2019-04-09T17:29:44.118914Z,0.066143,0.298374,0.063622
2019-04-09T17:29:44.315914Z,0.10616800000000001,-1.105313,0.813805
2019-04-09T17:29:44.517914Z,-0.354362,-1.603199,0.5732229999999999
2019-04-09T17:29:44.718914Z,-0.275903,-0.694846,0.125217
2019-04-09T17:29:44.932914Z,-0.264092,-0.300929,0.509871
2019-04-09T17:29:45.118914Z,-0.12864,-0.47565799999999997,0.897559
2019-04-09T17:29:45.319914Z,0.259897,-1.322084,0.015619999999999998
2019-04-09T17:29:45.517914Z,0.23130599999999998,-0.655647,-0.024158000000000002
2019-04-09T17:29:45.765914Z,-0.046058999999999996,-0.033158,-0.126222
2019-04-09T17:29:45.919914Z,-1.126596,0.072237,0.46294300000000005
2019-04-09T17:29:46.118914Z,-0.656601,-0.937637,0.617421
2019-04-09T17:29:46.318914Z,-1.3584200000000002,-2.301291,0.581329
2019-04-09T17:29:46.518914Z,-1.252199,-1.623356,1.010842
2019-04-09T17:29:46.719914Z,-0.003887,-2.274336,1.324729
2019-04-09T17:29:46.918914Z,1.2689059999999999,-1.073623,0.6612140000000001
2019-04-09T17:29:47.119914Z,1.4639739999999999,-0.831,0.15069100000000002
2019-04-09T17:29:47.320914Z,1.269764,-0.8581290000000001,0.421112
2019-04-09T17:29:47.520914Z,1.37739,-0.206711,0.302773
2019-04-09T17:29:47.740914Z,1.343898,0.078037,0.294164
2019-04-09T17:29:47.918914Z,1.128931,0.408835,-0.15822
2019-04-09T17:29:48.119914Z,1.124673,-0.034605000000000004,0.43993999999999994
2019-04-09T17:29:48.320914Z,1.151506,-0.791837,0.279454
2019-04-09T17:29:48.520914Z,0.920667,-0.184666,-0.278105
2019-04-09T17:29:48.720914Z,0.33986500000000003,0.471617,-0.067687
2019-04-09T17:29:48.920914Z,0.335096,0.030804,0.519928
2019-04-09T17:29:49.120914Z,0.47382799999999997,-0.369323,0.537333
2019-04-09T17:29:49.322914Z,0.528438,-0.600599,-0.08278300000000001
2019-04-09T17:29:49.521914Z,0.276258,-0.168715,-0.23756599999999997
2019-04-09T17:29:49.724914Z,0.19375499999999998,0.337742,-0.1716
2019-04-09T17:29:49.922914Z,0.36591999999999997,0.196974,0.29990300000000003
2019-04-09T17:29:50.122914Z,0.17001,-0.340991,0.199019
2019-04-09T17:29:50.348914Z,0.116646,-0.172327,-0.177412
2019-04-09T17:29:50.520914Z,0.694999,-0.059978,0.021796
2019-04-09T17:29:50.735914Z,1.925512,-0.308419,0.68187
2019-04-09T17:29:50.923914Z,2.3025029999999997,-1.783077,1.219254
2019-04-09T17:29:51.122914Z,1.245435,-2.307032,0.529864
2019-04-09T17:29:51.321914Z,-0.135183,-1.208583,0.715952
2019-04-09T17:29:51.521914Z,-0.8323139999999999,-0.9071969999999999,1.0169700000000002
2019-04-09T17:29:51.723914Z,-1.093446,-1.162296,0.693243
2019-04-09T17:29:51.924914Z,-0.865766,-0.531324,-0.012041
2019-04-09T17:29:52.122914Z,-0.550279,-0.536041,-0.267831
2019-04-09T17:29:52.323914Z,-0.9399620000000001,-0.160342,0.760578
2019-04-09T17:29:52.523914Z,-1.033882,-1.2035360000000002,1.120206
2019-04-09T17:29:52.725914Z,-0.505564,-1.201684,-0.049567
2019-04-09T17:29:52.924914Z,-0.26085,-1.152542,0.691936
2019-04-09T17:29:53.124914Z,0.364119,-0.66568,0.6225189999999999
2019-04-09T17:29:53.323914Z,0.61157,-0.118478,0.0017739999999999998
2019-04-09T17:29:53.523914Z,0.44064899999999996,0.20807399999999998,-0.004079999999999999
2019-04-09T17:29:53.722914Z,0.968424,-0.100576,0.291265
2019-04-09T17:29:53.924914Z,0.224919,-0.825376,-0.051849
2019-04-09T17:29:54.124914Z,0.472671,-0.15646,-0.079329
2019-04-09T17:29:54.327914Z,0.491846,0.415282,-0.302899
2019-04-09T17:29:54.535914Z,-0.565641,0.257442,0.45221000000000006
2019-04-09T17:29:54.724914Z,-0.7009770000000001,-0.45286899999999997,0.571054
2019-04-09T17:29:54.924914Z,-0.155499,-1.402301,0.165703
2019-04-09T17:29:55.124914Z,-0.46535600000000005,-0.737753,0.30626
2019-04-09T17:29:55.327914Z,0.100708,-0.167903,-0.358002
2019-04-09T17:29:55.526914Z,0.32750999999999997,-0.025845999999999997,0.82363
2019-04-09T17:29:55.726914Z,0.05972,-0.435349,0.381589
2019-04-09T17:29:55.926914Z,-0.092165,-1.7482849999999999,0.8309489999999999
2019-04-09T17:29:56.125914Z,0.322556,-1.297727,0.108423
2019-04-09T17:29:56.324914Z,-0.385092,-1.428523,1.0280040000000001
2019-04-09T17:29:56.526914Z,0.098319,-2.668917,1.7911689999999998
2019-04-09T17:29:56.728914Z,-0.588442,-2.6484389999999998,0.8399110000000001
2019-04-09T17:29:56.926914Z,0.8022560000000001,-2.544254,1.341906
2019-04-09T17:29:57.127914Z,1.8397240000000001,-0.9191,0.8949
2019-04-09T17:29:57.326914Z,1.2409459999999999,-0.100163,0.045926
2019-04-09T17:29:57.528914Z,0.179798,-1.083716,0.955635
2019-04-09T17:29:57.727914Z,0.622414,-1.306861,0.33171
2019-04-09T17:29:57.928914Z,0.47889,-0.312515,-0.043601999999999995
2019-04-09T17:29:58.130914Z,0.493058,0.171067,0.0061909999999999995
2019-04-09T17:29:58.333914Z,0.822069,-0.11462699999999999,0.8060430000000001
2019-04-09T17:29:58.527914Z,0.316929,-1.07276,0.386002
2019-04-09T17:29:58.727914Z,0.580992,-0.016375999999999998,-0.608247
2019-04-09T17:29:58.930914Z,-0.07086100000000001,-0.540429,0.589363
2019-04-09T17:29:59.130914Z,-0.266221,-0.955426,0.091239
2019-04-09T17:29:59.329914Z,0.335226,-0.620301,0.44436099999999995
2019-04-09T17:29:59.529914Z,0.141957,-0.254891,0.610639
2019-04-09T17:29:59.728914Z,0.12707100000000002,-0.574142,0.508205
2019-04-09T17:29:59.930914Z,0.538732,-0.634084,0.100428
2019-04-09T17:30:00.129914Z,-0.053144000000000004,-0.557412,0.7046
2019-04-09T17:30:00.329914Z,-0.143785,-0.50943,0.119104
2019-04-09T17:30:00.532914Z,0.809388,-0.8178979999999999,-0.073424
2019-04-09T17:30:00.730914Z,0.994326,0.022413,0.518443
2019-04-09T17:30:00.932914Z,-0.023836000000000003,-0.06991499999999999,0.157427
2019-04-09T17:30:01.129914Z,-0.188572,-0.45164399999999993,0.103655
2019-04-09T17:30:01.331914Z,-0.31061700000000003,-0.948558,0.07846
2019-04-09T17:30:01.531914Z,0.032143,-0.440479,-0.248746
2019-04-09T17:30:01.732914Z,0.026364,-0.34433800000000003,0.46101899999999996
2019-04-09T17:30:01.931914Z,0.139295,-0.23099499999999998,-0.156908
2019-04-09T17:30:02.131914Z,-0.056239,-0.088619,0.195915
2019-04-09T17:30:02.329914Z,-0.34310300000000005,-0.17538,-0.070214
2019-04-09T17:30:02.530914Z,-0.66083,-0.306342,0.083821
2019-04-09T17:30:02.732914Z,-0.205564,-0.17966300000000002,0.008532
2019-04-09T17:30:02.930914Z,1.221722,-0.367188,0.283111
2019-04-09T17:30:03.130914Z,1.348849,-0.20523000000000002,0.36904699999999996
2019-04-09T17:30:03.334914Z,1.341702,0.25478,-0.252645
2019-04-09T17:30:03.532914Z,0.6128399999999999,0.481059,-0.660246
2019-04-09T17:30:03.733914Z,0.785031,0.631786,0.32008600000000004
2019-04-09T17:30:03.932914Z,0.684515,-0.46652899999999997,0.729532
2019-04-09T17:30:04.132914Z,0.524119,-0.324766,-0.40838800000000003
2019-04-09T17:30:04.331914Z,0.27623400000000004,0.009269,-0.21419000000000002
2019-04-09T17:30:04.531914Z,0.817879,0.150172,0.447738
2019-04-09T17:30:04.732914Z,0.840909,-0.35729299999999997,0.566503
2019-04-09T17:30:04.932914Z,0.710599,-0.295702,-0.34174499999999997
2019-04-09T17:30:05.133914Z,0.37097800000000003,0.303735,-0.507907
2019-04-09T17:30:05.334914Z,-0.525308,-0.255291,0.395104
2019-04-09T17:30:05.532914Z,-0.123128,-0.320995,0.306642
2019-04-09T17:30:05.735914Z,0.129695,0.04415,-0.14463299999999998
2019-04-09T17:30:05.932914Z,0.383338,0.022491999999999998,0.37030100000000005
2019-04-09T17:30:06.137914Z,0.299076,0.109581,0.1506
2019-04-09T17:30:06.335914Z,0.12596400000000002,-0.10322200000000001,0.44361999999999996
2019-04-09T17:30:06.537914Z,0.354526,-0.293526,-0.465413
2019-04-09T17:30:06.736914Z,0.47731,0.106267,-0.342762
2019-04-09T17:30:06.935914Z,0.542207,0.29228200000000004,-0.6694760000000001
2019-04-09T17:30:07.135914Z,0.380855,0.8230780000000001,-0.007415000000000001
2019-04-09T17:30:07.334914Z,1.0183870000000002,0.412109,0.095547
2019-04-09T17:30:07.533914Z,0.8914200000000001,-0.8473860000000001,1.047878
2019-04-09T17:30:07.734914Z,1.572921,-0.9825520000000001,0.989554
2019-04-09T17:30:07.936914Z,0.997924,-0.667736,-0.07619
2019-04-09T17:30:08.136914Z,-0.19101700000000002,-0.46659300000000004,-0.155317
2019-04-09T17:30:08.336914Z,-0.402032,-0.405478,1.2531139999999998
2019-04-09T17:30:08.539914Z,0.237921,-1.7226279999999998,0.561244
2019-04-09T17:30:08.736914Z,0.13491,-0.947981,-0.311756
2019-04-09T17:30:08.939914Z,0.289335,0.11883599999999998,-0.372605
2019-04-09T17:30:09.135914Z,-0.33473200000000003,-0.03507,0.8547629999999999
2019-04-09T17:30:09.337914Z,0.063069,-1.6357979999999999,1.206534
2019-04-09T17:30:09.536914Z,-0.068297,-2.287719,0.870202
2019-04-09T17:30:09.736914Z,0.22239299999999998,-0.589625,0.350485
2019-04-09T17:30:09.935914Z,0.16779000000000002,-0.18123699999999998,0.5135310000000001
2019-04-09T17:30:10.137914Z,-0.14790799999999998,-0.712579,0.190372
2019-04-09T17:30:10.338914Z,0.773483,-0.881152,0.278889
2019-04-09T17:30:10.560914Z,-0.277088,-0.430287,-0.448147
2019-04-09T17:30:10.738914Z,-0.44865900000000003,-0.055628,0.014348
2019-04-09T17:30:10.950914Z,-0.439187,-0.216883,0.20110699999999998
2019-04-09T17:30:11.137914Z,-0.451905,-0.564695,0.723795
2019-04-09T17:30:11.339914Z,-0.618976,-0.843584,-0.186751
2019-04-09T17:30:11.538914Z,-1.17159,-0.605869,-0.011152
2019-04-09T17:30:11.738914Z,-0.375342,0.034561,0.311729
2019-04-09T17:30:11.939914Z,0.507574,0.26442,0.401572
2019-04-09T17:30:12.139914Z,0.9346540000000001,-0.6094229999999999,-0.150162
