Datetime,accx,accy,accz
2019-03-21T19:20:56.277863Z,0.0,0.0,0.0
2019-03-21T19:20:56.379863Z,-0.248745,0.22635500000000003,-0.665587
2019-03-21T19:20:56.674863Z,-0.444572,0.8505809999999999,0.15748099999999998
2019-03-21T19:20:56.780863Z,-0.328964,-0.3262,-0.516885
2019-03-21T19:20:57.022863Z,1.213195,-0.283966,0.7420939999999999
2019-03-21T19:20:57.307863Z,1.434998,-0.6827409999999999,-0.12678399999999998
2019-03-21T19:20:57.507863Z,1.435452,0.320106,1.225041
2019-03-21T19:20:57.708863Z,0.130177,-0.56362,0.741873
2019-03-21T19:20:57.909863Z,0.196471,-2.375221,-0.8715040000000001
2019-03-21T19:20:58.109863Z,0.8645010000000001,-2.294233,0.69275
2019-03-21T19:20:58.310863Z,0.729433,-1.552825,1.5096889999999998
2019-03-21T19:20:58.511863Z,0.394939,-1.380448,0.9409
2019-03-21T19:20:58.710863Z,-0.30275799999999997,-1.220882,0.8341780000000001
2019-03-21T19:20:58.911863Z,0.567096,-1.448647,1.4080190000000001
2019-03-21T19:20:59.112863Z,0.032685000000000006,-0.6062029999999999,0.14724600000000002
2019-03-21T19:20:59.314863Z,0.40824299999999997,-0.6368159999999999,-0.296629
2019-03-21T19:20:59.528863Z,-0.08392999999999999,-1.258745,2.342014
2019-03-21T19:20:59.727863Z,0.04214,-2.217515,0.7672
2019-03-21T19:20:59.914863Z,-0.253958,-1.111972,-0.423095
2019-03-21T19:21:00.115863Z,0.016485,-0.40610300000000005,-0.736236
2019-03-21T19:21:00.316863Z,-0.070876,0.054717999999999996,0.135784
2019-03-21T19:21:00.516863Z,0.19304300000000002,-1.480712,1.5058209999999999
2019-03-21T19:21:00.718863Z,1.08755,-1.211156,0.445549
2019-03-21T19:21:00.919863Z,1.011141,-0.807535,-0.227674
2019-03-21T19:21:01.118863Z,1.7000810000000002,-0.515252,1.224644
2019-03-21T19:21:01.319863Z,0.497805,-1.685645,2.681691
2019-03-21T19:21:01.520863Z,0.608282,-0.694521,0.818654
2019-03-21T19:21:01.720863Z,0.29978,-0.572811,0.428991
2019-03-21T19:21:01.921863Z,0.044854000000000005,-0.638336,-0.423701
2019-03-21T19:21:02.147863Z,-0.003467,0.096562,-1.074851
2019-03-21T19:21:02.322863Z,0.022427000000000002,-0.133324,0.361611
2019-03-21T19:21:02.523863Z,0.25954099999999997,-0.021102000000000003,-0.566642
2019-03-21T19:21:02.724863Z,0.1731,1.288834,0.7173
2019-03-21T19:21:02.924863Z,1.7740770000000001,0.490555,1.480083
2019-03-21T19:21:03.125863Z,0.478289,-0.095902,0.06074500000000001
2019-03-21T19:21:03.326863Z,-0.628946,-0.09500900000000001,0.703968
2019-03-21T19:21:03.526863Z,-1.340039,0.144596,-0.95573
2019-03-21T19:21:03.727863Z,-1.9559220000000002,0.950441,-0.353825
2019-03-21T19:21:03.928863Z,-1.79381,0.969844,-0.338579
2019-03-21T19:21:04.128863Z,-1.7860639999999999,0.16651,2.103246
2019-03-21T19:21:04.329863Z,-0.9372280000000001,-0.572503,-0.272413
2019-03-21T19:21:04.530863Z,-1.311872,0.542756,0.733575
2019-03-21T19:21:04.730863Z,-1.477157,-0.699538,0.246482
2019-03-21T19:21:04.931863Z,-1.903416,-1.764168,-0.673194
2019-03-21T19:21:05.131863Z,-1.783025,-0.6042029999999999,0.447646
2019-03-21T19:21:05.331863Z,-1.502259,-0.099357,-0.680264
2019-03-21T19:21:05.532863Z,-0.9848370000000001,-0.220123,0.45006599999999997
2019-03-21T19:21:05.760863Z,-0.804639,-0.5249689999999999,-0.277467
2019-03-21T19:21:05.934863Z,-0.262486,0.034685,0.34525500000000003
2019-03-21T19:21:06.135863Z,-0.79294,0.84288,-0.44641099999999995
2019-03-21T19:21:06.335863Z,-0.564605,1.3530520000000001,-0.504266
2019-03-21T19:21:06.535863Z,-0.639692,1.1850829999999999,0.7454109999999999
2019-03-21T19:21:06.736863Z,-1.268419,-0.674817,-0.46024799999999993
2019-03-21T19:21:06.938863Z,-1.885718,-0.266877,-0.374739
2019-03-21T19:21:07.137863Z,-2.0476389999999998,0.342866,-0.680511
2019-03-21T19:21:07.338863Z,-1.339181,0.8894549999999999,0.26717399999999997
2019-03-21T19:21:07.539863Z,-0.20283099999999998,-1.288767,0.8349719999999999
2019-03-21T19:21:07.739863Z,0.228771,-1.027015,0.92499
2019-03-21T19:21:07.940863Z,-0.594272,-0.18085199999999998,0.303302
2019-03-21T19:21:08.141863Z,-0.470743,-0.334486,0.013047999999999999
2019-03-21T19:21:08.341863Z,-1.426166,-0.925903,0.332726
2019-03-21T19:21:08.542863Z,-0.790706,-0.6265270000000001,0.10818699999999999
2019-03-21T19:21:08.743863Z,-0.444881,-0.5534180000000001,-0.019338
2019-03-21T19:21:08.943863Z,-0.535503,-0.494751,-0.100746
2019-03-21T19:21:09.154863Z,-0.178999,-0.225556,0.016734
2019-03-21T19:21:09.344863Z,-0.300753,-0.273618,1.017688
2019-03-21T19:21:09.545863Z,-0.24918099999999999,-0.21834299999999998,-0.231702
2019-03-21T19:21:09.745863Z,-0.035592,-0.397771,0.279967
2019-03-21T19:21:09.946863Z,0.257646,-0.477866,0.048761
2019-03-21T19:21:10.146863Z,-0.503476,-0.159363,0.475045
2019-03-21T19:21:10.347863Z,-0.27426500000000004,0.140485,-0.213596
2019-03-21T19:21:10.548863Z,-0.21943600000000002,0.364469,0.543679
2019-03-21T19:21:10.748863Z,0.302532,-0.405737,1.768402
2019-03-21T19:21:10.949863Z,0.185631,-1.077156,0.294299
2019-03-21T19:21:11.149863Z,0.491138,-0.286984,-0.9271870000000001
2019-03-21T19:21:11.349863Z,0.38042600000000004,0.43200500000000003,-1.327169
2019-03-21T19:21:11.550863Z,0.46224,0.375724,0.669477
2019-03-21T19:21:11.751863Z,0.787467,-1.609178,0.023441
2019-03-21T19:21:11.951863Z,0.8872479999999999,-1.6997810000000002,-0.22267199999999998
2019-03-21T19:21:12.152863Z,0.8565370000000001,-1.4111479999999998,0.672926
2019-03-21T19:21:12.353863Z,0.5894689999999999,-1.0047629999999999,0.8951600000000001
2019-03-21T19:21:12.554863Z,0.299023,-1.303604,0.197383
2019-03-21T19:21:12.754863Z,0.161679,-1.1311879999999999,1.020551
2019-03-21T19:21:12.955863Z,0.111055,-0.785673,0.539129
2019-03-21T19:21:13.182863Z,0.393715,-0.632602,-0.00361
2019-03-21T19:21:13.355863Z,0.448748,-0.8633860000000001,0.123973
2019-03-21T19:21:13.556863Z,0.5290600000000001,-0.377867,0.20506799999999997
2019-03-21T19:21:13.756863Z,0.619458,-0.537483,-0.246811
2019-03-21T19:21:13.958863Z,-0.21838000000000002,-0.28828899999999996,0.500653
2019-03-21T19:21:14.158863Z,-0.544818,-0.6849350000000001,0.181382
2019-03-21T19:21:14.358863Z,0.421597,-0.553323,0.35651700000000003
2019-03-21T19:21:14.559863Z,1.173938,-0.22126500000000002,0.356147
2019-03-21T19:21:14.760863Z,0.834231,0.12823900000000002,-0.385101
2019-03-21T19:21:14.960863Z,0.90002,0.37839,-0.193227
2019-03-21T19:21:15.161863Z,0.502785,-0.350272,0.411704
2019-03-21T19:21:15.363863Z,0.733292,-1.090303,1.517091
2019-03-21T19:21:15.562863Z,0.225333,-0.617071,0.156346
2019-03-21T19:21:15.762863Z,0.424687,-0.49533900000000003,0.06908099999999999
2019-03-21T19:21:15.964863Z,0.98598,-0.90545,0.777409
2019-03-21T19:21:16.163863Z,0.8381200000000001,-1.526043,-0.633918
2019-03-21T19:21:16.364863Z,0.965715,-0.737833,0.8669129999999999
2019-03-21T19:21:16.565863Z,0.6956100000000001,-1.08855,1.141234
2019-03-21T19:21:16.766863Z,0.215225,-1.209747,1.033159
2019-03-21T19:21:16.966863Z,0.12742699999999998,-1.291411,1.664106
2019-03-21T19:21:17.167863Z,0.092581,-0.989835,1.055498
2019-03-21T19:21:17.367863Z,0.001825,-1.213284,1.5764120000000001
2019-03-21T19:21:17.567863Z,-0.203781,-1.297764,0.715279
2019-03-21T19:21:17.769863Z,0.02359,-1.2605520000000001,1.032111
2019-03-21T19:21:17.970863Z,0.063756,-0.8264610000000001,0.650249
2019-03-21T19:21:18.170863Z,0.28231300000000004,-0.6929890000000001,0.33868000000000004
2019-03-21T19:21:18.372863Z,0.188885,-0.513119,0.383662
2019-03-21T19:21:18.589863Z,0.155245,-0.347668,0.217453
2019-03-21T19:21:18.772863Z,0.401831,-0.196425,0.054096000000000005
2019-03-21T19:21:18.973863Z,-0.029173,-0.326046,-0.062556
2019-03-21T19:21:19.173863Z,0.148045,-0.268085,0.146201
2019-03-21T19:21:19.374863Z,-0.38344,-0.479455,-0.054573
2019-03-21T19:21:19.575863Z,1.095416,-0.160706,0.129903
2019-03-21T19:21:19.775863Z,0.675041,-0.16176,0.380261
2019-03-21T19:21:19.977863Z,0.311486,0.012081999999999999,-0.178146
2019-03-21T19:21:20.177863Z,0.16619,-0.06943300000000001,0.183345
2019-03-21T19:21:20.377863Z,0.428655,-0.748016,0.250418
2019-03-21T19:21:20.578863Z,-0.385757,-0.679693,0.863129
2019-03-21T19:21:20.779863Z,-0.559701,-0.517342,-0.4718
2019-03-21T19:21:20.980863Z,-0.323092,0.119773,-0.079391
2019-03-21T19:21:21.180863Z,0.28070500000000004,-0.677383,1.529539
2019-03-21T19:21:21.381863Z,0.900051,-1.080468,-0.20313
2019-03-21T19:21:21.581863Z,0.624552,-0.107142,-0.316442
2019-03-21T19:21:21.782863Z,0.931384,0.35793600000000003,-0.638724
2019-03-21T19:21:21.984863Z,-0.027527,-1.270224,0.8143229999999999
2019-03-21T19:21:22.184863Z,0.290858,-1.235271,-0.5010859999999999
2019-03-21T19:21:22.384863Z,0.239612,-0.72164,0.195376
2019-03-21T19:21:22.585863Z,0.064965,-1.024569,0.6797529999999999
2019-03-21T19:21:22.785863Z,0.0381,-0.8480340000000001,0.5399
2019-03-21T19:21:22.987863Z,0.574099,-0.204504,0.581869
2019-03-21T19:21:23.187863Z,0.42200699999999997,-0.44466700000000003,0.640785
2019-03-21T19:21:23.387863Z,0.086785,-0.299324,0.146126
2019-03-21T19:21:23.587863Z,-0.065295,-0.331807,-0.055768
2019-03-21T19:21:23.788863Z,1.035613,0.006336,0.8579129999999999
2019-03-21T19:21:23.989863Z,0.275552,0.755301,-0.359181
2019-03-21T19:21:24.189863Z,0.267667,0.31089,0.812052
2019-03-21T19:21:24.390863Z,-0.614193,-1.868334,0.8367700000000001
2019-03-21T19:21:24.591863Z,-0.811825,-1.552905,0.000395
2019-03-21T19:21:24.791863Z,-1.2686540000000002,-0.27229000000000003,0.162075
2019-03-21T19:21:24.993863Z,-1.020777,0.552496,0.826584
2019-03-21T19:21:25.194863Z,-0.885065,-1.463965,0.9140209999999999
2019-03-21T19:21:25.393863Z,0.013513999999999998,-2.5212630000000003,-0.11010999999999999
2019-03-21T19:21:25.594863Z,-0.030527,-0.6893819999999999,-0.061357
2019-03-21T19:21:25.794863Z,-0.44836000000000004,-0.755958,0.46781999999999996
2019-03-21T19:21:25.995863Z,-0.926226,-1.456253,0.647871
2019-03-21T19:21:26.196863Z,-0.711595,-1.188107,0.50264
2019-03-21T19:21:26.398863Z,-1.208712,-1.715514,1.236451
2019-03-21T19:21:26.597863Z,-0.9283389999999999,-1.2045540000000001,0.6325770000000001
2019-03-21T19:21:26.798863Z,-0.790738,-1.1768100000000001,0.288288
2019-03-21T19:21:26.999863Z,-0.772456,-1.1885059999999998,0.145761
2019-03-21T19:21:27.199863Z,-0.144821,-0.7774369999999999,0.928583
2019-03-21T19:21:27.400863Z,-0.201621,-0.8931899999999999,0.247506
2019-03-21T19:21:27.600863Z,-0.602037,-0.9274129999999999,0.057712
2019-03-21T19:21:27.801863Z,-0.194901,-0.51784,-0.051377
2019-03-21T19:21:28.002863Z,-0.26716599999999996,-0.127004,0.475934
2019-03-21T19:21:28.202863Z,-0.224786,-0.866343,2.306912
2019-03-21T19:21:28.403863Z,-0.444611,-1.477043,-1.995968
2019-03-21T19:21:28.604863Z,-0.147463,-1.515816,0.492526
2019-03-21T19:21:28.804863Z,-0.372861,-1.273655,-0.22079400000000002
2019-03-21T19:21:29.005863Z,-0.10375,-1.860991,0.383498
2019-03-21T19:21:29.206863Z,-0.24288099999999999,-1.379313,-1.7530830000000002
2019-03-21T19:21:29.407863Z,-0.614133,-1.863493,-0.525497
2019-03-21T19:21:29.606863Z,-0.687186,-0.948627,0.76313
2019-03-21T19:21:29.808863Z,-0.030666000000000002,-0.961533,0.45850799999999997
2019-03-21T19:21:30.008863Z,0.496404,-1.4989,0.521824
2019-03-21T19:21:30.208863Z,1.555464,0.09725700000000001,-0.324943
2019-03-21T19:21:30.411863Z,1.056975,-0.8944850000000001,0.8741459999999999
2019-03-21T19:21:30.609863Z,0.983058,-0.96321,0.39353699999999997
2019-03-21T19:21:30.810863Z,1.161948,0.14313299999999998,0.22535100000000002
2019-03-21T19:21:31.011863Z,0.63221,-0.096343,0.114318
2019-03-21T19:21:31.211863Z,0.320917,0.194822,-0.48438400000000004
2019-03-21T19:21:31.423863Z,0.167197,0.12402,-0.010879999999999999
2019-03-21T19:21:31.613863Z,0.059537,-0.058551,-0.142213
2019-03-21T19:21:31.813863Z,0.01108,0.066089,0.219846
2019-03-21T19:21:32.014863Z,-0.78779,-0.245944,0.14444400000000002
2019-03-21T19:21:32.214863Z,-0.257157,-0.261585,0.166701
2019-03-21T19:21:32.415863Z,-1.1405040000000002,-0.6268090000000001,-0.176199
2019-03-21T19:21:32.615863Z,-0.276633,-1.821627,0.092365
2019-03-21T19:21:32.816863Z,0.32469499999999996,-1.753168,0.853096
2019-03-21T19:21:33.017863Z,0.13011099999999998,-1.1594959999999999,-0.815945
2019-03-21T19:21:33.217863Z,-0.208102,-0.344021,0.641049
2019-03-21T19:21:33.418863Z,-0.360092,-2.326854,1.120708
2019-03-21T19:21:33.618863Z,-0.5329619999999999,-1.925748,0.659163
2019-03-21T19:21:33.819863Z,-1.011924,-1.655277,1.213028
2019-03-21T19:21:34.020863Z,-0.7220310000000001,-1.194507,0.836724
2019-03-21T19:21:34.220863Z,-0.467783,-1.6462139999999998,0.23444600000000002
2019-03-21T19:21:34.421863Z,-0.540374,-1.506538,0.163735
2019-03-21T19:21:34.622863Z,-0.21151199999999998,-1.7293450000000001,1.853618
2019-03-21T19:21:34.823863Z,-0.349191,-0.9470120000000001,-0.132536
2019-03-21T19:21:35.023863Z,-0.23442399999999997,-0.705852,0.11396300000000001
2019-03-21T19:21:35.224863Z,-0.092943,-0.49555699999999997,-0.049855000000000003
2019-03-21T19:21:35.424863Z,-0.335921,-0.68967,0.25914899999999996
2019-03-21T19:21:35.625863Z,-0.754733,-1.0489540000000002,0.41643500000000006
2019-03-21T19:21:35.827863Z,-0.872907,-0.972778,0.021176
2019-03-21T19:21:36.026863Z,-0.908697,-0.8729680000000001,0.149648
2019-03-21T19:21:36.227863Z,-0.783859,-1.0440459999999998,0.241968
2019-03-21T19:21:36.428863Z,-1.5715540000000001,-1.030386,0.552092
2019-03-21T19:21:36.628863Z,-1.6355819999999999,-0.800017,0.559381
2019-03-21T19:21:36.829863Z,-1.0639530000000001,-0.641087,-0.2472
2019-03-21T19:21:37.029863Z,-1.8658740000000003,-0.160465,0.8782639999999999
2019-03-21T19:21:37.230863Z,-0.12481199999999999,-0.563557,1.417734
2019-03-21T19:21:37.430863Z,1.387158,-0.158875,0.117319
2019-03-21T19:21:37.631863Z,0.9617530000000001,-0.095563,-0.942365
2019-03-21T19:21:37.832863Z,0.155677,0.404914,-1.093721
2019-03-21T19:21:38.032863Z,-0.106852,0.6308,1.6548029999999998
2019-03-21T19:21:38.233863Z,-0.789941,-1.025064,1.253638
2019-03-21T19:21:38.433863Z,-0.186872,-0.70577,-1.254874
2019-03-21T19:21:38.634863Z,-0.906005,0.584176,0.510656
2019-03-21T19:21:38.835863Z,0.33877399999999996,-0.001515,1.58275
2019-03-21T19:21:39.035863Z,0.54218,-1.470641,-1.2985870000000002
2019-03-21T19:21:39.236863Z,0.28124,-0.648051,-0.032195999999999995
2019-03-21T19:21:39.437863Z,0.44264499999999996,-0.186218,0.044075
2019-03-21T19:21:39.637863Z,-0.338018,-1.05744,0.21284699999999998
2019-03-21T19:21:39.840863Z,-0.768594,-1.145116,0.001019
2019-03-21T19:21:40.038863Z,-1.2491709999999998,-1.0863049999999999,-0.136409
2019-03-21T19:21:40.238863Z,-0.622193,-0.6229399999999999,0.300906
2019-03-21T19:21:40.439863Z,-1.7847849999999998,-0.462754,0.532874
2019-03-21T19:21:40.640863Z,-1.390293,-0.529896,0.070702
2019-03-21T19:21:40.841863Z,-0.363448,0.067745,-0.568258
2019-03-21T19:21:41.041863Z,0.5476479999999999,-0.617676,0.41196499999999997
2019-03-21T19:21:41.242863Z,1.228156,0.66357,-0.676564
2019-03-21T19:21:41.442863Z,-1.07584,0.173199,0.306341
2019-03-21T19:21:41.643863Z,0.094452,0.819306,0.24009299999999997
2019-03-21T19:21:41.844863Z,-1.521359,-1.183699,1.911614
2019-03-21T19:21:42.044863Z,-0.8289190000000001,-1.155222,-0.456269
2019-03-21T19:21:42.245863Z,-1.383345,-0.13636199999999998,-0.147621
2019-03-21T19:21:42.447863Z,-1.10762,0.218775,0.340562
2019-03-21T19:21:42.646863Z,-1.160898,-1.7962049999999998,1.099384
2019-03-21T19:21:42.847863Z,-0.623451,-1.54483,0.33903
2019-03-21T19:21:43.048863Z,-0.790321,-0.688349,0.15443099999999998
2019-03-21T19:21:43.247863Z,-0.434903,-0.6176149999999999,0.351912
2019-03-21T19:21:43.448863Z,-0.469471,-0.8722280000000001,-0.090755
2019-03-21T19:21:43.649863Z,-0.11308599999999999,-0.691267,0.684595
2019-03-21T19:21:43.850863Z,-0.53652,-0.574209,0.16278299999999998
2019-03-21T19:21:44.050863Z,-0.059775,-0.194915,-0.188615
2019-03-21T19:21:44.251863Z,-0.9045780000000001,0.040923,0.35830500000000004
2019-03-21T19:21:44.451863Z,-0.6827,-0.2273,1.6974509999999998
2019-03-21T19:21:44.651863Z,-0.292138,-1.5358379999999998,-0.368259
2019-03-21T19:21:44.853863Z,-0.15493900000000002,-1.3266790000000002,0.582094
2019-03-21T19:21:45.053863Z,-0.383812,-0.47965399999999997,0.07241
2019-03-21T19:21:45.253863Z,-0.12430999999999999,0.434411,1.867487
2019-03-21T19:21:45.454863Z,-1.258735,-1.505757,0.041059
2019-03-21T19:21:45.655863Z,-1.804989,-1.924094,-0.6886979999999999
2019-03-21T19:21:45.856863Z,-1.6606419999999997,-0.943182,0.731784
2019-03-21T19:21:46.056863Z,-0.9793209999999999,-2.089339,1.31481
2019-03-21T19:21:46.256863Z,-0.9956290000000001,-2.020357,1.181864
2019-03-21T19:21:46.457863Z,-0.577438,-1.546152,1.318358
2019-03-21T19:21:46.658863Z,-0.791686,-1.355656,-0.19387100000000002
2019-03-21T19:21:46.877863Z,-0.873031,-1.25231,0.58091
2019-03-21T19:21:47.059863Z,-0.990827,-1.250544,0.909056
2019-03-21T19:21:47.260863Z,-1.571731,-1.081854,0.006226
2019-03-21T19:21:47.460863Z,-1.373515,-0.50274,0.2558
2019-03-21T19:21:47.660863Z,-1.168982,-0.06204,0.291571
2019-03-21T19:21:47.862863Z,-0.767828,0.13694,1.8669639999999998
2019-03-21T19:21:48.061863Z,-0.653262,-2.442812,0.699037
2019-03-21T19:21:48.262863Z,-0.05294600000000001,-1.919504,0.634314
2019-03-21T19:21:48.463863Z,-0.539816,-1.133468,0.12701300000000001
2019-03-21T19:21:48.663863Z,-0.945219,-1.304442,2.0416279999999998
2019-03-21T19:21:48.864863Z,-0.329285,-2.12112,0.5886600000000001
2019-03-21T19:21:49.065863Z,-0.238765,-0.9785370000000001,-0.028776999999999997
2019-03-21T19:21:49.265863Z,1.4868190000000001,-0.788938,0.031924
2019-03-21T19:21:49.465863Z,0.11680499999999999,-1.420784,0.639976
2019-03-21T19:21:49.666863Z,0.083352,-2.17361,1.439543
2019-03-21T19:21:49.867863Z,0.621713,-1.497056,0.9462879999999999
2019-03-21T19:21:50.067863Z,0.641472,-0.5047550000000001,0.262914
2019-03-21T19:21:50.268863Z,0.54528,-0.275742,-0.077501
2019-03-21T19:21:50.468863Z,-0.5954109999999999,0.146541,0.883318
2019-03-21T19:21:50.669863Z,0.367215,-0.153628,0.903272
2019-03-21T19:21:50.870863Z,0.816227,-0.635081,-0.386779
2019-03-21T19:21:51.070863Z,-0.257396,-0.787497,0.693476
2019-03-21T19:21:51.270863Z,-0.13559200000000002,-0.475012,-0.06869700000000001
2019-03-21T19:21:51.472863Z,-0.563966,-0.7428779999999999,-0.320642
2019-03-21T19:21:51.674863Z,-0.354783,-0.595122,0.919487
2019-03-21T19:21:51.873863Z,-0.167892,-0.584133,0.231633
2019-03-21T19:21:52.073863Z,-0.411016,-0.763929,0.362685
2019-03-21T19:21:52.273863Z,-0.48433000000000004,-0.42090500000000003,-0.081206
2019-03-21T19:21:52.474863Z,-0.330604,-0.145803,-0.062538
2019-03-21T19:21:52.675863Z,0.086908,0.404478,0.9068780000000001
2019-03-21T19:21:52.875863Z,-0.408629,-0.148991,1.03457
2019-03-21T19:21:53.076863Z,-0.135138,-1.110299,-0.455322
2019-03-21T19:21:53.277863Z,0.136604,-0.773696,-0.053742
2019-03-21T19:21:53.477863Z,0.304831,0.106833,-0.877028
2019-03-21T19:21:53.677863Z,-2.154861,0.082616,1.1233879999999998
2019-03-21T19:21:53.879863Z,-0.093695,-0.543828,1.768684
2019-03-21T19:21:54.078863Z,-2.043171,-2.2770759999999997,0.533975
2019-03-21T19:21:54.279863Z,-2.310501,-1.033241,0.707534
2019-03-21T19:21:54.480863Z,-2.067259,-0.5580149999999999,0.9028149999999999
2019-03-21T19:21:54.680863Z,-1.697817,-0.865165,0.580344
2019-03-21T19:21:54.881863Z,-1.1969049999999999,-1.124619,-0.12979300000000002
2019-03-21T19:21:55.081863Z,-0.931759,-0.688786,0.181874
2019-03-21T19:21:55.281863Z,-0.409599,-0.466207,0.219563
2019-03-21T19:21:55.482863Z,-0.4643,-0.190271,-0.200139
2019-03-21T19:21:55.684863Z,-0.16265,0.196943,0.726851
2019-03-21T19:21:55.884863Z,0.087622,0.727329,1.095623
2019-03-21T19:21:56.084863Z,-0.473984,-0.738301,0.872816
2019-03-21T19:21:56.284863Z,-0.9989889999999999,-1.11,-0.204841
2019-03-21T19:21:56.484863Z,-0.785238,-0.31422,-0.9943790000000001
2019-03-21T19:21:56.685863Z,-0.582376,0.45282799999999995,-1.0865209999999998
2019-03-21T19:21:56.887863Z,-0.612451,0.383073,0.24156799999999998
2019-03-21T19:21:57.086863Z,-0.476774,-1.04136,1.304801
2019-03-21T19:21:57.287863Z,0.452075,-2.965896,0.406672
2019-03-21T19:21:57.487863Z,-0.23615799999999998,-0.9714389999999999,0.615689
2019-03-21T19:21:57.687863Z,0.12651300000000001,-0.9671120000000001,0.37458400000000003
2019-03-21T19:21:57.888863Z,-0.055949,-0.967375,0.024543000000000002
2019-03-21T19:21:58.089863Z,-0.018163,-1.532942,0.575036
2019-03-21T19:21:58.289863Z,-0.570044,-1.500408,0.8069149999999999
2019-03-21T19:21:58.490863Z,-0.549702,-1.033647,1.07646
2019-03-21T19:21:58.691863Z,-0.33400799999999997,-1.090192,0.460004
2019-03-21T19:21:58.891863Z,-0.589069,-1.293725,0.734218
2019-03-21T19:21:59.091863Z,-0.264361,-0.736039,0.555128
2019-03-21T19:21:59.292863Z,-0.9483219999999999,-0.9269229999999999,-0.032358
2019-03-21T19:21:59.493863Z,-1.6588779999999999,-0.497434,0.478662
2019-03-21T19:21:59.693863Z,-0.9804290000000001,-0.147312,0.323536
2019-03-21T19:21:59.895863Z,-0.9681540000000001,0.0009519999999999999,0.100564
2019-03-21T19:22:00.094863Z,-1.637058,-0.894007,-0.012270999999999999
2019-03-21T19:22:00.295863Z,-0.683929,-1.516235,-0.665185
2019-03-21T19:22:00.496863Z,-0.8158340000000001,-0.818244,0.556231
2019-03-21T19:22:00.696863Z,-0.638402,0.0026780000000000003,0.119084
2019-03-21T19:22:00.897863Z,-0.623681,0.423642,0.8012699999999999
2019-03-21T19:22:01.098863Z,-0.44629399999999997,-0.146808,1.810457
2019-03-21T19:22:01.298863Z,-0.637103,-0.743694,-0.037856
2019-03-21T19:22:01.498863Z,-0.453686,0.651937,-1.2362
2019-03-21T19:22:01.700863Z,-0.63493,0.020611,0.742372
2019-03-21T19:22:01.900863Z,-0.821951,0.348577,0.730679
2019-03-21T19:22:02.100863Z,-0.070114,-0.076792,0.563355
2019-03-21T19:22:02.301863Z,0.36145700000000003,-0.415627,-0.14744300000000002
2019-03-21T19:22:02.501863Z,-0.094187,0.061404999999999994,0.349411
2019-03-21T19:22:02.702863Z,0.35630100000000003,0.785983,-0.393027
2019-03-21T19:22:02.903863Z,-0.062190999999999996,0.6107899999999999,0.076736
2019-03-21T19:22:03.103863Z,0.309436,0.789216,0.212211
2019-03-21T19:22:03.318863Z,0.16231600000000002,0.48456099999999996,-0.138718
2019-03-21T19:22:03.504863Z,1.018462,0.526968,-0.300598
2019-03-21T19:22:03.705863Z,1.468374,0.367214,-0.291667
2019-03-21T19:22:03.905863Z,-0.159377,0.23761300000000002,-0.61452
2019-03-21T19:22:04.106863Z,-0.649792,0.435643,0.321682
2019-03-21T19:22:04.306863Z,-1.0447899999999999,0.324588,-0.6889029999999999
2019-03-21T19:22:04.506863Z,-0.735664,0.855822,0.305655
2019-03-21T19:22:04.707863Z,-0.26458400000000004,-0.9535319999999999,0.417738
2019-03-21T19:22:04.908863Z,0.46898500000000004,-1.252944,0.06453400000000001
2019-03-21T19:22:05.108863Z,0.265723,-0.338783,-0.268289
2019-03-21T19:22:05.309863Z,0.40034899999999995,0.968391,-0.23696399999999998
2019-03-21T19:22:05.509863Z,-0.105005,-1.438049,2.638537
2019-03-21T19:22:05.710863Z,-0.636872,-0.888942,-2.069707
2019-03-21T19:22:05.912863Z,-0.428754,0.720174,-0.150121
2019-03-21T19:22:06.111863Z,-0.258931,0.440579,0.345044
2019-03-21T19:22:06.312863Z,-0.679863,0.296145,0.036
2019-03-21T19:22:06.512863Z,-0.30039,0.459624,0.158152
2019-03-21T19:22:06.713863Z,-0.23725,0.286154,-0.08334
2019-03-21T19:22:06.929863Z,-0.28088,0.204498,0.002784
2019-03-21T19:22:07.114863Z,-0.42539099999999996,0.06652899999999999,-0.08823099999999999
2019-03-21T19:22:07.314863Z,-1.223933,-0.056583,0.08011
2019-03-21T19:22:07.514863Z,-1.9484150000000002,-0.1488,-0.292119
2019-03-21T19:22:07.715863Z,-1.002767,-0.306429,-0.18988
2019-03-21T19:22:07.915863Z,0.8061619999999999,-0.692728,0.403068
2019-03-21T19:22:08.116863Z,0.07645700000000001,-0.310925,-0.359423
2019-03-21T19:22:08.316863Z,0.995268,0.6038819999999999,-0.235477
2019-03-21T19:22:08.517863Z,0.183561,0.809012,0.275013
2019-03-21T19:22:08.717863Z,-0.024595,-0.681491,0.5647399999999999
2019-03-21T19:22:08.931863Z,-0.248135,-1.0713059999999999,1.073165
2019-03-21T19:22:09.118863Z,-0.47385200000000005,-0.13076400000000002,-0.527249
2019-03-21T19:22:09.319863Z,-0.391384,0.553592,-0.09368
2019-03-21T19:22:09.520863Z,-2.361137,-0.281317,0.343837
2019-03-21T19:22:09.720863Z,-0.08012899999999999,-2.1945669999999997,0.7632359999999999
2019-03-21T19:22:09.920863Z,0.8924469999999999,-2.621314,1.038584
2019-03-21T19:22:10.121863Z,-1.312967,-1.93387,0.841724
2019-03-21T19:22:10.321863Z,-0.986078,-2.227048,1.459482
2019-03-21T19:22:10.521863Z,-1.9218540000000002,-0.982224,-0.211002
2019-03-21T19:22:10.722863Z,-0.9896719999999999,-0.421205,0.466366
2019-03-21T19:22:10.934863Z,-1.3667690000000001,-0.781686,-0.33947
2019-03-21T19:22:11.124863Z,-1.03924,-0.557996,-0.36928
2019-03-21T19:22:11.324863Z,-1.275352,-0.9344,0.35884699999999997
2019-03-21T19:22:11.524863Z,-0.700206,-0.8241719999999999,0.303433
2019-03-21T19:22:11.744863Z,-0.799268,-0.9057360000000001,0.289418
2019-03-21T19:22:11.926863Z,-0.519358,-0.516533,0.295914
2019-03-21T19:22:12.125863Z,-0.37755900000000003,-0.430726,-0.018396
2019-03-21T19:22:12.326863Z,-1.142474,-0.611234,1.152907
2019-03-21T19:22:12.527863Z,-0.7791680000000001,-1.4583840000000001,1.344468
2019-03-21T19:22:12.727863Z,-1.280918,-1.736832,1.464357
2019-03-21T19:22:12.928863Z,-1.258147,-0.922167,0.39845
2019-03-21T19:22:13.128863Z,-0.9889680000000001,0.24586999999999998,0.14286600000000002
2019-03-21T19:22:13.328863Z,-0.804113,-0.688072,2.720407
2019-03-21T19:22:13.529863Z,0.306325,-2.423033,-0.045665
2019-03-21T19:22:13.730863Z,-0.043139,-0.7814800000000001,1.405775
2019-03-21T19:22:13.930863Z,0.374872,-0.178602,0.335316
2019-03-21T19:22:14.130863Z,0.95883,-0.22777399999999998,-0.14894300000000002
2019-03-21T19:22:14.331863Z,-0.056333,-0.69468,-0.017734
2019-03-21T19:22:14.531863Z,-0.084256,-0.555365,0.36954499999999996
2019-03-21T19:22:14.731863Z,0.25801599999999997,-0.711147,0.24829
2019-03-21T19:22:14.932863Z,0.34121599999999996,-0.702038,0.340404
2019-03-21T19:22:15.132863Z,0.374904,-0.44481800000000005,0.10728299999999999
2019-03-21T19:22:15.333863Z,0.547692,-0.23237399999999997,0.5238689999999999
2019-03-21T19:22:15.534863Z,1.6414970000000002,-0.404679,0.385747
2019-03-21T19:22:15.734863Z,0.82931,-1.0933389999999998,0.22303499999999998
2019-03-21T19:22:15.935863Z,0.23777600000000002,-0.751603,0.858002
2019-03-21T19:22:16.135863Z,-0.23341900000000002,-0.708108,0.062878
2019-03-21T19:22:16.336863Z,-0.750028,0.240985,-0.375823
2019-03-21T19:22:16.536863Z,-0.437755,1.178576,-0.360871
2019-03-21T19:22:16.738863Z,0.143835,-0.590511,0.779115
2019-03-21T19:22:16.937863Z,0.241358,-0.980419,-0.398819
2019-03-21T19:22:17.138863Z,-0.515033,-0.135581,0.10416099999999999
2019-03-21T19:22:17.339863Z,-0.741054,-0.003435,-0.31348899999999996
2019-03-21T19:22:17.539863Z,-1.138421,-1.6606459999999998,-1.599225
2019-03-21T19:22:17.739863Z,0.294425,-0.6445850000000001,0.794099
2019-03-21T19:22:17.940863Z,-0.5044109999999999,-0.881965,0.549467
2019-03-21T19:22:18.140863Z,0.230856,-0.285956,0.92438
2019-03-21T19:22:18.341863Z,0.337433,-0.152449,-0.000923
2019-03-21T19:22:18.542863Z,0.326777,-0.13103299999999998,0.265532
2019-03-21T19:22:18.742863Z,0.481206,-0.246664,-0.24854899999999996
2019-03-21T19:22:18.942863Z,1.133428,0.38609099999999996,-0.082955
2019-03-21T19:22:19.143863Z,-0.339778,0.17535599999999998,-0.582346
2019-03-21T19:22:19.344863Z,0.7763369999999999,0.499305,1.80095
2019-03-21T19:22:19.544863Z,0.888835,-1.065986,0.8444959999999999
2019-03-21T19:22:19.745863Z,-0.838908,-2.067324,0.933167
2019-03-21T19:22:19.945863Z,-0.6970770000000001,-0.718067,0.390371
2019-03-21T19:22:20.146863Z,-0.767644,-0.497943,-0.493791
2019-03-21T19:22:20.347863Z,-0.531516,-0.5437,0.97657
2019-03-21T19:22:20.547863Z,-0.775104,-1.8987080000000003,0.155887
2019-03-21T19:22:20.748863Z,-0.151609,-1.947271,0.45577399999999996
2019-03-21T19:22:20.948863Z,0.092726,-0.9234969999999999,0.869116
2019-03-21T19:22:21.148863Z,0.109143,-0.920359,0.2263
2019-03-21T19:22:21.349863Z,-0.14171,-0.555222,0.780378
2019-03-21T19:22:21.550863Z,-0.605521,-1.613249,0.571098
2019-03-21T19:22:21.767863Z,-0.57945,-1.657504,0.795593
2019-03-21T19:22:21.951863Z,-1.151017,-1.539822,0.181765
2019-03-21T19:22:22.151863Z,-1.134254,-0.512854,0.656238
2019-03-21T19:22:22.352863Z,-0.708043,-0.320343,0.602723
2019-03-21T19:22:22.552863Z,-0.857721,-1.159638,0.096737
2019-03-21T19:22:22.754863Z,-0.96598,-0.395361,1.2439850000000001
2019-03-21T19:22:22.953863Z,-1.189167,-1.743896,-0.19126400000000002
2019-03-21T19:22:23.154863Z,-0.46115600000000007,-2.172605,1.7730439999999998
2019-03-21T19:22:23.355863Z,-0.692449,-1.2008299999999998,0.554237
2019-03-21T19:22:23.555863Z,-0.8641030000000001,-1.3217649999999999,0.20164400000000002
2019-03-21T19:22:23.756863Z,-1.113514,-1.5139129999999998,0.38048200000000004
2019-03-21T19:22:23.987863Z,-0.892023,-1.356077,0.8860450000000001
2019-03-21T19:22:24.156863Z,-0.884102,-1.013795,0.733056
2019-03-21T19:22:24.358863Z,-0.589096,-0.552288,0.356926
2019-03-21T19:22:24.558863Z,-0.507584,-0.063514,6.9e-05
2019-03-21T19:22:24.758863Z,-0.496059,-0.024405,0.138009
2019-03-21T19:22:24.958863Z,-0.331519,0.058438,0.292829
2019-03-21T19:22:25.159863Z,-0.218768,-1.4677040000000001,0.015895
2019-03-21T19:22:25.359863Z,0.38519699999999996,-1.54698,-0.341866
2019-03-21T19:22:25.560863Z,0.407394,-0.159099,-0.346328
2019-03-21T19:22:25.761863Z,0.37254299999999996,-0.22607600000000003,0.5510729999999999
2019-03-21T19:22:25.961863Z,-0.184051,-1.160453,1.27341
2019-03-21T19:22:26.161863Z,0.12010599999999999,-1.090122,-0.326356
2019-03-21T19:22:26.362863Z,-0.138231,-0.069498,-0.005947999999999999
2019-03-21T19:22:26.562863Z,-0.27857,-0.12065999999999999,0.211554
2019-03-21T19:22:26.763863Z,-0.46006099999999994,-1.257765,1.438226
2019-03-21T19:22:26.964863Z,-0.088687,-0.826593,0.10681199999999999
2019-03-21T19:22:27.164863Z,0.099275,-0.723029,0.448874
2019-03-21T19:22:27.365863Z,0.023153999999999997,-0.7796930000000001,0.015011000000000002
2019-03-21T19:22:27.565863Z,0.208882,-0.374301,-0.208652
2019-03-21T19:22:27.766863Z,0.493496,-0.258203,0.102385
2019-03-21T19:22:27.966863Z,0.16652899999999998,-0.013799,0.632115
2019-03-21T19:22:28.167863Z,0.508487,-0.072431,-0.009876000000000001
2019-03-21T19:22:28.367863Z,0.18798800000000002,-0.308053,-0.18018199999999998
2019-03-21T19:22:28.567863Z,-0.2317,-0.87295,0.31284
2019-03-21T19:22:28.769863Z,-0.316673,-0.047004000000000004,0.118931
2019-03-21T19:22:28.968863Z,-0.49403400000000003,0.30545700000000003,-0.783829
2019-03-21T19:22:29.169863Z,-0.07125,0.608989,-0.156643
2019-03-21T19:22:29.370863Z,-0.249176,-0.382458,1.642438
2019-03-21T19:22:29.570863Z,0.076321,-1.406069,0.155032
2019-03-21T19:22:29.770863Z,0.135472,-0.48673,-0.48745600000000006
2019-03-21T19:22:29.971863Z,0.385177,0.248135,-0.174073
2019-03-21T19:22:30.171863Z,0.127557,0.438296,0.688461
2019-03-21T19:22:30.372863Z,-0.627632,-1.114962,-1.20471
2019-03-21T19:22:30.573863Z,-0.7834949999999999,-0.715188,-0.154907
2019-03-21T19:22:30.773863Z,0.127829,0.20216800000000001,0.294234
2019-03-21T19:22:30.975863Z,0.10258900000000001,0.347002,-0.8965709999999999
2019-03-21T19:22:31.174863Z,-0.395275,-1.236855,1.067587
2019-03-21T19:22:31.374863Z,0.62676,-1.167844,-0.398646
2019-03-21T19:22:31.575863Z,0.49520699999999995,-0.860399,-0.268876
2019-03-21T19:22:31.776863Z,0.5105970000000001,-0.185002,0.552642
2019-03-21T19:22:31.978863Z,0.435882,-0.535892,0.348482
2019-03-21T19:22:32.177863Z,0.044159,-1.0398049999999999,0.473055
2019-03-21T19:22:32.378863Z,-0.414157,-0.644709,-0.098474
2019-03-21T19:22:32.578863Z,-0.356571,-0.343343,0.87923
2019-03-21T19:22:32.779863Z,-0.363551,-0.78793,0.611288
2019-03-21T19:22:32.980863Z,-0.45872700000000005,-0.971852,-0.31666
2019-03-21T19:22:33.180863Z,-0.344219,-0.808755,0.6252840000000001
2019-03-21T19:22:33.380863Z,-0.236116,-0.7984899999999999,0.060084000000000005
2019-03-21T19:22:33.581863Z,-0.087989,-0.451567,0.248467
2019-03-21T19:22:33.781863Z,0.070656,-0.293652,-0.089046
2019-03-21T19:22:33.981863Z,0.10712100000000001,0.940207,0.085608
2019-03-21T19:22:34.182863Z,0.03515,0.692563,-1.219473
2019-03-21T19:22:34.382863Z,0.364396,0.500765,1.315358
2019-03-21T19:22:34.583863Z,0.6755329999999999,-1.35758,-0.235679
2019-03-21T19:22:34.784863Z,0.46548199999999995,-0.34579899999999997,-0.19859100000000002
2019-03-21T19:22:34.984863Z,0.08286900000000001,0.40985,-0.23588699999999999
2019-03-21T19:22:35.185863Z,0.129603,0.33495199999999997,0.827564
2019-03-21T19:22:35.386863Z,0.48276199999999997,-1.177168,-0.652935
2019-03-21T19:22:35.586863Z,-0.115375,-1.0930819999999999,0.981678
2019-03-21T19:22:35.787863Z,-0.182343,-0.509894,-0.354324
2019-03-21T19:22:35.987863Z,0.623726,0.320121,0.110703
2019-03-21T19:22:36.187863Z,0.870461,0.263307,1.354667
2019-03-21T19:22:36.388863Z,-0.315779,-1.708219,-0.9425309999999999
2019-03-21T19:22:36.589863Z,-0.712433,-0.73873,-0.132708
2019-03-21T19:22:36.790863Z,0.179488,-0.21909,0.695917
2019-03-21T19:22:36.990863Z,0.353892,-0.130556,-0.35547199999999995
2019-03-21T19:22:37.191863Z,0.657589,0.17568399999999998,-0.11106500000000001
2019-03-21T19:22:37.391863Z,1.014198,0.251471,-0.307058
2019-03-21T19:22:37.591863Z,0.628763,0.359956,-0.22557
2019-03-21T19:22:37.793863Z,0.626501,0.5905520000000001,-0.217356
2019-03-21T19:22:37.992863Z,0.916428,-0.089055,1.111989
2019-03-21T19:22:38.193863Z,0.25713400000000003,-0.861775,-0.0044020000000000005
2019-03-21T19:22:38.394863Z,-0.448283,-0.338671,0.22730999999999998
2019-03-21T19:22:38.594863Z,-0.48955600000000005,-0.49525600000000003,-0.5371560000000001
2019-03-21T19:22:38.794863Z,-0.136944,0.381117,0.012215
2019-03-21T19:22:38.995863Z,-0.560569,0.42773900000000004,-0.010954
2019-03-21T19:22:39.195863Z,0.377398,-1.398752,2.383067
2019-03-21T19:22:39.397863Z,-0.056192,-2.555401,0.553004
2019-03-21T19:22:39.597863Z,-0.015496000000000001,-1.4148450000000001,-0.012862
2019-03-21T19:22:39.798863Z,0.547503,-0.8780040000000001,0.714831
2019-03-21T19:22:39.997863Z,0.110989,-1.166499,0.821709
2019-03-21T19:22:40.198863Z,0.31493899999999997,-1.054302,-0.352154
2019-03-21T19:22:40.398863Z,-0.799693,-1.451904,0.317807
2019-03-21T19:22:40.599863Z,-0.21039699999999997,-0.822876,0.9610360000000001
2019-03-21T19:22:40.800863Z,-0.243338,-1.1781190000000001,0.462476
2019-03-21T19:22:41.000863Z,0.396177,-0.750602,1.16104
2019-03-21T19:22:41.200863Z,0.21734499999999998,-1.035682,-0.08927
2019-03-21T19:22:41.401863Z,0.394803,-0.95226,0.664991
2019-03-21T19:22:41.601863Z,0.970867,-0.947548,0.163323
2019-03-21T19:22:41.802863Z,1.361263,-0.490356,0.7156319999999999
2019-03-21T19:22:42.003863Z,1.5234530000000002,0.061626,0.72658
2019-03-21T19:22:42.202863Z,2.170877,0.024311000000000003,0.9210809999999999
2019-03-21T19:22:42.403863Z,1.584272,-0.810631,0.486429
2019-03-21T19:22:42.604863Z,1.337835,-0.112971,0.23279699999999998
2019-03-21T19:22:42.804863Z,0.570333,0.29990900000000004,-0.418684
2019-03-21T19:22:43.004863Z,0.562909,0.805149,-0.339444
2019-03-21T19:22:43.205863Z,1.354622,1.3330790000000001,2.488459
2019-03-21T19:22:43.407863Z,0.663613,-0.90189,-1.210208
2019-03-21T19:22:43.605863Z,0.694916,-0.9523379999999999,-0.532772
2019-03-21T19:22:43.807863Z,1.562117,0.10675699999999999,0.057996000000000006
2019-03-21T19:22:44.007863Z,0.921149,-0.038626,0.48845
2019-03-21T19:22:44.207863Z,0.45203999999999994,-0.12114100000000001,0.43476899999999996
2019-03-21T19:22:44.407863Z,0.451709,-0.356844,0.193031
2019-03-21T19:22:44.608863Z,0.704499,-0.21119699999999997,-0.021315
2019-03-21T19:22:44.808863Z,0.49463999999999997,-0.047307999999999996,-0.297444
2019-03-21T19:22:45.029863Z,0.849592,0.139536,0.3379
2019-03-21T19:22:45.209863Z,0.525411,0.220011,-0.28276100000000004
2019-03-21T19:22:45.410863Z,0.177729,0.171535,-0.146562
2019-03-21T19:22:45.610863Z,0.023801,0.9678180000000001,0.221744
2019-03-21T19:22:45.811863Z,0.478567,1.171725,-0.855093
2019-03-21T19:22:46.011863Z,0.188823,1.1867889999999999,-0.24059699999999998
2019-03-21T19:22:46.212863Z,-0.461425,-0.043042000000000004,0.5756
2019-03-21T19:22:46.412863Z,0.6108020000000001,-1.267575,-0.241983
2019-03-21T19:22:46.612863Z,0.489084,-0.02899,-0.550351
2019-03-21T19:22:46.814863Z,0.754695,0.44892299999999996,-0.29451
2019-03-21T19:22:47.014863Z,0.42106800000000005,0.101613,0.8229190000000001
2019-03-21T19:22:47.214863Z,0.31785,-1.153339,0.74005
2019-03-21T19:22:47.415863Z,-0.253296,-1.703252,0.17811
2019-03-21T19:22:47.615863Z,0.208829,-0.622184,0.648576
2019-03-21T19:22:47.816863Z,-0.129722,-0.646041,0.084735
2019-03-21T19:22:48.016863Z,-0.237006,-0.852657,0.48113599999999995
2019-03-21T19:22:48.217863Z,0.41089200000000003,-0.9354100000000001,0.688131
2019-03-21T19:22:48.417863Z,-0.077583,-0.976985,0.38812800000000003
2019-03-21T19:22:48.618863Z,0.242339,-0.688235,0.763274
2019-03-21T19:22:48.818863Z,0.096663,-0.6885680000000001,0.260942
2019-03-21T19:22:49.019863Z,-0.155691,-0.47448500000000005,0.19484300000000002
2019-03-21T19:22:49.219863Z,-0.028912,-0.369033,0.055587
2019-03-21T19:22:49.419863Z,0.653883,-0.224137,-0.378145
2019-03-21T19:22:49.620863Z,0.25162399999999996,0.283637,-0.000322
2019-03-21T19:22:49.821863Z,-0.335909,0.236698,0.867484
2019-03-21T19:22:50.021863Z,0.238211,-1.117202,0.993614
2019-03-21T19:22:50.221863Z,0.036438,-1.6836220000000002,0.201509
2019-03-21T19:22:50.422863Z,0.0012230000000000001,-0.649981,-0.567657
2019-03-21T19:22:50.622863Z,0.072758,-0.032043,0.341616
2019-03-21T19:22:50.823863Z,-0.119282,-0.338982,0.719625
2019-03-21T19:22:51.024863Z,0.650167,-0.7035899999999999,0.199181
2019-03-21T19:22:51.224863Z,1.2651370000000002,-0.715454,0.781404
2019-03-21T19:22:51.424863Z,0.699195,0.091757,0.578263
2019-03-21T19:22:51.625863Z,1.15434,0.327441,0.35518299999999997
2019-03-21T19:22:51.825863Z,0.965,0.198224,0.991029
2019-03-21T19:22:52.026863Z,0.519054,-0.659242,-0.5486
2019-03-21T19:22:52.227863Z,0.724887,0.133374,-0.25122
2019-03-21T19:22:52.427863Z,0.097178,-0.11034000000000001,-0.28092399999999995
2019-03-21T19:22:52.627863Z,0.12063199999999999,-0.405144,0.299263
2019-03-21T19:22:52.841863Z,-0.008843,-0.351698,0.078279
2019-03-21T19:22:53.028863Z,0.048527999999999995,-0.160154,-0.13106199999999998
2019-03-21T19:22:53.229863Z,-0.728799,-0.331842,-0.049321
2019-03-21T19:22:53.430863Z,-0.391346,-0.32322199999999995,0.15687
2019-03-21T19:22:53.630863Z,-0.333971,-0.42055200000000004,0.144964
2019-03-21T19:22:53.831863Z,-0.188451,-0.674459,0.14315799999999998
2019-03-21T19:22:54.031863Z,-0.126817,-0.7612800000000001,0.297441
2019-03-21T19:22:54.231863Z,1.263153,-1.064685,0.583563
2019-03-21T19:22:54.432863Z,1.582999,-0.16484200000000002,0.273012
2019-03-21T19:22:54.633863Z,1.4007120000000002,0.35954899999999995,-0.049014
2019-03-21T19:22:54.833863Z,0.365654,0.180451,0.560149
2019-03-21T19:22:55.033863Z,-0.591621,-1.4141059999999999,0.327243
2019-03-21T19:22:55.234863Z,-0.397367,-0.527159,1.166725
2019-03-21T19:22:55.434863Z,-0.063829,-0.715418,0.131216
2019-03-21T19:22:55.635863Z,-0.259267,-0.20544899999999996,0.57502
2019-03-21T19:22:55.836863Z,-0.509318,-1.114285,-0.059959000000000005
2019-03-21T19:22:56.036863Z,0.273863,-1.085892,-0.263437
2019-03-21T19:22:56.237863Z,0.8131649999999999,-0.733104,0.438683
2019-03-21T19:22:56.437863Z,0.165627,-1.299547,1.125513
2019-03-21T19:22:56.638863Z,0.15464,-0.8687520000000001,0.621642
2019-03-21T19:22:56.838863Z,-0.161752,-0.886702,0.12219200000000001
2019-03-21T19:22:57.039863Z,-0.095675,-0.571186,0.388203
2019-03-21T19:22:57.239863Z,-0.10354400000000001,-0.402457,0.129632
2019-03-21T19:22:57.440863Z,-0.452845,-0.596274,-0.236492
2019-03-21T19:22:57.641863Z,-0.508612,0.166153,0.020712
2019-03-21T19:22:57.841863Z,-0.044384,0.527409,-0.42148900000000006
2019-03-21T19:22:58.041863Z,-0.082843,0.637023,0.645041
2019-03-21T19:22:58.242863Z,-0.533832,-1.55199,2.062516
2019-03-21T19:22:58.442863Z,0.34621,-1.590194,0.221529
2019-03-21T19:22:58.643863Z,0.015274000000000001,-0.6272939999999999,-0.075499
2019-03-21T19:22:58.844863Z,0.166374,-0.114828,-0.277515
2019-03-21T19:22:59.044863Z,-0.019844,0.291577,0.518604
2019-03-21T19:22:59.245863Z,-1.642195,-2.532981,0.653259
2019-03-21T19:22:59.445863Z,-1.9008619999999998,-2.7657979999999998,0.953242
2019-03-21T19:22:59.645863Z,-1.143642,-0.915014,0.9287059999999999
2019-03-21T19:22:59.846863Z,-1.113901,-1.6756900000000001,1.544096
2019-03-21T19:23:00.065863Z,-0.951023,-2.130835,0.36333000000000004
2019-03-21T19:23:00.248863Z,-0.560363,-1.2671709999999998,0.066725
2019-03-21T19:23:00.448863Z,-0.44379799999999997,-1.011607,0.016904
2019-03-21T19:23:00.649863Z,-0.715938,-0.36635100000000004,0.974289
2019-03-21T19:23:00.848863Z,-0.21420100000000003,-2.124773,1.819014
2019-03-21T19:23:01.049863Z,-0.783503,-1.375699,0.004601
2019-03-21T19:23:01.250863Z,-1.1564709999999998,-0.527123,-0.92033
2019-03-21T19:23:01.450863Z,-0.6225189999999999,0.036856,0.257576
2019-03-21T19:23:01.651863Z,-0.525907,-1.702609,0.5225920000000001
2019-03-21T19:23:01.851863Z,-0.152815,-2.3521240000000003,0.935642
2019-03-21T19:23:02.051863Z,-0.219894,-1.269806,0.507223
2019-03-21T19:23:02.252863Z,-0.460816,-1.600884,0.43001999999999996
2019-03-21T19:23:02.453863Z,-0.9565549999999999,-1.785031,-0.118653
2019-03-21T19:23:02.665863Z,-0.94721,-1.2793700000000001,0.47762899999999997
2019-03-21T19:23:02.853863Z,-0.9297620000000001,-1.301099,-0.18065799999999999
2019-03-21T19:23:03.054863Z,-1.6659439999999999,-0.9165059999999999,-0.010735
2019-03-21T19:23:03.254863Z,-0.38913000000000003,-0.10233400000000001,0.508686
2019-03-21T19:23:03.455863Z,-0.708313,-0.04056,0.6620699999999999
2019-03-21T19:23:03.656863Z,-1.035756,-2.169603,2.094589
2019-03-21T19:23:03.855863Z,-0.044987,-2.855999,0.5922029999999999
2019-03-21T19:23:04.056863Z,-0.732568,-0.89999,0.261577
2019-03-21T19:23:04.257863Z,-0.732745,-0.51158,0.8026300000000001
2019-03-21T19:23:04.457863Z,-1.7151759999999998,-1.753656,1.784556
2019-03-21T19:23:04.657863Z,-1.548551,-2.625819,-0.268178
2019-03-21T19:23:04.858863Z,-0.712363,-0.725487,0.757554
2019-03-21T19:23:05.058863Z,-0.8553870000000001,-1.029313,0.7431399999999999
2019-03-21T19:23:05.259863Z,-0.9299299999999999,-0.9957520000000001,0.115104
2019-03-21T19:23:05.485863Z,-1.186849,-0.695036,0.613513
2019-03-21T19:23:05.660863Z,-1.6822689999999998,-0.719305,0.947203
2019-03-21T19:23:05.860863Z,-1.466234,-0.7018770000000001,0.896561
2019-03-21T19:23:06.061863Z,-2.27006,-0.529076,0.058288
2019-03-21T19:23:06.261863Z,-2.841869,-0.979693,0.904251
2019-03-21T19:23:06.462863Z,-1.676928,0.049063,-0.038338
2019-03-21T19:23:06.663863Z,0.009095,0.598474,-0.312529
2019-03-21T19:23:06.863863Z,2.481044,1.070308,0.295098
2019-03-21T19:23:07.063863Z,1.382514,2.242559,-0.012765
2019-03-21T19:23:07.264863Z,0.70613,1.973486,-0.0035619999999999996
2019-03-21T19:23:07.464863Z,0.130704,0.201016,1.7851419999999998
2019-03-21T19:23:07.665863Z,-0.760702,-0.9532450000000001,-1.116041
2019-03-21T19:23:07.866863Z,-0.785238,0.114824,-0.7463
2019-03-21T19:23:08.067863Z,-1.465177,0.694497,0.735517
2019-03-21T19:23:08.267863Z,-1.290229,0.889006,0.364554
2019-03-21T19:23:08.467863Z,-0.144176,0.62703,-0.294475
2019-03-21T19:23:08.668863Z,0.32114699999999996,0.012882,-0.087608
2019-03-21T19:23:08.868863Z,-0.188816,0.8685860000000001,0.470728
2019-03-21T19:23:09.069863Z,-0.326299,0.370032,-0.002475
2019-03-21T19:23:09.269863Z,-0.11417999999999999,0.342522,-0.772687
2019-03-21T19:23:09.469863Z,0.08396100000000001,0.723422,0.034399
2019-03-21T19:23:09.670863Z,-0.182337,0.671871,-0.148769
2019-03-21T19:23:09.871863Z,-0.741065,0.842491,-0.431621
2019-03-21T19:23:10.071863Z,-0.35215100000000005,1.1400700000000001,-0.29746999999999996
2019-03-21T19:23:10.272863Z,-0.215602,1.152421,-0.255748
2019-03-21T19:23:10.472863Z,-0.229731,1.8393110000000001,0.375739
2019-03-21T19:23:10.672863Z,-0.196739,-0.064174,0.11825699999999999
2019-03-21T19:23:10.873863Z,0.588409,-0.306625,-0.922373
2019-03-21T19:23:11.074863Z,0.8653190000000001,0.6618229999999999,-0.296218
2019-03-21T19:23:11.275863Z,0.499557,0.936116,-0.433551
2019-03-21T19:23:11.475863Z,0.257196,0.692755,0.664289
2019-03-21T19:23:11.675863Z,-0.273675,-0.589442,-0.6752090000000001
2019-03-21T19:23:11.875863Z,0.575713,0.324907,0.10999400000000001
2019-03-21T19:23:12.077863Z,0.205911,0.369906,-0.5217689999999999
2019-03-21T19:23:12.277863Z,0.099841,0.833209,0.445615
2019-03-21T19:23:12.477863Z,-0.145012,-0.630532,0.017419999999999998
2019-03-21T19:23:12.678863Z,0.415628,0.026591000000000004,0.689909
2019-03-21T19:23:12.878863Z,0.058141,0.48439899999999997,0.31273
2019-03-21T19:23:13.078863Z,0.442583,-0.037403,-0.424413
2019-03-21T19:23:13.279863Z,0.25951199999999996,0.07812000000000001,0.814816
2019-03-21T19:23:13.479863Z,0.42745200000000005,0.475228,-0.120399
2019-03-21T19:23:13.681863Z,0.5463359999999999,0.8648819999999999,-0.74012
2019-03-21T19:23:13.881863Z,-0.380162,0.43053500000000006,-0.278401
2019-03-21T19:23:14.081863Z,-1.0349270000000002,0.844774,-0.901524
2019-03-21T19:23:14.281863Z,0.011766,1.444317,-0.307006
2019-03-21T19:23:14.482863Z,-0.16092,1.296686,0.512922
2019-03-21T19:23:14.682863Z,-0.458233,0.074051,1.193384
2019-03-21T19:23:14.883863Z,-0.259905,-0.8158810000000001,-0.72259
2019-03-21T19:23:15.084863Z,0.179109,0.11820499999999999,0.228613
2019-03-21T19:23:15.284863Z,0.484121,0.491536,-0.4386
2019-03-21T19:23:15.484863Z,0.328759,0.349642,0.835182
2019-03-21T19:23:15.685863Z,-0.766185,-1.524116,-0.799273
2019-03-21T19:23:15.885863Z,-0.480293,-0.483613,0.302359
2019-03-21T19:23:16.086863Z,-0.527277,-0.202483,-0.17415
2019-03-21T19:23:16.287863Z,-0.21527399999999997,0.223821,1.025518
2019-03-21T19:23:16.487863Z,0.009974,-1.242532,-0.642319
2019-03-21T19:23:16.687863Z,0.7207939999999999,-1.253747,0.5304369999999999
2019-03-21T19:23:16.893863Z,0.262884,-0.388352,0.091519
2019-03-21T19:23:17.088863Z,0.09664,0.194418,0.34334899999999996
2019-03-21T19:23:17.289863Z,0.030519,-0.51312,2.1103400000000003
2019-03-21T19:23:17.490863Z,-0.296967,-1.794729,0.465563
2019-03-21T19:23:17.690863Z,-0.645918,-0.41557200000000005,0.030562
2019-03-21T19:23:17.890863Z,-0.832382,-0.650029,0.584591
2019-03-21T19:23:18.091863Z,-0.348877,-0.606518,0.686238
2019-03-21T19:23:18.291863Z,-0.16802,-0.27416999999999997,0.701183
2019-03-21T19:23:18.494863Z,-0.16673,-0.25921900000000003,-0.262203
2019-03-21T19:23:18.693863Z,-0.188105,-0.370431,0.196181
2019-03-21T19:23:18.892863Z,-0.365726,-0.468696,0.09944299999999999
2019-03-21T19:23:19.093863Z,0.465405,-0.49656300000000003,-0.426228
2019-03-21T19:23:19.294863Z,1.2218360000000001,0.446738,0.328464
2019-03-21T19:23:19.494863Z,0.915942,1.163569,-0.826356
2019-03-21T19:23:19.694863Z,0.9244030000000001,0.6337189999999999,0.8390280000000001
2019-03-21T19:23:19.895863Z,0.40424099999999996,-0.8298059999999999,-0.445741
2019-03-21T19:23:20.106863Z,0.070292,-1.173146,-0.351306
2019-03-21T19:23:20.296863Z,0.389245,0.016125999999999998,-0.321552
2019-03-21T19:23:20.497863Z,0.220813,0.12599200000000002,-0.5545760000000001
2019-03-21T19:23:20.697863Z,0.506458,-0.23288899999999998,1.551023
2019-03-21T19:23:20.897863Z,1.188313,-1.104518,-0.096117
2019-03-21T19:23:21.098863Z,1.9144169999999998,0.088285,0.525101
2019-03-21T19:23:21.298863Z,0.82844,-0.382753,-0.38421900000000003
2019-03-21T19:23:21.499863Z,0.833727,-0.522308,-0.07774500000000001
2019-03-21T19:23:21.700863Z,0.7969729999999999,-0.5025930000000001,0.341278
2019-03-21T19:23:21.900863Z,0.536533,-1.258887,0.506575
2019-03-21T19:23:22.101863Z,0.390152,-0.175176,0.259788
2019-03-21T19:23:22.302863Z,0.283469,-0.8991549999999999,0.650704
2019-03-21T19:23:22.501863Z,0.574277,-0.582205,0.677934
2019-03-21T19:23:22.702863Z,0.351011,-0.513317,-0.201478
2019-03-21T19:23:22.903863Z,0.002281,-0.737613,0.794411
2019-03-21T19:23:23.103863Z,0.270045,-0.816448,-0.19634100000000002
2019-03-21T19:23:23.303863Z,0.23440999999999998,-0.590108,0.507957
2019-03-21T19:23:23.504863Z,-0.10787000000000001,0.057261,0.059489999999999994
2019-03-21T19:23:23.704863Z,0.905661,-0.285277,0.6878989999999999
2019-03-21T19:23:23.905863Z,0.059411,-1.7852709999999998,0.16817100000000001
2019-03-21T19:23:24.105863Z,-0.9104399999999999,-1.1616879999999998,0.49246
2019-03-21T19:23:24.306863Z,-0.9029229999999999,-0.906974,-0.207765
2019-03-21T19:23:24.506863Z,-0.324952,0.21578000000000003,0.573005
2019-03-21T19:23:24.707863Z,-0.494054,0.22206199999999998,1.043333
2019-03-21T19:23:24.907863Z,0.5095109999999999,-1.5756370000000002,-0.273905
2019-03-21T19:23:25.108863Z,1.022546,-0.725435,-0.473108
2019-03-21T19:23:25.308863Z,0.972723,0.17313399999999998,0.31095500000000004
2019-03-21T19:23:25.508863Z,0.667806,-0.133714,-0.45120699999999997
2019-03-21T19:23:25.709863Z,0.814962,0.018369999999999997,-0.26650799999999997
2019-03-21T19:23:25.910863Z,1.032203,0.422246,0.047798
2019-03-21T19:23:26.110863Z,0.7502850000000001,0.295051,-0.126702
2019-03-21T19:23:26.311863Z,0.33365700000000004,0.387739,-0.032941000000000005
2019-03-21T19:23:26.511863Z,0.154702,0.37545500000000004,0.069883
2019-03-21T19:23:26.711863Z,0.540117,-0.8501299999999999,0.8528020000000001
2019-03-21T19:23:26.912863Z,-0.132071,-1.442767,0.316128
2019-03-21T19:23:27.113863Z,-0.06880700000000001,-0.642579,-0.280168
2019-03-21T19:23:27.313863Z,-0.27267800000000003,-0.288369,-0.435486
2019-03-21T19:23:27.513863Z,-0.051769,0.153626,0.217096
2019-03-21T19:23:27.714863Z,-0.014357,-0.954527,1.5146620000000002
2019-03-21T19:23:27.915863Z,1.005462,-1.354735,-0.9545370000000001
2019-03-21T19:23:28.115863Z,0.8962829999999999,0.156204,0.085649
2019-03-21T19:23:28.316863Z,0.140529,-1.792909,1.381408
2019-03-21T19:23:28.516863Z,0.99687,-0.420667,0.399016
2019-03-21T19:23:28.717863Z,0.8919370000000001,-0.382664,-0.083873
2019-03-21T19:23:28.917863Z,0.47418000000000005,-0.506509,0.337636
2019-03-21T19:23:29.117863Z,0.174044,-0.385844,0.49221400000000004
2019-03-21T19:23:29.318863Z,0.549372,-0.446342,0.868936
2019-03-21T19:23:29.518863Z,0.12401300000000001,0.015802,0.149702
2019-03-21T19:23:29.719863Z,-0.044413,0.083582,-0.262764
2019-03-21T19:23:29.919863Z,0.227559,0.5172439999999999,-0.391017
2019-03-21T19:23:30.120863Z,0.004525,0.804972,-0.438022
2019-03-21T19:23:30.320863Z,0.373592,-0.037451,0.498799
2019-03-21T19:23:30.521863Z,0.8914540000000001,-0.7350399999999999,-0.406373
2019-03-21T19:23:30.722863Z,1.211514,-0.402902,0.031575
2019-03-21T19:23:30.922863Z,1.386218,0.46475600000000006,0.158146
2019-03-21T19:23:31.122863Z,1.025884,0.6153,0.566369
2019-03-21T19:23:31.323863Z,0.42676000000000003,0.37197199999999997,1.1715879999999999
2019-03-21T19:23:31.523863Z,2.2208360000000003,-1.0565870000000002,1.9575
2019-03-21T19:23:31.724863Z,1.115696,-0.395394,-1.936194
2019-03-21T19:23:31.925863Z,0.561596,0.8450639999999999,0.059802
2019-03-21T19:23:32.125863Z,0.23324499999999998,0.718533,-0.449284
2019-03-21T19:23:32.325863Z,1.6265379999999998,0.8912370000000001,0.985849
2019-03-21T19:23:32.526863Z,0.9251530000000001,0.100625,-1.5463149999999999
2019-03-21T19:23:32.727863Z,1.559124,0.423372,0.650486
2019-03-21T19:23:32.928863Z,1.617171,0.564431,1.204452
2019-03-21T19:23:33.128863Z,0.71016,0.232073,-0.7995899999999999
2019-03-21T19:23:33.328863Z,0.8618180000000001,1.0596649999999999,-0.214042
2019-03-21T19:23:33.529863Z,0.783111,0.9373290000000001,-1.545877
2019-03-21T19:23:33.729863Z,0.300846,0.573942,-0.3209
2019-03-21T19:23:33.929863Z,0.289765,0.352333,0.146743
2019-03-21T19:23:34.130863Z,-0.19602999999999998,0.137406,-0.014471000000000001
2019-03-21T19:23:34.331863Z,0.6411899999999999,0.564159,-0.020394
2019-03-21T19:23:34.531863Z,0.525576,0.49761700000000003,-0.963211
2019-03-21T19:23:34.731863Z,1.140809,0.82157,1.114079
2019-03-21T19:23:34.947863Z,-0.092973,-0.492094,-0.058039999999999994
2019-03-21T19:23:35.136863Z,-0.8398370000000001,-0.680886,-0.766997
2019-03-21T19:23:35.332863Z,-0.23182399999999997,0.166462,-1.2044350000000001
2019-03-21T19:23:35.533863Z,0.13943599999999998,1.131109,-0.543081
2019-03-21T19:23:35.733863Z,-0.572408,-0.197795,0.9953690000000001
2019-03-21T19:23:35.934863Z,0.359183,-2.106375,-0.48008199999999995
2019-03-21T19:23:36.134863Z,0.136974,-0.777177,-1.358999
2019-03-21T19:23:36.334863Z,0.6226430000000001,-0.217192,0.7106939999999999
2019-03-21T19:23:36.535863Z,-0.874434,-1.9286259999999997,-0.680804
2019-03-21T19:23:36.736863Z,0.34733600000000003,-0.9064969999999999,-0.07497000000000001
2019-03-21T19:23:36.936863Z,-0.094825,-1.3185040000000001,0.770419
2019-03-21T19:23:37.137863Z,-0.084218,-1.006068,-0.06197999999999999
2019-03-21T19:23:37.337863Z,0.23861,-0.9636870000000001,0.486411
2019-03-21T19:23:37.538863Z,0.284643,-0.986176,0.628568
2019-03-21T19:23:37.738863Z,0.162699,-0.9440149999999999,0.844722
2019-03-21T19:23:37.949863Z,0.313738,-0.8391290000000001,1.2719
2019-03-21T19:23:38.139863Z,0.08721699999999999,-0.574275,0.46329
2019-03-21T19:23:38.339863Z,-0.527722,-0.425804,0.182563
2019-03-21T19:23:38.540863Z,0.094264,0.20592199999999997,0.405149
2019-03-21T19:23:38.741863Z,-0.24220999999999998,0.046139,0.019268
2019-03-21T19:23:38.943863Z,-0.695204,-0.365296,1.635569
2019-03-21T19:23:39.142863Z,-0.46349799999999997,-2.149889,1.184142
2019-03-21T19:23:39.342863Z,0.558747,-1.9633900000000002,-0.30806500000000003
2019-03-21T19:23:39.542863Z,0.086237,-0.340625,0.482047
2019-03-21T19:23:39.744863Z,0.5802470000000001,0.10217999999999999,0.125212
2019-03-21T19:23:39.943863Z,-0.250324,-1.205783,2.613082
2019-03-21T19:23:40.144863Z,0.479332,-1.727207,-0.59262
2019-03-21T19:23:40.345863Z,0.287504,-1.0616459999999999,-0.99245
2019-03-21T19:23:40.545863Z,0.07637100000000001,0.387413,0.514596
2019-03-21T19:23:40.746863Z,-0.07508200000000001,0.008463,0.11644600000000001
2019-03-21T19:23:40.946863Z,0.373348,-1.151347,0.23812399999999997
2019-03-21T19:23:41.146863Z,1.180857,-1.472512,0.417575
2019-03-21T19:23:41.347863Z,0.422875,-1.233003,1.05063
2019-03-21T19:23:41.548863Z,0.410257,-1.368655,1.742853
2019-03-21T19:23:41.748863Z,0.08741399999999999,-1.3613,0.9257709999999999
2019-03-21T19:23:41.948863Z,0.550585,-0.7839470000000001,0.809344
2019-03-21T19:23:42.149863Z,-0.171279,-1.223414,1.6344290000000001
2019-03-21T19:23:42.349863Z,-0.573259,-1.260626,0.642085
2019-03-21T19:23:42.549863Z,-0.622423,-0.478059,1.513413
2019-03-21T19:23:42.750863Z,-0.323788,-0.304061,-0.128208
2019-03-21T19:23:42.950863Z,-0.830099,-0.181322,-0.03476
2019-03-21T19:23:43.151863Z,-0.279925,-0.381126,0.127308
2019-03-21T19:23:43.351863Z,0.073414,-1.209977,-0.68996
2019-03-21T19:23:43.552863Z,0.44577100000000003,-0.881258,0.32821300000000003
2019-03-21T19:23:43.753863Z,0.9727610000000001,0.237198,-0.407551
2019-03-21T19:23:43.953863Z,0.6521819999999999,0.911632,1.0377399999999999
2019-03-21T19:23:44.153863Z,0.067289,-0.931242,-1.0437299999999998
2019-03-21T19:23:44.353863Z,-1.141646,-2.283156,0.22110500000000002
2019-03-21T19:23:44.554863Z,0.319537,-0.627501,0.147525
2019-03-21T19:23:44.754863Z,0.452637,-0.528908,0.128942
2019-03-21T19:23:44.955863Z,0.397422,-0.408566,1.8708599999999997
2019-03-21T19:23:45.155863Z,0.078423,-0.6626029999999999,-0.399417
2019-03-21T19:23:45.356863Z,0.724441,-0.5375300000000001,-1.195209
2019-03-21T19:23:45.556863Z,0.506199,-0.230742,0.26722199999999996
2019-03-21T19:23:45.785863Z,0.653139,-0.166955,0.994149
2019-03-21T19:23:45.957863Z,0.250795,-0.16864500000000002,0.129407
2019-03-21T19:23:46.157863Z,-0.026879000000000004,-0.16392400000000001,0.17064400000000002
2019-03-21T19:23:46.358863Z,0.771626,0.230667,0.805431
2019-03-21T19:23:46.558863Z,-0.396912,0.396512,-0.802711
2019-03-21T19:23:46.759863Z,0.269512,1.064573,0.5675140000000001
2019-03-21T19:23:46.960863Z,0.725058,-0.21683200000000002,1.045053
2019-03-21T19:23:47.160863Z,-0.067414,-1.166444,-0.593692
2019-03-21T19:23:47.360863Z,-0.598453,-0.394762,-0.375644
2019-03-21T19:23:47.561863Z,-0.61135,-0.142783,-0.207294
2019-03-21T19:23:47.761863Z,-0.26103899999999997,0.28692,0.309743
2019-03-21T19:23:47.962863Z,-1.32602,-0.9233120000000001,1.127157
2019-03-21T19:23:48.162863Z,-0.607538,-1.8894959999999998,-0.45857200000000004
2019-03-21T19:23:48.362863Z,-1.274325,-1.5286629999999999,0.11114
2019-03-21T19:23:48.563863Z,-0.343206,-0.786562,0.10348900000000001
2019-03-21T19:23:48.764863Z,-0.19750399999999999,-0.336134,0.253654
2019-03-21T19:23:48.964863Z,-0.508011,-0.713264,0.328332
2019-03-21T19:23:49.165863Z,-0.647259,-0.014524,0.231256
2019-03-21T19:23:49.395863Z,-0.663925,0.2802,-0.099195
2019-03-21T19:23:49.565863Z,-1.062985,-0.133359,-0.31798200000000004
2019-03-21T19:23:49.766863Z,-0.675917,-0.313948,0.054887
2019-03-21T19:23:49.967863Z,-0.777675,-1.390226,0.22991999999999999
2019-03-21T19:23:50.167863Z,-0.5656760000000001,-2.0855360000000003,0.242785
2019-03-21T19:23:50.367863Z,2.064023,1.064171,0.467445
2019-03-21T19:23:50.568863Z,1.8546619999999998,1.479241,-0.160678
2019-03-21T19:23:50.768863Z,0.227177,0.734699,0.611279
2019-03-21T19:23:50.969863Z,1.190507,-0.372431,-0.8804049999999999
2019-03-21T19:23:51.170863Z,1.266209,-0.39626,0.202826
2019-03-21T19:23:51.370863Z,0.810211,0.437511,-0.044108
2019-03-21T19:23:51.570863Z,0.553412,0.721694,0.143643
2019-03-21T19:23:51.771863Z,0.342684,-0.529933,1.575716
2019-03-21T19:23:51.971863Z,-0.10261400000000001,-0.29639099999999996,0.047529
2019-03-21T19:23:52.171863Z,-0.606671,-1.205293,1.193601
2019-03-21T19:23:52.372863Z,0.05335499999999999,-0.20237,-0.501262
2019-03-21T19:23:52.572863Z,1.023918,0.744384,-0.61698
2019-03-21T19:23:52.773863Z,-0.101254,-0.084024,-0.307261
2019-03-21T19:23:52.974863Z,0.311665,0.223577,0.25007199999999996
2019-03-21T19:23:53.174863Z,0.353092,-0.236698,0.56743
2019-03-21T19:23:53.375863Z,0.253755,-0.412943,-0.14383800000000002
2019-03-21T19:23:53.575863Z,-0.159296,-0.08661100000000001,-0.265098
2019-03-21T19:23:53.791863Z,0.591967,-0.544774,-0.649928
2019-03-21T19:23:53.976863Z,0.296047,-0.345596,0.030097000000000002
2019-03-21T19:23:54.177863Z,0.37872,-0.250384,0.087982
2019-03-21T19:23:54.396863Z,0.421641,-0.039549,-0.162074
2019-03-21T19:23:54.577863Z,0.73801,0.113593,-0.065639
2019-03-21T19:23:54.778863Z,0.559928,-0.017581,0.262894
2019-03-21T19:23:54.978863Z,1.184516,-0.030899,-0.881338
2019-03-21T19:23:55.178863Z,0.363886,-0.547851,-0.042991
2019-03-21T19:23:55.379863Z,-0.34160799999999997,-1.248717,0.143233
2019-03-21T19:23:55.580863Z,-0.27324499999999996,-0.22310300000000002,1.092415
2019-03-21T19:23:55.780863Z,-0.356923,0.007064,-0.517926
2019-03-21T19:23:55.981863Z,-0.6972550000000001,0.553687,-0.14183099999999998
2019-03-21T19:23:56.181863Z,-0.495569,0.006231,1.628327
2019-03-21T19:23:56.381863Z,0.889965,-1.038925,-1.26843
2019-03-21T19:23:56.582863Z,0.656725,-0.42796999999999996,-0.075304
2019-03-21T19:23:56.782863Z,0.38745,-0.035531,-0.327675
2019-03-21T19:23:56.982863Z,0.947264,0.285331,0.653341
2019-03-21T19:23:57.183863Z,0.613316,-0.501866,-0.481756
2019-03-21T19:23:57.383863Z,0.333407,-0.30393600000000004,-0.11470899999999999
2019-03-21T19:23:57.615863Z,0.06124500000000001,0.051224,0.540098
2019-03-21T19:23:57.785863Z,0.204552,0.28757,-0.171847
2019-03-21T19:23:57.985863Z,0.14028800000000002,0.381837,-0.682856
2019-03-21T19:23:58.185863Z,0.579816,0.790557,-0.181232
2019-03-21T19:23:58.386863Z,0.46564300000000003,0.642582,1.084299
2019-03-21T19:23:58.587863Z,-0.103332,-0.893805,-0.691461
2019-03-21T19:23:58.787863Z,0.757167,-1.288386,0.19964400000000002
2019-03-21T19:23:58.987863Z,0.44811899999999993,-0.48153999999999997,-0.10776300000000001
2019-03-21T19:23:59.187863Z,0.43986099999999995,-0.009244,0.44759799999999994
2019-03-21T19:23:59.388863Z,0.753737,-0.214727,1.457431
2019-03-21T19:23:59.589863Z,0.100908,-1.630009,0.548837
2019-03-21T19:23:59.789863Z,0.415962,-1.0598049999999999,-1.154825
2019-03-21T19:23:59.989863Z,0.096934,-0.056405,2.066694
2019-03-21T19:24:00.190863Z,0.039448000000000004,-0.11211600000000001,1.031281
2019-03-21T19:24:00.390863Z,0.5974729999999999,0.091396,-0.342287
2019-03-21T19:24:00.605863Z,0.534187,0.25643499999999997,0.656154
2019-03-21T19:24:00.792863Z,-0.222908,0.081866,-0.37247800000000003
2019-03-21T19:24:00.992863Z,-0.472844,-0.16283,-0.147984
2019-03-21T19:24:01.192863Z,-0.071865,-0.030706,-0.053080999999999996
2019-03-21T19:24:01.393863Z,0.41647799999999996,0.09224,0.05142000000000001
2019-03-21T19:24:01.593863Z,1.733307,0.657691,-0.081368
2019-03-21T19:24:01.794863Z,0.941664,0.395327,0.27925
2019-03-21T19:24:01.995863Z,0.364626,-1.304691,0.6139359999999999
2019-03-21T19:24:02.194863Z,-1.0491540000000001,-1.2378280000000002,0.782341
2019-03-21T19:24:02.395863Z,-0.663011,-0.20820999999999998,-0.39264899999999997
2019-03-21T19:24:02.596863Z,0.088942,0.35633400000000004,-0.119675
2019-03-21T19:24:02.796863Z,-0.291769,-1.119947,1.040482
2019-03-21T19:24:02.996863Z,-0.14727300000000002,-2.294629,2.539388
2019-03-21T19:24:03.197863Z,0.06627100000000001,-1.013343,-1.578777
2019-03-21T19:24:03.397863Z,-0.148007,-0.14924400000000002,1.2234690000000001
2019-03-21T19:24:03.598863Z,0.14105499999999999,-1.581501,-0.018779
2019-03-21T19:24:03.798863Z,-1.412794,-0.987241,-0.271785
2019-03-21T19:24:03.999863Z,-0.671638,-1.043203,0.540502
2019-03-21T19:24:04.199863Z,-0.605653,-0.968616,1.518183
2019-03-21T19:24:04.400863Z,-0.256536,-0.35486799999999996,0.310684
2019-03-21T19:24:04.600863Z,-0.561016,-0.387949,0.47148900000000005
2019-03-21T19:24:04.801863Z,-0.933517,-1.0000959999999999,0.196526
2019-03-21T19:24:05.002863Z,-0.443467,-0.6113270000000001,1.0209620000000001
2019-03-21T19:24:05.202863Z,-0.865607,-0.675035,0.251513
2019-03-21T19:24:05.402863Z,-1.0730959999999998,-0.398424,0.388139
2019-03-21T19:24:05.603863Z,-0.362948,0.118309,-0.188228
2019-03-21T19:24:05.803863Z,-0.296159,0.278246,0.11898099999999999
2019-03-21T19:24:06.003863Z,-1.7489240000000001,-2.320294,1.56332
2019-03-21T19:24:06.204863Z,-1.124182,-2.577302,0.35220799999999997
2019-03-21T19:24:06.404863Z,-1.282057,-1.376221,-0.388995
2019-03-21T19:24:06.604863Z,-0.999229,-0.5863079999999999,2.260836
2019-03-21T19:24:06.805863Z,-2.012552,-1.3814959999999998,2.92326
2019-03-21T19:24:07.005863Z,-1.726761,-2.6324509999999997,-0.580667
2019-03-21T19:24:07.206863Z,-0.9117719999999999,-0.551383,0.818495
2019-03-21T19:24:07.407863Z,-0.118532,-0.312666,0.883209
2019-03-21T19:24:07.607863Z,-2.2187930000000002,-1.034326,-0.157164
2019-03-21T19:24:07.807863Z,-0.864582,-0.908734,0.209365
2019-03-21T19:24:08.008863Z,-0.929823,-0.535377,0.600631
2019-03-21T19:24:08.208863Z,-1.011159,-0.394014,0.225144
2019-03-21T19:24:08.408863Z,-1.418777,-0.10893299999999999,0.259519
2019-03-21T19:24:08.609863Z,-1.100011,-0.127747,1.265066
2019-03-21T19:24:08.809863Z,0.16664600000000002,0.025144,-0.159349
