Datetime,accx,accy,accz
2019-05-01T20:59:49.917445Z,0.507323,0.658748,-0.26158000000000003
2019-05-01T20:59:50.118445Z,0.046849,0.1237,0.009415999999999999
2019-05-01T20:59:50.320445Z,0.9687389999999999,-0.572431,0.46428800000000003
2019-05-01T20:59:50.519445Z,0.7844439999999999,0.105679,-0.677771
2019-05-01T20:59:50.719445Z,0.125409,0.495093,-0.5777359999999999
2019-05-01T20:59:50.979445Z,-0.079488,1.235665,-0.423983
2019-05-01T20:59:51.125445Z,-0.8675870000000001,-0.365933,0.536003
2019-05-01T20:59:51.327445Z,-0.48652799999999996,-0.8563379999999999,-0.312492
2019-05-01T20:59:51.519445Z,-0.129209,0.255316,-0.402264
2019-05-01T20:59:51.717445Z,0.121153,0.671886,0.423153
2019-05-01T20:59:51.919445Z,-0.031326,-0.706965,1.038476
2019-05-01T20:59:52.121445Z,0.212441,-1.25595,-0.645051
2019-05-01T20:59:52.338445Z,-0.76015,0.510005,-1.153549
2019-05-01T20:59:52.520445Z,-0.131721,1.489426,0.62964
2019-05-01T20:59:52.719445Z,0.055523,-0.615577,0.902509
2019-05-01T20:59:52.918445Z,0.633469,-0.9334129999999999,-0.860382
2019-05-01T20:59:53.125445Z,0.195444,0.224546,0.01745
2019-05-01T20:59:53.321445Z,-0.234843,0.608735,0.557376
2019-05-01T20:59:53.520445Z,0.403411,-0.7912939999999999,0.230609
2019-05-01T20:59:53.721445Z,0.551298,-0.522454,-0.490942
2019-05-01T20:59:53.921445Z,-0.344656,0.309741,0.034384
2019-05-01T20:59:54.120445Z,-0.25611,0.8585010000000001,0.404641
2019-05-01T20:59:54.327445Z,0.032641,-1.21004,0.651141
2019-05-01T20:59:54.526445Z,0.18395799999999998,-0.8340280000000001,-0.8925649999999999
2019-05-01T20:59:54.719445Z,0.5222319999999999,0.245577,0.715916
2019-05-01T20:59:54.920445Z,0.956068,-0.32166999999999996,1.17393
2019-05-01T20:59:55.126445Z,1.137125,-0.78498,-0.318483
2019-05-01T20:59:55.320445Z,0.606391,-0.524879,0.236421
2019-05-01T20:59:55.522445Z,-0.531709,0.12632100000000002,0.650396
2019-05-01T20:59:55.726445Z,-0.374718,-0.446744,0.22248400000000002
2019-05-01T20:59:55.923445Z,-0.6524770000000001,-1.293856,0.0669
2019-05-01T20:59:56.123445Z,-0.444616,-1.294409,0.29384299999999997
2019-05-01T20:59:56.323445Z,-0.566239,-0.326203,-0.29920599999999997
2019-05-01T20:59:56.524445Z,-0.602187,0.337475,0.216229
2019-05-01T20:59:56.730445Z,-0.539076,-0.984682,0.5038239999999999
2019-05-01T20:59:56.928445Z,0.17466600000000002,-0.8457379999999999,-0.035494
2019-05-01T20:59:57.122445Z,0.368989,-0.029564,-0.080024
2019-05-01T20:59:57.323445Z,0.382251,0.141759,0.335903
2019-05-01T20:59:57.524445Z,-1.624085,-1.103826,0.617023
2019-05-01T20:59:57.725445Z,-0.14894100000000002,-1.936018,1.151799
2019-05-01T20:59:57.924445Z,0.343085,-0.9132889999999999,0.024772
2019-05-01T20:59:58.122445Z,0.11215599999999999,-0.261168,0.178834
2019-05-01T20:59:58.322445Z,-0.451017,0.009515000000000001,0.189172
2019-05-01T20:59:58.521445Z,-0.180176,-0.45533900000000005,0.302358
2019-05-01T20:59:58.723445Z,0.047429,-0.7009350000000001,-0.250449
2019-05-01T20:59:58.924445Z,-0.24507199999999998,0.007928,-0.191145
2019-05-01T20:59:59.122445Z,0.035858,0.395853,0.24222800000000003
2019-05-01T20:59:59.326445Z,-0.48916000000000004,0.197545,0.7498090000000001
2019-05-01T20:59:59.526445Z,0.371849,-1.31797,0.41038100000000005
2019-05-01T20:59:59.744445Z,0.279918,-0.8316520000000001,-0.49511099999999997
2019-05-01T20:59:59.929445Z,-0.287323,-0.05786,0.08205499999999999
2019-05-01T21:00:00.124445Z,-0.5250130000000001,0.383241,0.134658
2019-05-01T21:00:00.323445Z,0.22264699999999998,-0.810066,0.544752
2019-05-01T21:00:00.532445Z,0.122205,-0.869009,0.082286
2019-05-01T21:00:00.725445Z,-0.334688,-0.202704,-0.35679099999999997
2019-05-01T21:00:00.924445Z,-0.471484,0.624342,0.292808
2019-05-01T21:00:01.125445Z,-0.248717,-0.337467,0.40678000000000003
2019-05-01T21:00:01.330445Z,0.226885,-0.949168,0.323052
2019-05-01T21:00:01.524445Z,0.11901500000000001,0.010056,-0.530241
2019-05-01T21:00:01.727445Z,-0.056937,0.590114,0.179837
2019-05-01T21:00:01.927445Z,-0.188372,-0.559138,1.137042
2019-05-01T21:00:02.126445Z,0.580264,-0.49983500000000003,-1.197663
2019-05-01T21:00:02.324445Z,0.006648,0.514046,-0.5928640000000001
2019-05-01T21:00:02.526445Z,-1.103632,0.30935300000000004,0.38358000000000003
2019-05-01T21:00:02.726445Z,-0.019916,-0.7057220000000001,1.023141
2019-05-01T21:00:02.926445Z,0.28839899999999996,-0.8673059999999999,-0.35647199999999996
2019-05-01T21:00:03.126445Z,-0.11026199999999999,0.229775,-0.398828
2019-05-01T21:00:03.327445Z,-0.352072,0.581232,0.45703
2019-05-01T21:00:03.528445Z,0.571538,-0.859025,0.493536
2019-05-01T21:00:03.726445Z,0.171172,-0.658303,-0.44613400000000003
2019-05-01T21:00:03.927445Z,-0.351123,0.550888,-0.074419
2019-05-01T21:00:04.127445Z,0.138869,0.651226,1.066086
2019-05-01T21:00:04.327445Z,0.120965,-1.000872,0.6663060000000001
2019-05-01T21:00:04.527445Z,0.214637,-0.9290360000000001,-1.031252
2019-05-01T21:00:04.734445Z,-0.692807,0.172093,-0.02823
2019-05-01T21:00:04.933445Z,-0.379819,0.41064700000000004,0.939484
2019-05-01T21:00:05.128445Z,0.26152800000000004,-0.98269,0.45258100000000007
2019-05-01T21:00:05.334445Z,-0.277559,-0.322308,-0.270285
2019-05-01T21:00:05.528445Z,0.191883,-0.166353,-0.215302
2019-05-01T21:00:05.728445Z,0.9715219999999999,0.020401,0.4746
2019-05-01T21:00:05.930445Z,1.3200370000000001,-0.990417,0.707793
2019-05-01T21:00:06.127445Z,2.063294,-1.3961139999999999,0.176291
2019-05-01T21:00:06.328445Z,0.719953,-1.1922030000000001,0.547389
2019-05-01T21:00:06.530445Z,-0.805761,-1.4351180000000001,0.245819
2019-05-01T21:00:06.728445Z,-1.376897,-0.5475220000000001,0.140547
2019-05-01T21:00:06.931445Z,-1.305612,0.084867,-0.235819
2019-05-01T21:00:07.129445Z,-0.16885,-0.8236540000000001,0.021753
2019-05-01T21:00:07.331445Z,0.8774559999999999,-0.65045,0.127707
2019-05-01T21:00:07.570445Z,-0.28139899999999995,-0.210153,-0.314129
2019-05-01T21:00:07.733445Z,-0.9642870000000001,-0.86667,1.564702
2019-05-01T21:00:07.930445Z,-0.10498900000000001,-1.6575509999999998,0.070122
2019-05-01T21:00:08.128445Z,-0.177264,-0.8859809999999999,-0.8776930000000001
2019-05-01T21:00:08.330445Z,-0.611019,0.21641,0.45568800000000004
2019-05-01T21:00:08.531445Z,-0.314264,-0.9338860000000001,1.909793
2019-05-01T21:00:08.731445Z,0.60288,-1.370436,-0.099288
2019-05-01T21:00:08.929445Z,0.138959,-0.861844,-0.419471
2019-05-01T21:00:09.134445Z,-0.040877,-0.16708699999999999,-0.147405
2019-05-01T21:00:09.330445Z,0.293501,0.13478199999999999,0.536583
2019-05-01T21:00:09.547445Z,-0.024749,-0.943681,0.194242
2019-05-01T21:00:09.731445Z,0.520053,-0.723849,-0.128058
2019-05-01T21:00:09.932445Z,0.190272,-0.11106400000000001,-0.055719000000000005
2019-05-01T21:00:10.131445Z,-0.17699,-0.000859,0.923286
2019-05-01T21:00:10.334445Z,0.9322299999999999,-1.182925,0.175024
2019-05-01T21:00:10.530445Z,1.187468,-0.7774340000000001,-0.036762
2019-05-01T21:00:10.733445Z,0.892008,0.040683,-0.0071909999999999995
2019-05-01T21:00:10.931445Z,0.46158999999999994,0.263898,0.22545199999999999
2019-05-01T21:00:11.132445Z,1.401432,-1.5243229999999999,1.0865360000000002
2019-05-01T21:00:11.340445Z,0.781285,-1.344913,0.11236099999999999
2019-05-01T21:00:11.534445Z,-0.836782,-0.582889,-0.18325999999999998
2019-05-01T21:00:11.733445Z,-0.702607,0.24915900000000002,0.699363
2019-05-01T21:00:11.934445Z,0.795313,-1.250497,0.964943
2019-05-01T21:00:12.197445Z,0.512338,-1.136583,-0.74193
2019-05-01T21:00:12.333445Z,-0.5448430000000001,-0.512117,-0.258203
2019-05-01T21:00:12.544445Z,-0.193048,-0.045939,0.912275
2019-05-01T21:00:12.732445Z,-0.125049,-1.2469139999999999,0.7978609999999999
2019-05-01T21:00:12.932445Z,0.076296,-1.14602,-0.095374
2019-05-01T21:00:13.138445Z,-0.362605,-0.436675,-0.43763100000000005
2019-05-01T21:00:13.344445Z,-0.383823,0.692001,0.442796
2019-05-01T21:00:13.534445Z,0.47984899999999997,-1.37589,1.2358200000000001
2019-05-01T21:00:13.738445Z,0.788385,-1.261418,-0.215763
2019-05-01T21:00:13.938445Z,0.004013,-0.31039,-0.53142
2019-05-01T21:00:14.134445Z,-0.022403,0.440855,0.159825
2019-05-01T21:00:14.335445Z,-0.469254,1.029509,0.280584
2019-05-01T21:00:14.533445Z,-1.089551,-1.356962,0.24093699999999998
2019-05-01T21:00:14.734445Z,-1.713866,-2.35051,-0.126353
2019-05-01T21:00:14.939445Z,0.221764,-1.119967,1.018282
2019-05-01T21:00:15.136445Z,0.029636000000000003,0.159,0.276014
2019-05-01T21:00:15.335445Z,0.018196,1.119143,-0.32903000000000004
2019-05-01T21:00:15.540445Z,-0.325768,-1.1429770000000001,-0.284964
2019-05-01T21:00:15.737445Z,1.123733,-0.5420020000000001,0.83401
2019-05-01T21:00:15.937445Z,1.062352,0.058662,-0.747506
2019-05-01T21:00:16.137445Z,0.121144,-0.19806400000000002,1.479471
2019-05-01T21:00:16.335445Z,-0.115043,-0.726409,-0.5745819999999999
2019-05-01T21:00:16.535445Z,-1.089788,-0.16908800000000002,-0.528733
2019-05-01T21:00:16.736445Z,-0.5391229999999999,0.033898000000000005,0.5081479999999999
2019-05-01T21:00:16.937445Z,-0.074352,-0.391949,0.6600159999999999
2019-05-01T21:00:17.137445Z,0.38705700000000004,-0.871332,-0.590615
2019-05-01T21:00:17.336445Z,0.393811,-0.209826,0.196193
2019-05-01T21:00:17.539445Z,0.709577,0.301274,0.422091
2019-05-01T21:00:17.738445Z,0.8265040000000001,-0.5185,0.575394
2019-05-01T21:00:18.016445Z,1.0074530000000002,-1.0248950000000001,-0.050272000000000004
2019-05-01T21:00:18.136445Z,0.301105,-0.501359,-0.539269
2019-05-01T21:00:18.338445Z,0.585192,0.499179,0.755129
2019-05-01T21:00:18.538445Z,0.733021,0.12128,0.762116
2019-05-01T21:00:18.738445Z,1.465069,-0.950522,-0.5928939999999999
2019-05-01T21:00:18.939445Z,0.759791,-0.26374200000000003,-0.646564
2019-05-01T21:00:19.139445Z,0.37061900000000003,0.5537880000000001,0.13162000000000001
2019-05-01T21:00:19.338445Z,0.454991,-0.427105,0.781404
2019-05-01T21:00:19.539445Z,0.136363,-1.0446950000000002,-0.251693
2019-05-01T21:00:19.739445Z,0.089013,-0.261369,-0.146594
2019-05-01T21:00:19.939445Z,-0.052583000000000005,0.196259,0.42193
2019-05-01T21:00:20.139445Z,0.20555500000000002,0.31806999999999996,0.472339
2019-05-01T21:00:20.339445Z,1.202507,-1.129497,0.225237
2019-05-01T21:00:20.544445Z,0.666375,-0.350085,-0.6958880000000001
2019-05-01T21:00:20.740445Z,0.23513699999999998,0.629123,-0.20735
2019-05-01T21:00:20.940445Z,0.7566930000000001,0.768514,0.832693
2019-05-01T21:00:21.141445Z,1.491407,-1.035984,0.8811770000000001
2019-05-01T21:00:21.341445Z,1.299693,-0.8306469999999999,-0.7364890000000001
2019-05-01T21:00:21.539445Z,1.11065,-0.16885899999999998,-0.11278599999999998
2019-05-01T21:00:21.741445Z,0.838443,-0.371395,0.468092
2019-05-01T21:00:21.940445Z,2.301212,-1.847725,2.0073060000000003
2019-05-01T21:00:22.142445Z,2.415396,-2.523318,0.7763140000000001
2019-05-01T21:00:22.342445Z,1.11305,-1.736072,0.22657199999999997
2019-05-01T21:00:22.541445Z,-1.04441,-1.149721,-0.238382
2019-05-01T21:00:22.741445Z,-0.781968,-1.134449,0.58316
2019-05-01T21:00:22.941445Z,-1.090078,-1.405066,0.333982
2019-05-01T21:00:23.143445Z,-0.8499680000000001,-0.7081529999999999,0.253645
2019-05-01T21:00:23.342445Z,-0.36918,0.46532799999999996,0.9375819999999999
2019-05-01T21:00:23.541445Z,0.13383499999999998,-1.172156,0.677291
2019-05-01T21:00:23.743445Z,0.026588,-1.343558,-0.549385
2019-05-01T21:00:23.949445Z,-1.174458,-0.388901,0.010568000000000001
2019-05-01T21:00:24.146445Z,-1.473865,-1.49224,1.132074
2019-05-01T21:00:24.342445Z,-0.782353,-2.942564,0.9804780000000001
2019-05-01T21:00:24.542445Z,0.222196,-1.773427,0.40167800000000004
2019-05-01T21:00:24.744445Z,0.7466109999999999,-0.292772,1.146172
2019-05-01T21:00:24.943445Z,1.6491759999999998,-0.172651,1.0598889999999999
2019-05-01T21:00:25.144445Z,1.038432,-0.9707899999999999,-1.025372
2019-05-01T21:00:25.344445Z,0.023962999999999998,0.16726400000000002,-0.613592
2019-05-01T21:00:25.544445Z,-0.157436,0.566665,0.755794
2019-05-01T21:00:25.743445Z,0.23458800000000002,-0.840583,0.468279
2019-05-01T21:00:25.945445Z,-0.105206,-0.870231,-0.830583
2019-05-01T21:00:26.142445Z,0.368037,0.143464,0.359335
2019-05-01T21:00:26.345445Z,1.018628,0.42659300000000006,1.685143
2019-05-01T21:00:26.546445Z,1.796819,-0.7414649999999999,-0.48789099999999996
2019-05-01T21:00:26.759445Z,1.614533,0.312606,-0.608138
2019-05-01T21:00:26.944445Z,1.0269409999999999,-0.144955,1.217175
2019-05-01T21:00:27.144445Z,1.387669,-2.253998,1.485502
2019-05-01T21:00:27.344445Z,1.381637,-1.560791,0.5914050000000001
2019-05-01T21:00:27.547445Z,0.469984,-1.493375,0.621687
2019-05-01T21:00:27.745445Z,-0.278417,-1.358524,0.684246
2019-05-01T21:00:27.947445Z,0.734308,-1.4392120000000002,1.550306
2019-05-01T21:00:28.147445Z,1.540075,-0.8943479999999999,0.32829400000000003
2019-05-01T21:00:28.349445Z,-0.010607,-0.49355600000000005,-0.47314799999999996
2019-05-01T21:00:28.546445Z,-0.6108060000000001,-0.123926,0.924465
2019-05-01T21:00:28.745445Z,-0.0311,-1.6616630000000001,0.9706950000000001
2019-05-01T21:00:28.945445Z,0.080532,-1.429981,-0.5634779999999999
2019-05-01T21:00:29.145445Z,-0.564071,-0.113105,0.402113
2019-05-01T21:00:29.346445Z,0.533883,-0.9344,1.212536
2019-05-01T21:00:29.545445Z,0.624391,-1.093805,-0.20113499999999998
2019-05-01T21:00:29.747445Z,-0.11573299999999999,-0.683513,0.11488599999999999
2019-05-01T21:00:29.951445Z,0.157209,0.18044200000000002,0.331355
2019-05-01T21:00:30.146445Z,0.628101,-0.746509,0.761264
2019-05-01T21:00:30.347445Z,0.9208780000000001,-0.874816,0.0051
2019-05-01T21:00:30.546445Z,0.249043,-0.201741,-0.215075
2019-05-01T21:00:30.746445Z,-0.510962,0.12007000000000001,0.795373
2019-05-01T21:00:30.950445Z,0.44968800000000003,-0.8464360000000001,0.64373
2019-05-01T21:00:31.148445Z,0.773061,-0.90225,-0.409585
2019-05-01T21:00:31.348445Z,0.232184,0.193714,-0.46316899999999994
2019-05-01T21:00:31.549445Z,-0.072236,0.676924,0.742258
2019-05-01T21:00:31.750445Z,0.131993,-1.346984,0.623318
2019-05-01T21:00:31.948445Z,0.6758069999999999,-0.805267,-0.31945300000000004
2019-05-01T21:00:32.149445Z,-0.077002,0.15953,0.48286599999999996
2019-05-01T21:00:32.350445Z,-0.12359500000000001,0.036383,1.05579
2019-05-01T21:00:32.548445Z,1.480999,-0.854497,-0.318544
2019-05-01T21:00:32.749445Z,0.234722,-0.158852,-0.568477
2019-05-01T21:00:32.950445Z,0.10343800000000002,0.289189,0.719498
2019-05-01T21:00:33.150445Z,-0.151134,-0.638386,0.476508
2019-05-01T21:00:33.391445Z,-0.427126,-0.681846,-0.8326319999999999
2019-05-01T21:00:33.549445Z,-0.375211,-0.194753,0.352247
2019-05-01T21:00:33.770445Z,0.184961,0.45333199999999996,0.49373199999999995
2019-05-01T21:00:33.950445Z,0.646791,-0.698488,0.772768
2019-05-01T21:00:34.149445Z,0.240321,-0.791186,-0.734066
2019-05-01T21:00:34.422445Z,0.46898,0.7214729999999999,-0.5218079999999999
2019-05-01T21:00:34.549445Z,-0.341777,0.434097,1.959264
2019-05-01T21:00:34.768445Z,-0.197709,-1.641461,-0.2575
2019-05-01T21:00:34.950445Z,0.18773399999999998,-0.37717399999999995,-0.647636
2019-05-01T21:00:35.150445Z,-0.24055100000000001,0.534356,0.41798
2019-05-01T21:00:35.351445Z,0.376731,-0.28230900000000003,0.408868
2019-05-01T21:00:35.555445Z,-0.430291,-0.940008,-0.32814099999999996
2019-05-01T21:00:35.751445Z,-1.242664,-0.5563560000000001,0.081051
2019-05-01T21:00:35.951445Z,-0.860909,-1.0880940000000001,1.153206
2019-05-01T21:00:36.151445Z,-0.552868,-1.780311,0.29756900000000003
2019-05-01T21:00:36.353445Z,0.43548100000000006,-1.062077,-0.046535
2019-05-01T21:00:36.553445Z,0.8254290000000001,0.6700520000000001,0.751448
2019-05-01T21:00:36.753445Z,0.995732,-0.200706,0.317262
2019-05-01T21:00:36.968445Z,0.8558459999999999,-0.641672,-0.759171
2019-05-01T21:00:37.154445Z,0.9802299999999999,0.359632,-0.37976
2019-05-01T21:00:37.355445Z,0.156067,1.069599,0.40836999999999996
2019-05-01T21:00:37.552445Z,1.005312,-0.717074,0.627293
2019-05-01T21:00:37.754445Z,1.00336,-0.7057720000000001,-0.6656890000000001
2019-05-01T21:00:37.954445Z,0.558764,0.262462,-0.07253899999999999
2019-05-01T21:00:38.154445Z,0.367674,0.819028,0.665674
2019-05-01T21:00:38.405445Z,1.045747,-0.736055,-0.11014700000000001
2019-05-01T21:00:38.553445Z,0.590384,-0.13439,-0.49532299999999996
2019-05-01T21:00:38.761445Z,0.540094,0.404932,0.076293
2019-05-01T21:00:38.953445Z,0.40138,0.17211400000000002,0.9605459999999999
2019-05-01T21:00:39.154445Z,0.07223500000000001,-0.9203,-0.16885
2019-05-01T21:00:39.353445Z,0.482706,-0.037537,-1.04552
2019-05-01T21:00:39.555445Z,-0.171824,0.9479790000000001,0.769452
2019-05-01T21:00:39.757445Z,0.998554,-0.374342,0.624672
2019-05-01T21:00:39.955445Z,0.630322,-0.785481,-0.467305
2019-05-01T21:00:40.154445Z,0.418084,0.07814,-0.599655
2019-05-01T21:00:40.354445Z,0.24334099999999997,0.87534,0.265282
2019-05-01T21:00:40.554445Z,-0.27358000000000005,-0.422731,0.6803640000000001
2019-05-01T21:00:40.755445Z,0.284035,-0.545549,-0.226598
2019-05-01T21:00:40.955445Z,0.43449799999999994,-0.017348,-0.22671999999999998
2019-05-01T21:00:41.157445Z,0.32219200000000003,0.537431,-0.012478
2019-05-01T21:00:41.355445Z,0.864848,-0.30703800000000003,0.688841
2019-05-01T21:00:41.556445Z,0.357105,-0.626084,-0.226307
2019-05-01T21:00:41.754445Z,-0.093502,0.381358,-0.292501
2019-05-01T21:00:41.957445Z,-0.357568,0.797654,0.3559
2019-05-01T21:00:42.156445Z,0.697141,-0.6301329999999999,0.7219439999999999
2019-05-01T21:00:42.356445Z,0.690619,-0.572071,-0.672397
2019-05-01T21:00:42.556445Z,0.288455,0.404009,-0.276805
2019-05-01T21:00:42.756445Z,-0.070637,0.39066,0.733689
2019-05-01T21:00:42.958445Z,0.322442,-0.845295,0.68058
2019-05-01T21:00:43.168445Z,0.21310199999999999,-0.116059,-1.138575
2019-05-01T21:00:43.358445Z,-1.247228,-0.007287999999999999,-0.125365
2019-05-01T21:00:43.556445Z,-0.835419,-0.507089,0.793148
2019-05-01T21:00:43.759445Z,-0.784281,-1.08602,0.466053
2019-05-01T21:00:43.959445Z,0.55547,-0.37763800000000003,0.672299
2019-05-01T21:00:44.158445Z,1.350018,0.1072,0.449075
2019-05-01T21:00:44.357445Z,1.4656639999999999,-0.631025,0.49607799999999996
2019-05-01T21:00:44.563445Z,0.5146149999999999,-0.391904,-0.8234389999999999
2019-05-01T21:00:44.757445Z,0.59735,0.45033500000000004,-0.159735
2019-05-01T21:00:44.957445Z,0.714771,0.718754,0.510199
2019-05-01T21:00:45.160445Z,0.836822,-1.129546,0.920084
2019-05-01T21:00:45.358445Z,0.865323,-0.551401,-0.501765
2019-05-01T21:00:45.633445Z,0.5321819999999999,0.39098,-0.363952
2019-05-01T21:00:45.758445Z,-0.11986400000000001,0.796446,0.856289
2019-05-01T21:00:45.957445Z,1.2922280000000002,-0.605421,0.055646
2019-05-01T21:00:46.159445Z,0.45319799999999993,-0.276625,-0.817281
2019-05-01T21:00:46.359445Z,0.434775,0.479775,0.43818999999999997
2019-05-01T21:00:46.560445Z,0.192864,-0.033886,0.714773
2019-05-01T21:00:46.777445Z,0.7119800000000001,-0.540027,-0.47000699999999995
2019-05-01T21:00:46.959445Z,0.520768,0.099284,-0.340569
2019-05-01T21:00:47.161445Z,0.556809,0.715734,0.886289
2019-05-01T21:00:47.359445Z,0.733805,-0.74405,0.06846100000000001
2019-05-01T21:00:47.560445Z,0.78112,-0.362232,-0.762784
2019-05-01T21:00:47.761445Z,0.255173,0.43941,0.39005300000000004
2019-05-01T21:00:47.962445Z,-0.39658499999999997,-0.20663499999999999,0.767509
2019-05-01T21:00:48.162445Z,0.303444,-0.898124,-0.379761
2019-05-01T21:00:48.360445Z,0.020212,-0.21357800000000002,-0.886423
2019-05-01T21:00:48.560445Z,-0.527334,0.763347,0.698458
2019-05-01T21:00:48.786445Z,1.42769,0.116451,1.55548
2019-05-01T21:00:48.961445Z,1.472086,0.0014990000000000001,-0.346623
2019-05-01T21:00:49.162445Z,0.40765,0.394714,-0.9333290000000001
2019-05-01T21:00:49.361445Z,-1.2057930000000001,-0.14315,0.530844
2019-05-01T21:00:49.561445Z,-0.406724,-0.673515,-0.24908000000000002
2019-05-01T21:00:49.761445Z,0.005189,-0.027802999999999998,0.17769400000000002
2019-05-01T21:00:49.961445Z,-0.41072200000000003,0.625834,0.7675649999999999
2019-05-01T21:00:50.228445Z,-0.011170000000000001,-0.8761180000000001,0.302752
2019-05-01T21:00:50.362445Z,-0.351234,-0.715348,-0.73893
2019-05-01T21:00:50.586445Z,-0.255182,0.29849699999999996,-0.327102
2019-05-01T21:00:50.764445Z,0.16936500000000002,0.23322600000000002,0.665094
2019-05-01T21:00:50.963445Z,0.46495299999999995,-0.771461,0.477429
2019-05-01T21:00:51.163445Z,0.438515,-0.280992,-0.605029
