Datetime,accx,accy,accz
2019-05-07T23:04:12.761031Z,0.148328,0.148039,-0.018334
2019-05-07T23:04:12.964031Z,0.061458000000000006,-0.354723,0.540168
2019-05-07T23:04:13.161031Z,0.568732,-0.963269,0.068593
2019-05-07T23:04:13.358031Z,0.252273,-0.602873,-0.153816
2019-05-07T23:04:13.560031Z,-0.068398,0.199114,-0.160382
2019-05-07T23:04:13.760031Z,0.188728,0.46628000000000003,0.379423
2019-05-07T23:04:13.958031Z,0.078666,-0.300714,0.47358599999999995
2019-05-07T23:04:14.160031Z,-0.009504,-1.085518,-0.0050490000000000005
2019-05-07T23:04:14.360031Z,0.185976,-0.302731,-0.279642
2019-05-07T23:04:14.559031Z,0.286976,0.568004,0.069537
2019-05-07T23:04:14.761031Z,0.533716,-0.000364,0.330325
2019-05-07T23:04:14.960031Z,0.34927600000000003,-0.254513,-0.19384300000000002
2019-05-07T23:04:15.161031Z,0.190423,-0.332391,0.095459
2019-05-07T23:04:15.366031Z,0.049333999999999996,0.248363,-0.320651
2019-05-07T23:04:15.561031Z,-0.006555,0.225081,0.8259120000000001
2019-05-07T23:04:15.760031Z,-0.179284,-0.9340120000000001,-0.05218
2019-05-07T23:04:15.961031Z,0.131235,-0.260335,-0.075796
2019-05-07T23:04:16.162031Z,0.373006,0.343514,-0.131555
2019-05-07T23:04:16.361031Z,-0.13956300000000002,0.0366,0.390354
2019-05-07T23:04:16.563031Z,0.23389200000000002,-0.757616,0.136831
2019-05-07T23:04:16.761031Z,-0.023022,-0.318548,-0.486821
2019-05-07T23:04:16.960031Z,0.108903,0.487325,-0.466558
2019-05-07T23:04:17.162031Z,0.019302,0.289319,0.48248
2019-05-07T23:04:17.363031Z,-0.154363,-0.418563,0.370771
2019-05-07T23:04:17.563031Z,-0.22843000000000002,-0.610217,-0.074186
2019-05-07T23:04:17.764031Z,-0.30206900000000003,0.28183,-0.43285500000000005
2019-05-07T23:04:17.965031Z,0.12105199999999999,0.563068,0.176998
2019-05-07T23:04:18.164031Z,0.470154,-0.45885200000000004,0.63862
2019-05-07T23:04:18.405031Z,0.326329,-0.44027299999999997,-0.590232
2019-05-07T23:04:18.563031Z,-0.508296,0.43275600000000003,-0.6966100000000001
2019-05-07T23:04:18.772031Z,-0.518713,0.242393,0.19981
2019-05-07T23:04:18.963031Z,-0.432626,-0.621279,0.48680500000000004
2019-05-07T23:04:19.164031Z,-0.258103,-0.48405,0.048332
2019-05-07T23:04:19.366031Z,0.19176700000000002,0.23064400000000002,-0.22495700000000002
2019-05-07T23:04:19.564031Z,0.141062,0.484137,0.281785
2019-05-07T23:04:19.768031Z,1.228164,-0.30321,0.654698
2019-05-07T23:04:19.964031Z,0.669431,-0.46168400000000004,-0.533898
2019-05-07T23:04:20.165031Z,0.8481700000000001,0.389606,-0.528458
2019-05-07T23:04:20.369031Z,0.9071549999999999,0.769113,-0.10828800000000001
2019-05-07T23:04:20.568031Z,1.0589899999999999,-0.152903,0.752296
2019-05-07T23:04:20.765031Z,-0.0021449999999999998,-0.081116,-0.616323
2019-05-07T23:04:20.965031Z,-0.102427,0.250302,-0.22148600000000002
2019-05-07T23:04:21.166031Z,0.262502,0.5874020000000001,0.776265
2019-05-07T23:04:21.366031Z,0.60013,-0.768171,0.34210799999999997
2019-05-07T23:04:21.628031Z,-0.037372,-0.36899099999999996,-1.074455
2019-05-07T23:04:21.766031Z,-0.460917,0.45416899999999993,0.364535
2019-05-07T23:04:21.986031Z,-0.350142,-0.09473200000000001,0.919902
2019-05-07T23:04:22.165031Z,-0.18778,-0.860183,-0.260414
2019-05-07T23:04:22.367031Z,-0.033341,-0.019636,-0.323384
2019-05-07T23:04:22.568031Z,-0.105525,0.10916300000000001,0.012242
2019-05-07T23:04:22.771031Z,-0.051047,-0.137959,0.7330800000000001
2019-05-07T23:04:22.969031Z,0.08104299999999999,-0.393443,-0.134286
2019-05-07T23:04:23.234031Z,0.138939,0.016034,-0.423393
2019-05-07T23:04:23.368031Z,-0.14443,0.45194799999999996,0.356528
2019-05-07T23:04:23.568031Z,-0.354615,-0.250382,0.489784
2019-05-07T23:04:23.776031Z,-0.275253,-0.523399,-0.444905
2019-05-07T23:04:23.968031Z,-0.009835,-0.03013,-0.224689
2019-05-07T23:04:24.171031Z,0.004062,0.030743,0.5238109999999999
2019-05-07T23:04:24.371031Z,0.123654,-0.724679,0.419209
2019-05-07T23:04:24.588031Z,-0.537054,-0.390419,-0.521871
2019-05-07T23:04:24.768031Z,-0.756621,0.342514,-0.363444
2019-05-07T23:04:24.969031Z,-1.421163,0.047964,0.392031
2019-05-07T23:04:25.170031Z,-0.526215,-1.317809,0.735057
2019-05-07T23:04:25.369031Z,0.018456999999999998,-0.693792,-0.13458900000000001
2019-05-07T23:04:25.569031Z,0.12153699999999999,0.198784,-0.06321
2019-05-07T23:04:25.771031Z,0.81611,0.514077,0.373533
2019-05-07T23:04:25.969031Z,1.110218,-0.406078,0.23063899999999998
2019-05-07T23:04:26.172031Z,1.179147,-0.048547,-0.255004
2019-05-07T23:04:26.371031Z,1.167829,0.33729499999999996,-0.14902100000000001
2019-05-07T23:04:26.572031Z,0.772835,0.760012,0.367068
2019-05-07T23:04:26.775031Z,0.773302,-0.844569,0.663267
2019-05-07T23:04:26.974031Z,0.500216,-0.286246,-0.849535
2019-05-07T23:04:27.171031Z,-0.8034100000000001,-0.032591,0.232075
2019-05-07T23:04:27.372031Z,-0.9316760000000001,-0.752221,0.737246
2019-05-07T23:04:27.572031Z,-0.09068,-1.276343,0.033852999999999994
2019-05-07T23:04:27.773031Z,0.481919,-0.49282299999999996,0.71644
2019-05-07T23:04:27.973031Z,0.918842,-0.270544,0.703978
2019-05-07T23:04:28.176031Z,1.4954,-0.6321319999999999,0.707133
2019-05-07T23:04:28.373031Z,1.214631,-0.737433,0.374221
2019-05-07T23:04:28.579031Z,1.1382139999999998,-0.376432,0.043189
2019-05-07T23:04:28.773031Z,2.673844,-0.013015,0.47151000000000004
2019-05-07T23:04:28.972031Z,2.81658,-0.595582,0.796145
2019-05-07T23:04:29.173031Z,1.341828,-0.496667,0.35133400000000004
2019-05-07T23:04:29.375031Z,0.223575,-0.060367,0.252337
2019-05-07T23:04:29.575031Z,0.530643,0.46766800000000003,0.6065560000000001
2019-05-07T23:04:29.774031Z,0.28477399999999997,-1.1682379999999999,0.313282
2019-05-07T23:04:29.973031Z,0.6412909999999999,-0.5095729999999999,-0.471063
2019-05-07T23:04:30.247031Z,0.517608,0.370274,-0.083233
2019-05-07T23:04:30.374031Z,0.132774,0.45519499999999996,0.832101
2019-05-07T23:04:30.574031Z,-0.11816600000000001,-1.087249,0.061105999999999994
2019-05-07T23:04:30.774031Z,0.45501199999999997,-0.227371,-0.46611899999999995
2019-05-07T23:04:30.974031Z,0.311807,0.421444,0.279522
2019-05-07T23:04:31.175031Z,-0.126383,-0.6389560000000001,0.778872
2019-05-07T23:04:31.376031Z,0.342279,-0.772642,-0.36294699999999996
2019-05-07T23:04:31.579031Z,0.344936,-0.185473,-0.241825
2019-05-07T23:04:31.805031Z,0.453196,0.599375,0.19659300000000002
2019-05-07T23:04:31.977031Z,1.1545290000000001,0.033308,1.158117
2019-05-07T23:04:32.200031Z,1.30453,-0.893551,-0.033148000000000004
2019-05-07T23:04:32.375031Z,-0.407058,0.11759700000000001,-0.811664
2019-05-07T23:04:32.577031Z,-0.405842,-0.32185199999999997,0.8689379999999999
2019-05-07T23:04:32.777031Z,-0.43728199999999995,-0.5287310000000001,0.8301440000000001
2019-05-07T23:04:32.980031Z,-0.829626,-0.5628770000000001,-0.511195
2019-05-07T23:04:33.180031Z,-0.678017,-0.190199,0.192601
2019-05-07T23:04:33.380031Z,-0.224345,0.55345,0.9382799999999999
2019-05-07T23:04:33.578031Z,0.417781,-1.061005,0.129436
2019-05-07T23:04:33.780031Z,-0.663251,-0.496605,-1.2541149999999999
2019-05-07T23:04:33.977031Z,-0.512123,0.63134,0.397458
2019-05-07T23:04:34.178031Z,-0.383327,-0.072267,1.08595
2019-05-07T23:04:34.380031Z,-0.280304,-0.373623,-0.71432
2019-05-07T23:04:34.581031Z,0.03623,-0.172466,-0.328577
2019-05-07T23:04:34.779031Z,0.66613,0.291575,0.545395
2019-05-07T23:04:34.979031Z,0.51756,-0.58655,0.7746850000000001
2019-05-07T23:04:35.179031Z,0.02339,-0.803242,-0.49483699999999997
2019-05-07T23:04:35.385031Z,-1.405306,0.112141,-0.302208
2019-05-07T23:04:35.579031Z,-1.262533,-1.4705409999999999,1.254631
2019-05-07T23:04:35.779031Z,-1.131621,-2.045425,0.8758799999999999
2019-05-07T23:04:35.979031Z,-0.572561,-2.101659,0.886392
2019-05-07T23:04:36.180031Z,0.37712199999999996,-1.900039,1.1550209999999999
2019-05-07T23:04:36.380031Z,1.03265,-1.5514629999999998,0.9101790000000001
2019-05-07T23:04:36.581031Z,1.958875,-0.221194,0.488667
2019-05-07T23:04:36.782031Z,1.970482,-1.309183,0.5668350000000001
2019-05-07T23:04:36.981031Z,1.605374,-0.6576380000000001,-0.293161
2019-05-07T23:04:37.186031Z,0.700858,0.116724,0.8819629999999999
2019-05-07T23:04:37.382031Z,0.788248,-0.7665770000000001,0.583011
2019-05-07T23:04:37.581031Z,0.8357700000000001,-0.806821,-0.21209699999999998
2019-05-07T23:04:37.782031Z,0.794674,-0.151456,0.190551
2019-05-07T23:04:37.982031Z,0.594912,-0.11445899999999999,0.959831
2019-05-07T23:04:38.182031Z,1.227623,-1.108275,0.427727
2019-05-07T23:04:38.382031Z,0.968131,-0.8789459999999999,-0.19755999999999999
2019-05-07T23:04:38.585031Z,0.581292,-0.326087,0.136992
2019-05-07T23:04:38.782031Z,0.584745,0.6464810000000001,0.603893
2019-05-07T23:04:39.059031Z,0.880346,-0.377012,0.22622199999999998
2019-05-07T23:04:39.182031Z,0.184393,-1.181776,0.07346699999999999
2019-05-07T23:04:39.382031Z,0.609736,-0.183398,-0.390676
2019-05-07T23:04:39.581031Z,0.470941,0.082308,0.856532
2019-05-07T23:04:39.784031Z,0.612711,-0.20763800000000002,0.237308
2019-05-07T23:04:39.984031Z,0.465366,-0.6009720000000001,-0.163725
2019-05-07T23:04:40.183031Z,0.351066,0.158499,0.017188
2019-05-07T23:04:40.384031Z,0.712841,-0.14191800000000002,0.655406
2019-05-07T23:04:40.585031Z,0.556818,-0.48072200000000004,0.210885
2019-05-07T23:04:40.785031Z,0.17513299999999998,-0.727332,-0.281654
2019-05-07T23:04:40.996031Z,-0.051115,0.41545299999999996,-0.057201999999999996
2019-05-07T23:04:41.184031Z,-0.14113,-0.00037,1.360434
2019-05-07T23:04:41.386031Z,1.0357020000000001,-0.823609,-0.609672
2019-05-07T23:04:41.583031Z,0.705585,-0.297052,-0.354867
2019-05-07T23:04:41.785031Z,0.053454999999999996,0.634333,0.11774100000000001
2019-05-07T23:04:41.986031Z,-0.11461099999999999,0.043088,1.041855
2019-05-07T23:04:42.186031Z,0.38008600000000003,-1.283686,-0.052815999999999995
2019-05-07T23:04:42.439031Z,0.391104,-0.246842,-0.684633
2019-05-07T23:04:42.585031Z,-0.096838,0.312216,0.568767
2019-05-07T23:04:42.825031Z,-0.076637,-0.012352,0.6336229999999999
2019-05-07T23:04:42.985031Z,0.456467,-0.9187379999999999,-0.20113
2019-05-07T23:04:43.186031Z,0.218479,0.00939,-0.688811
2019-05-07T23:04:43.388031Z,0.142158,0.690565,0.516509
2019-05-07T23:04:43.587031Z,-0.192547,-0.126412,0.6577430000000001
2019-05-07T23:04:43.850031Z,0.379436,-0.632239,-0.563284
2019-05-07T23:04:43.986031Z,0.204672,-0.185598,-0.24609099999999998
2019-05-07T23:04:44.186031Z,0.012683,0.059570000000000005,0.61902
2019-05-07T23:04:44.391031Z,0.549002,-0.378366,0.24204699999999998
2019-05-07T23:04:44.588031Z,0.422408,-0.360913,-0.172793
2019-05-07T23:04:44.800031Z,0.154103,0.279119,-0.21095999999999998
2019-05-07T23:04:44.987031Z,0.063596,0.5188470000000001,0.626785
2019-05-07T23:04:45.188031Z,0.331095,-0.693952,0.168571
2019-05-07T23:04:45.387031Z,0.751865,-0.275472,-0.43836099999999995
2019-05-07T23:04:45.589031Z,0.746252,0.090691,0.190549
2019-05-07T23:04:45.796031Z,0.970159,-0.6062109999999999,0.7796930000000001
2019-05-07T23:04:45.988031Z,1.534239,-1.060712,0.059986000000000005
2019-05-07T23:04:46.190031Z,0.580559,-0.644313,-0.005606
2019-05-07T23:04:46.390031Z,-0.26202600000000004,-0.331311,0.6482640000000001
2019-05-07T23:04:46.590031Z,-0.288103,-1.095667,0.9207639999999999
2019-05-07T23:04:46.790031Z,-0.167714,-1.6716400000000002,-0.159324
2019-05-07T23:04:47.002031Z,-0.060065999999999994,-0.799322,-0.27866799999999997
2019-05-07T23:04:47.191031Z,0.867289,-0.349465,0.483234
2019-05-07T23:04:47.389031Z,2.161496,-1.472473,1.117585
2019-05-07T23:04:47.589031Z,1.969141,-1.70366,0.28348
2019-05-07T23:04:47.794031Z,0.674679,-1.549814,0.387913
2019-05-07T23:04:47.991031Z,0.228942,-0.756943,0.407222
2019-05-07T23:04:48.190031Z,0.45567299999999994,-0.7796,0.537751
2019-05-07T23:04:48.392031Z,-0.3007,-1.398778,0.007821
2019-05-07T23:04:48.592031Z,0.142251,-0.7009989999999999,0.358687
2019-05-07T23:04:48.792031Z,0.5160020000000001,-0.370348,0.372395
2019-05-07T23:04:48.992031Z,0.366843,-1.3861370000000002,0.656189
2019-05-07T23:04:49.195031Z,-0.568267,-0.8577879999999999,-0.129302
2019-05-07T23:04:49.391031Z,-1.304363,-1.255829,0.439705
2019-05-07T23:04:49.592031Z,-1.0348760000000001,-1.627967,0.76423
2019-05-07T23:04:49.791031Z,-0.360227,-1.3339530000000002,0.107498
2019-05-07T23:04:49.996031Z,0.181473,-0.29175,0.16481700000000002
2019-05-07T23:04:50.193031Z,0.6606,0.34134000000000003,0.5263979999999999
2019-05-07T23:04:50.393031Z,1.2815219999999998,-0.36894299999999997,0.339932
2019-05-07T23:04:50.595031Z,0.686362,-0.766981,0.028624
2019-05-07T23:04:50.793031Z,0.363478,-0.1168,-0.32466999999999996
2019-05-07T23:04:51.003031Z,-0.41761499999999996,0.03258,0.00464
2019-05-07T23:04:51.193031Z,-1.025175,-0.8409469999999999,0.570585
2019-05-07T23:04:51.396031Z,-0.7551859999999999,-1.4095879999999998,0.11349200000000001
2019-05-07T23:04:51.595031Z,-0.037817,-0.884748,0.5168010000000001
2019-05-07T23:04:51.796031Z,0.696477,-0.304792,0.150678
2019-05-07T23:04:51.998031Z,1.040777,0.543895,0.246545
2019-05-07T23:04:52.196031Z,1.28572,-0.655048,0.332706
2019-05-07T23:04:52.395031Z,1.2403389999999999,-0.530184,-0.142127
2019-05-07T23:04:52.594031Z,0.822938,0.21756999999999999,0.06854099999999999
2019-05-07T23:04:52.795031Z,0.641604,0.299879,0.284722
2019-05-07T23:04:52.996031Z,0.5353,-0.52371,0.084449
2019-05-07T23:04:53.243031Z,0.903125,-0.588171,0.07522999999999999
2019-05-07T23:04:53.395031Z,1.119517,-0.048881,-0.22746100000000002
2019-05-07T23:04:53.611031Z,1.280023,0.027683999999999997,0.525629
2019-05-07T23:04:53.796031Z,1.246261,-0.38904099999999997,0.442481
2019-05-07T23:04:53.996031Z,1.0706040000000001,-0.587304,-0.130426
2019-05-07T23:04:54.197031Z,0.415471,-0.03574,-0.24613600000000002
2019-05-07T23:04:54.398031Z,0.173355,-0.471131,0.55742
2019-05-07T23:04:54.597031Z,-0.030116000000000004,-0.921236,0.7707930000000001
2019-05-07T23:04:54.803031Z,0.539517,-0.728598,-0.072358
2019-05-07T23:04:54.998031Z,1.201417,-0.843145,0.316498
2019-05-07T23:04:55.196031Z,1.40914,-1.392542,1.100594
2019-05-07T23:04:55.396031Z,1.348727,-1.226988,-0.330256
2019-05-07T23:04:55.601031Z,0.6531170000000001,-1.0245469999999999,0.306516
2019-05-07T23:04:55.797031Z,-0.805971,-1.543908,1.16699
2019-05-07T23:04:56.001031Z,-0.456714,-1.190705,0.101618
2019-05-07T23:04:56.198031Z,0.371613,-0.438817,-0.357971
2019-05-07T23:04:56.398031Z,-0.079981,-0.252382,0.47597
2019-05-07T23:04:56.600031Z,0.02161,-0.735671,0.5713189999999999
2019-05-07T23:04:56.801031Z,0.163497,-1.264312,0.256974
2019-05-07T23:04:56.998031Z,0.087418,-0.399834,-0.16575399999999998
2019-05-07T23:04:57.199031Z,-0.173746,-0.500789,0.298172
2019-05-07T23:04:57.399031Z,-0.664387,-0.930875,0.691908
2019-05-07T23:04:57.602031Z,-0.600119,-1.372058,-0.049510000000000005
2019-05-07T23:04:57.798031Z,-1.034745,-0.759508,-0.23935900000000002
2019-05-07T23:04:57.998031Z,-0.707676,-0.6576489999999999,0.451956
2019-05-07T23:04:58.199031Z,0.1725,-0.264072,0.391036
2019-05-07T23:04:58.400031Z,1.020421,-0.87808,0.48042299999999993
2019-05-07T23:04:58.601031Z,0.647756,-0.683958,-0.173991
2019-05-07T23:04:58.800031Z,0.373128,0.183723,-0.544922
2019-05-07T23:04:59.000031Z,-0.541411,-0.091795,0.5573560000000001
2019-05-07T23:04:59.201031Z,-0.636894,-1.174057,0.433781
2019-05-07T23:04:59.400031Z,-0.580397,-1.10143,-0.080276
2019-05-07T23:04:59.600031Z,0.073242,-0.727871,0.406549
2019-05-07T23:04:59.802031Z,0.461187,0.047425999999999996,-0.102239
2019-05-07T23:05:00.002031Z,1.4532450000000001,-0.716424,0.986662
2019-05-07T23:05:00.201031Z,1.173785,-0.45148,-0.197392
2019-05-07T23:05:00.401031Z,1.111999,0.301193,-0.384716
2019-05-07T23:05:00.601031Z,0.727845,0.525196,0.5461
2019-05-07T23:05:00.803031Z,0.729096,-0.011514,0.47961000000000004
2019-05-07T23:05:01.001031Z,0.504776,-1.022656,0.072166
2019-05-07T23:05:01.204031Z,0.833131,-0.288146,-0.19117699999999999
2019-05-07T23:05:01.402031Z,0.956784,0.1698,0.023180000000000003
2019-05-07T23:05:01.604031Z,0.9559719999999999,0.37162199999999995,0.384928
2019-05-07T23:05:01.843031Z,1.6778080000000002,-0.6958840000000001,0.40505399999999997
2019-05-07T23:05:02.004031Z,1.370471,-0.59123,-0.022078999999999998
2019-05-07T23:05:02.204031Z,0.7127399999999999,-0.041901999999999995,0.534616
2019-05-07T23:05:02.403031Z,0.101128,-0.12756099999999998,0.134864
2019-05-07T23:05:02.605031Z,0.453082,-0.49276800000000004,0.447525
2019-05-07T23:05:02.803031Z,0.08444700000000001,-0.754826,-0.211894
2019-05-07T23:05:03.003031Z,0.40687,-0.288134,0.165911
2019-05-07T23:05:03.205031Z,1.032427,-0.376348,0.14114200000000002
2019-05-07T23:05:03.404031Z,1.017515,-1.3462690000000002,1.368674
2019-05-07T23:05:03.608031Z,1.164,-1.5550680000000001,0.19968
2019-05-07T23:05:03.805031Z,0.274858,-1.18498,0.5618
2019-05-07T23:05:04.007031Z,-0.071884,-0.443804,0.506211
2019-05-07T23:05:04.207031Z,-0.287987,-0.9662700000000001,0.568401
2019-05-07T23:05:04.410031Z,-0.129907,-1.359408,-0.117353
2019-05-07T23:05:04.606031Z,-0.749033,-0.397548,0.04194
2019-05-07T23:05:04.806031Z,-0.68552,-0.382477,0.5221359999999999
2019-05-07T23:05:05.011031Z,-0.973557,-0.660082,0.5029170000000001
2019-05-07T23:05:05.207031Z,-1.202258,-1.017682,0.454866
2019-05-07T23:05:05.407031Z,-1.071116,-0.914618,-0.07560499999999999
2019-05-07T23:05:05.607031Z,-0.246687,-0.347092,0.03238
2019-05-07T23:05:05.806031Z,0.6063810000000001,0.099014,0.542626
2019-05-07T23:05:06.008031Z,0.664021,-0.45975299999999997,0.210862
2019-05-07T23:05:06.385031Z,0.506566,-0.38016500000000003,-0.0768
2019-05-07T23:05:06.441031Z,0.335595,0.19236,-0.11330699999999999
2019-05-07T23:05:06.639031Z,0.270259,0.11960699999999999,0.43567
2019-05-07T23:05:06.812031Z,0.16323900000000002,-0.525712,0.02058
2019-05-07T23:05:07.007031Z,0.065696,-0.372765,-0.2229
2019-05-07T23:05:07.212031Z,0.382254,0.542247,-0.174877
2019-05-07T23:05:07.409031Z,0.372081,0.5271170000000001,0.405219
2019-05-07T23:05:07.609031Z,0.6793359999999999,-0.45273900000000006,0.302155
2019-05-07T23:05:07.809031Z,-0.068228,-0.399309,-0.42576800000000004
2019-05-07T23:05:08.009031Z,-0.151294,0.201992,0.11112999999999999
2019-05-07T23:05:08.209031Z,0.21355,0.329918,0.897058
2019-05-07T23:05:08.410031Z,0.45003999999999994,-0.740685,-0.478463
2019-05-07T23:05:08.611031Z,0.24361100000000002,0.061080999999999996,-0.361973
2019-05-07T23:05:08.810031Z,0.041446,0.22901100000000002,0.25956599999999996
2019-05-07T23:05:09.011031Z,0.297727,-0.401049,1.2310530000000002
2019-05-07T23:05:09.213031Z,0.113471,-0.744226,-0.277417
2019-05-07T23:05:09.411031Z,0.484781,-0.365718,-0.508828
2019-05-07T23:05:09.609031Z,0.716426,0.012695999999999999,0.27732399999999996
2019-05-07T23:05:09.809031Z,1.633753,-0.8611040000000001,0.866822
2019-05-07T23:05:10.011031Z,1.950076,-0.526602,-0.13028
2019-05-07T23:05:10.212031Z,0.36721,-0.359933,-0.16969
2019-05-07T23:05:10.412031Z,-0.21480300000000002,-0.42089499999999996,0.9174709999999999
2019-05-07T23:05:10.612031Z,-0.467581,-1.359851,0.594126
2019-05-07T23:05:10.812031Z,-0.519918,-1.392558,-0.010936
2019-05-07T23:05:11.010031Z,-0.31338499999999997,-0.12140899999999999,-0.402883
2019-05-07T23:05:11.213031Z,-0.289569,-0.11728699999999999,0.783953
2019-05-07T23:05:11.411031Z,0.021477,-1.122017,0.653726
2019-05-07T23:05:11.611031Z,0.251629,-0.755594,-0.012428
2019-05-07T23:05:11.813031Z,0.261126,-0.22935500000000003,-0.463471
2019-05-07T23:05:12.014031Z,-0.038168,0.015787,0.509355
2019-05-07T23:05:12.213031Z,0.092231,-0.863842,0.850554
2019-05-07T23:05:12.433031Z,-0.411354,-1.020154,-0.5754020000000001
2019-05-07T23:05:12.613031Z,-0.27350399999999997,-0.45307299999999995,0.046747000000000004
2019-05-07T23:05:12.828031Z,-0.349548,0.131892,0.108373
2019-05-07T23:05:13.012031Z,0.07643,-0.5468569999999999,0.762842
2019-05-07T23:05:13.213031Z,0.268486,-0.784904,0.249025
2019-05-07T23:05:13.414031Z,0.16977799999999998,-0.520393,-0.527736
2019-05-07T23:05:13.658031Z,-0.036193,0.554114,0.142582
2019-05-07T23:05:13.814031Z,-0.650179,-0.323155,0.778039
2019-05-07T23:05:14.037031Z,-0.828628,-1.113796,0.092988
2019-05-07T23:05:14.213031Z,-0.544281,-0.517804,-0.340456
2019-05-07T23:05:14.415031Z,-0.124846,-0.10897000000000001,0.774771
2019-05-07T23:05:14.614031Z,0.007034,0.029519999999999998,0.562945
2019-05-07T23:05:14.815031Z,0.334529,-0.8383010000000001,-0.280933
2019-05-07T23:05:15.017031Z,0.032397,-0.156416,-0.194267
2019-05-07T23:05:15.216031Z,-0.33731300000000003,0.262429,-0.358563
2019-05-07T23:05:15.423031Z,1.145901,-0.059667,0.591458
2019-05-07T23:05:15.636031Z,2.155255,-0.671671,1.084608
2019-05-07T23:05:15.816031Z,2.195496,-1.3517649999999999,0.201855
2019-05-07T23:05:16.019031Z,1.789089,-2.318628,0.790949
2019-05-07T23:05:16.221031Z,0.37530399999999997,-3.89342,1.8282450000000001
2019-05-07T23:05:16.416031Z,0.591795,-2.937895,1.162947
2019-05-07T23:05:16.618031Z,-0.19999,-2.118523,1.22217
2019-05-07T23:05:16.817031Z,-0.359026,-1.264081,0.309091
2019-05-07T23:05:17.018031Z,0.5325310000000001,-1.6990599999999998,1.352473
2019-05-07T23:05:17.217031Z,0.442405,-1.7036200000000001,-0.061548
2019-05-07T23:05:17.418031Z,0.631726,-0.549453,0.292496
2019-05-07T23:05:17.616031Z,0.438021,-0.088037,1.144033
2019-05-07T23:05:17.818031Z,0.7856350000000001,-1.509514,0.056197000000000004
2019-05-07T23:05:18.018031Z,-0.299363,-0.995815,-0.214298
2019-05-07T23:05:18.218031Z,-0.5713739999999999,-0.335273,0.32818
2019-05-07T23:05:18.419031Z,-0.9912190000000001,-1.067134,0.732705
2019-05-07T23:05:18.618031Z,-0.47731599999999996,-1.496585,0.485885
2019-05-07T23:05:18.820031Z,0.2007,-0.7167399999999999,0.179037
2019-05-07T23:05:19.019031Z,0.394464,-0.195651,0.927127
2019-05-07T23:05:19.222031Z,1.033072,-0.47844200000000003,0.5218189999999999
2019-05-07T23:05:19.420031Z,0.38309099999999996,-1.0006950000000001,-0.371334
2019-05-07T23:05:19.688031Z,0.362367,0.133199,-0.625946
2019-05-07T23:05:19.819031Z,0.448219,0.20831799999999998,0.799187
2019-05-07T23:05:20.054031Z,0.379737,-0.762613,0.640067
2019-05-07T23:05:20.219031Z,-0.125475,-1.0024,-0.003017
2019-05-07T23:05:20.420031Z,0.23099899999999998,0.12322999999999999,-0.202645
2019-05-07T23:05:20.621031Z,0.316227,0.260247,0.40286900000000003
2019-05-07T23:05:20.823031Z,0.750604,-0.787024,0.542219
2019-05-07T23:05:21.019031Z,0.666188,-0.643716,-0.335906
2019-05-07T23:05:21.222031Z,0.249904,0.101534,-0.163357
2019-05-07T23:05:21.438031Z,0.179292,0.43655200000000005,0.408117
2019-05-07T23:05:21.620031Z,0.41892799999999997,-0.5953579999999999,0.38932
2019-05-07T23:05:21.823031Z,0.26276700000000003,-0.702887,0.034531
2019-05-07T23:05:22.025031Z,0.073236,-0.103902,-0.10090199999999999
2019-05-07T23:05:22.222031Z,0.43081099999999994,0.43853100000000006,0.42573500000000003
2019-05-07T23:05:22.422031Z,0.601859,-1.021959,0.221592
2019-05-07T23:05:22.626031Z,-0.10505999999999999,-0.309921,-0.457233
2019-05-07T23:05:22.822031Z,-0.752931,0.40629299999999996,-0.10833499999999999
2019-05-07T23:05:23.024031Z,-1.3073,-0.446563,0.6925979999999999
2019-05-07T23:05:23.222031Z,-0.943159,-1.308151,0.077639
2019-05-07T23:05:23.423031Z,-0.603755,-0.854174,0.43245200000000006
2019-05-07T23:05:23.626031Z,0.650285,-0.021695,0.245263
2019-05-07T23:05:23.825031Z,1.081336,0.48673900000000003,0.81389
2019-05-07T23:05:24.024031Z,1.26937,-0.840281,0.178362
2019-05-07T23:05:24.223031Z,0.904114,-0.404052,-0.8192450000000001
2019-05-07T23:05:24.450031Z,-0.320438,0.268006,0.06854600000000001
2019-05-07T23:05:24.659031Z,-0.569964,-0.281953,0.973841
2019-05-07T23:05:24.827031Z,-0.717283,-1.597235,-0.026152999999999996
2019-05-07T23:05:25.025031Z,-0.232748,-1.3329090000000001,0.48861899999999997
2019-05-07T23:05:25.225031Z,0.658624,-0.596019,0.603632
2019-05-07T23:05:25.424031Z,1.120316,-0.26919099999999996,0.841901
2019-05-07T23:05:25.626031Z,1.529293,-0.690343,0.150041
2019-05-07T23:05:25.829031Z,0.959017,-0.056478,-0.5525100000000001
2019-05-07T23:05:26.026031Z,0.545812,-0.062718,0.767528
2019-05-07T23:05:26.224031Z,0.733933,-0.5929989999999999,0.9866309999999999
2019-05-07T23:05:26.425031Z,0.5152399999999999,-0.816341,-0.236641
2019-05-07T23:05:26.629031Z,0.519293,0.023318000000000002,-0.320859
2019-05-07T23:05:26.826031Z,0.665068,-0.0009199999999999999,0.900148
2019-05-07T23:05:27.027031Z,1.194718,-0.979584,0.6298199999999999
2019-05-07T23:05:27.225031Z,0.558239,-0.678566,-0.485941
2019-05-07T23:05:27.431031Z,-0.362063,0.192273,-0.23353200000000002
2019-05-07T23:05:27.666031Z,-1.148113,-0.146567,0.911183
2019-05-07T23:05:27.826031Z,-1.00577,-2.0808880000000003,0.35439699999999996
2019-05-07T23:05:28.027031Z,0.23447600000000002,-1.703055,0.722748
2019-05-07T23:05:28.227031Z,0.482796,-0.5825670000000001,0.413077
2019-05-07T23:05:28.428031Z,1.130981,-0.138479,0.784658
2019-05-07T23:05:28.627031Z,1.279952,-0.823625,0.162872
2019-05-07T23:05:28.827031Z,1.06003,-0.5380739999999999,0.04999
2019-05-07T23:05:29.028031Z,0.803143,-0.197042,-0.0061200000000000004
2019-05-07T23:05:29.283031Z,0.415891,0.532633,0.829988
2019-05-07T23:05:29.427031Z,0.480271,-0.9028120000000001,0.22680999999999998
2019-05-07T23:05:29.630031Z,0.41429099999999996,-0.7400439999999999,-0.405459
2019-05-07T23:05:29.828031Z,0.698284,0.039985,0.023517
2019-05-07T23:05:30.028031Z,0.714514,0.38593,0.587886
2019-05-07T23:05:30.232031Z,0.583681,-1.051692,0.308055
2019-05-07T23:05:30.428031Z,0.5826819999999999,-0.42788699999999996,-0.17213699999999998
2019-05-07T23:05:30.630031Z,0.720551,0.254369,0.040472
2019-05-07T23:05:30.828031Z,0.290167,0.662083,0.237562
2019-05-07T23:05:31.029031Z,0.100863,-0.772007,0.6915939999999999
2019-05-07T23:05:31.229031Z,-0.003941,-0.775462,-0.320035
2019-05-07T23:05:31.430031Z,0.24248899999999998,-0.069289,-0.028076999999999998
2019-05-07T23:05:31.630031Z,0.22950900000000002,0.13330899999999998,0.513875
2019-05-07T23:05:31.832031Z,0.826736,-0.36677,0.267285
2019-05-07T23:05:32.033031Z,0.699505,-0.471102,-0.331258
2019-05-07T23:05:32.236031Z,0.27784200000000003,0.254183,-0.5666439999999999
2019-05-07T23:05:32.431031Z,0.080476,0.456229,0.370498
2019-05-07T23:05:32.630031Z,0.361021,-0.23590500000000003,0.744274
2019-05-07T23:05:32.831031Z,0.11486099999999999,-0.543983,-0.48406099999999996
2019-05-07T23:05:33.032031Z,0.140992,0.095959,-0.10998699999999999
2019-05-07T23:05:33.231031Z,0.008228000000000001,0.435356,0.7808470000000001
2019-05-07T23:05:33.435031Z,0.929376,-0.990557,0.13505699999999998
2019-05-07T23:05:33.631031Z,0.363188,-0.448223,-0.39698
2019-05-07T23:05:33.832031Z,0.274264,0.085906,-0.132161
2019-05-07T23:05:34.034031Z,0.025209,0.6948270000000001,0.415764
2019-05-07T23:05:34.232031Z,0.216707,-0.12551500000000002,0.6511170000000001
2019-05-07T23:05:34.432031Z,-0.016232,-1.345205,-0.073824
2019-05-07T23:05:34.632031Z,0.281833,-0.21225100000000002,-0.405578
2019-05-07T23:05:34.835031Z,0.354004,0.43768,0.229215
2019-05-07T23:05:35.032031Z,0.788519,0.086853,0.5717270000000001
2019-05-07T23:05:35.233031Z,1.444792,-0.9677520000000001,0.022067
2019-05-07T23:05:35.433031Z,0.775098,-0.387337,-0.340023
2019-05-07T23:05:35.636031Z,0.349247,-0.053663999999999996,0.273443
2019-05-07T23:05:35.835031Z,0.100633,-0.06808,0.744571
2019-05-07T23:05:36.035031Z,0.044892,-1.29031,0.5329010000000001
2019-05-07T23:05:36.237031Z,0.09328,-1.133989,-0.126191
2019-05-07T23:05:36.447031Z,0.015103,-0.628169,0.037262
2019-05-07T23:05:36.636031Z,0.495155,-0.44769200000000003,0.7323529999999999
2019-05-07T23:05:36.835031Z,1.626792,-1.784081,1.056824
2019-05-07T23:05:37.035031Z,1.763341,-1.751984,0.280706
2019-05-07T23:05:37.237031Z,1.173455,-0.945254,0.40055999999999997
2019-05-07T23:05:37.437031Z,0.26811199999999996,-0.959501,1.071458
2019-05-07T23:05:37.636031Z,0.016196000000000002,-1.614666,0.6153069999999999
2019-05-07T23:05:37.835031Z,0.23263899999999998,-1.2785549999999999,0.234044
2019-05-07T23:05:38.041031Z,0.16258699999999998,-0.43873999999999996,0.055736
2019-05-07T23:05:38.236031Z,0.33366599999999996,-0.024630000000000003,0.141096
2019-05-07T23:05:38.436031Z,0.253874,-0.35758,0.577842
2019-05-07T23:05:38.637031Z,0.641055,-1.1104129999999999,0.179568
2019-05-07T23:05:38.840031Z,0.391692,-0.7150479999999999,0.07136
2019-05-07T23:05:39.038031Z,0.48031,-0.123706,0.317608
2019-05-07T23:05:39.236031Z,0.472466,-0.418037,0.902958
2019-05-07T23:05:39.439031Z,-0.083259,-1.3707200000000002,-0.087507
2019-05-07T23:05:39.639031Z,-0.056750999999999996,-0.673162,-0.1558
2019-05-07T23:05:39.838031Z,-0.017831,-0.036654,0.48495699999999997
2019-05-07T23:05:40.038031Z,-0.019962999999999998,-0.294796,0.600974
2019-05-07T23:05:40.239031Z,0.6547729999999999,-1.070163,0.264867
2019-05-07T23:05:40.440031Z,0.404679,-0.813476,0.151595
2019-05-07T23:05:40.639031Z,0.31897800000000004,-0.086011,-0.28376999999999997
2019-05-07T23:05:40.839031Z,-0.24575300000000003,0.19753800000000002,0.040347
2019-05-07T23:05:41.038031Z,0.8231639999999999,-0.375492,0.8729389999999999
2019-05-07T23:05:41.238031Z,-0.049706,-1.059345,0.16728900000000002
2019-05-07T23:05:41.438031Z,0.22448400000000002,-0.087775,-0.5073449999999999
2019-05-07T23:05:41.639031Z,0.07173,0.087421,0.550962
2019-05-07T23:05:41.841031Z,0.744757,-0.8391290000000001,0.9145190000000001
2019-05-07T23:05:42.041031Z,0.547207,-0.737304,-0.684342
2019-05-07T23:05:42.239031Z,0.363183,0.238384,-0.23124
2019-05-07T23:05:42.439031Z,0.7586649999999999,0.426782,0.619028
2019-05-07T23:05:42.640031Z,0.8385959999999999,-0.9093129999999999,0.384648
2019-05-07T23:05:42.839031Z,0.409204,-0.629706,-0.097166
2019-05-07T23:05:43.046031Z,0.48544899999999996,0.050183,0.082308
2019-05-07T23:05:43.240031Z,-0.167684,0.15118800000000002,0.569558
2019-05-07T23:05:43.440031Z,0.48323900000000003,-0.9865430000000001,0.45075
2019-05-07T23:05:43.641031Z,0.075059,-0.703763,0.027351
2019-05-07T23:05:43.841031Z,0.15778499999999998,-0.064932,-0.46264399999999994
2019-05-07T23:05:44.041031Z,-0.035929,0.30536599999999997,0.43745600000000007
2019-05-07T23:05:44.242031Z,-0.022161,-0.640397,0.729403
2019-05-07T23:05:44.443031Z,-0.077516,-1.057768,-0.394694
2019-05-07T23:05:44.644031Z,0.131267,-0.08794500000000001,-0.053782
2019-05-07T23:05:44.842031Z,0.210002,-0.017636000000000002,0.174485
2019-05-07T23:05:45.043031Z,0.681254,-0.9595819999999999,0.981992
2019-05-07T23:05:45.242031Z,0.840586,-1.107057,0.163219
2019-05-07T23:05:45.445031Z,0.305032,-0.394567,0.09183200000000001
2019-05-07T23:05:45.644031Z,0.016983,0.130486,0.335981
2019-05-07T23:05:45.845031Z,-0.065035,-0.354697,0.503057
2019-05-07T23:05:46.046031Z,-0.39818600000000004,-1.102789,0.013955
2019-05-07T23:05:46.246031Z,-0.0023420000000000003,-0.47246099999999996,-0.39138
2019-05-07T23:05:46.447031Z,-0.661301,-0.095496,0.622475
2019-05-07T23:05:46.644031Z,0.433435,-0.8017770000000001,0.351204
2019-05-07T23:05:46.843031Z,0.319332,-0.7675810000000001,0.006758
2019-05-07T23:05:47.044031Z,0.389433,-0.068248,-0.20078800000000002
2019-05-07T23:05:47.245031Z,0.503199,-0.006267,0.569983
2019-05-07T23:05:47.446031Z,0.6959489999999999,-1.195915,0.8266459999999999
2019-05-07T23:05:47.657031Z,0.10593699999999999,-1.0182950000000002,-0.527714
2019-05-07T23:05:47.845031Z,0.17288199999999998,-0.23885100000000004,0.308517
2019-05-07T23:05:48.044031Z,1.350838,-0.43585100000000004,1.4421629999999999
2019-05-07T23:05:48.246031Z,1.443163,-1.616945,0.169328
2019-05-07T23:05:48.446031Z,0.81616,-0.942157,0.135411
2019-05-07T23:05:48.648031Z,-0.176894,-0.559018,1.222536
2019-05-07T23:05:48.849031Z,-0.292812,-1.104282,0.645061
2019-05-07T23:05:49.047031Z,0.141318,-1.657907,0.043241
2019-05-07T23:05:49.292031Z,0.576259,-0.769417,-0.174016
2019-05-07T23:05:49.447031Z,1.012912,-0.5052909999999999,1.1105459999999998
2019-05-07T23:05:49.686031Z,1.604881,-1.670675,0.992042
2019-05-07T23:05:49.846031Z,1.7512400000000001,-1.1886889999999999,0.397929
2019-05-07T23:05:50.047031Z,0.716641,-0.774626,0.343513
2019-05-07T23:05:50.246031Z,0.54583,-0.454266,0.524076
2019-05-07T23:05:50.447031Z,0.445112,-1.2505899999999999,0.7721319999999999
2019-05-07T23:05:50.649031Z,0.730795,-1.083943,0.071996
2019-05-07T23:05:50.860031Z,0.8253299999999999,-0.47393900000000005,0.151108
2019-05-07T23:05:51.048031Z,2.2149259999999997,-0.72097,0.894699
2019-05-07T23:05:51.250031Z,2.144916,-1.836014,0.669582
2019-05-07T23:05:51.448031Z,1.250061,-1.208348,0.377391
2019-05-07T23:05:51.650031Z,-0.092632,-0.41666400000000003,0.63184
2019-05-07T23:05:51.851031Z,0.07546,-0.187309,0.27131700000000003
2019-05-07T23:05:52.050031Z,0.538754,-1.163689,0.343862
2019-05-07T23:05:52.251031Z,0.613536,-0.637167,0.12070499999999999
2019-05-07T23:05:52.452031Z,0.601679,-0.268099,0.139803
2019-05-07T23:05:52.648031Z,0.551096,0.171896,0.314065
2019-05-07T23:05:52.850031Z,1.4473850000000001,-1.2118010000000001,0.637084
2019-05-07T23:05:53.052031Z,1.723817,-1.7479639999999999,0.676397
2019-05-07T23:05:53.251031Z,1.355158,-1.1734879999999999,0.693059
2019-05-07T23:05:53.452031Z,0.844153,-0.162879,0.23518699999999998
2019-05-07T23:05:53.652031Z,0.07492,-0.5110060000000001,0.6468520000000001
2019-05-07T23:05:53.851031Z,0.6544270000000001,-1.3081969999999998,0.472991
2019-05-07T23:05:54.084031Z,0.782509,-1.27839,0.5461520000000001
2019-05-07T23:05:54.250031Z,1.007218,-1.469177,0.7586350000000001
2019-05-07T23:05:54.450031Z,1.9036259999999998,-2.356493,1.418012
2019-05-07T23:05:54.651031Z,1.388347,-3.101515,1.866797
2019-05-07T23:05:54.852031Z,1.216385,-2.435553,1.116956
2019-05-07T23:05:55.052031Z,0.048361,-1.110007,0.601187
2019-05-07T23:05:55.253031Z,-0.39211999999999997,-0.647285,0.5691689999999999
2019-05-07T23:05:55.452031Z,-0.19968,-0.565218,-0.254275
2019-05-07T23:05:55.652031Z,-0.677077,-0.550656,0.10032
2019-05-07T23:05:55.852031Z,-1.166182,-0.105358,-0.32901199999999997
2019-05-07T23:05:56.054031Z,-0.776992,-1.421274,1.231997
2019-05-07T23:05:56.255031Z,-0.708292,-0.73642,-0.409007
2019-05-07T23:05:56.453031Z,-0.180881,-0.59323,0.8259280000000001
2019-05-07T23:05:56.654031Z,0.155645,-0.8793690000000001,1.140858
2019-05-07T23:05:56.853031Z,0.137957,-0.998426,-0.25917399999999996
2019-05-07T23:05:57.054031Z,0.261986,-0.261123,0.212781
2019-05-07T23:05:57.254031Z,1.089337,-0.272524,0.6560199999999999
2019-05-07T23:05:57.454031Z,1.1720899999999999,-0.768273,0.158538
2019-05-07T23:05:57.677031Z,1.464289,-0.203281,-0.387883
2019-05-07T23:05:57.855031Z,1.489495,0.13055,-0.0768
2019-05-07T23:05:58.055031Z,1.607664,-0.124259,0.702903
2019-05-07T23:05:58.254031Z,1.314794,-1.323364,0.8559690000000001
2019-05-07T23:05:58.456031Z,1.263034,-0.332025,0.026099
2019-05-07T23:05:58.657031Z,-0.224644,-0.229115,0.25674600000000003
2019-05-07T23:05:58.858031Z,-0.337525,-0.163496,1.1387770000000002
2019-05-07T23:05:59.055031Z,0.253117,-1.806509,0.385356
2019-05-07T23:05:59.289031Z,-0.5696100000000001,-1.0549959999999998,-0.774738
2019-05-07T23:05:59.455031Z,-1.778187,-0.434972,0.125632
2019-05-07T23:05:59.663031Z,-1.793754,-1.452932,0.6648729999999999
2019-05-07T23:05:59.856031Z,-0.7845479999999999,-1.497673,0.021681
2019-05-07T23:06:00.056031Z,0.10536400000000001,-0.47679399999999994,0.39057600000000003
2019-05-07T23:06:00.256031Z,0.8609100000000001,0.176126,0.817805
2019-05-07T23:06:00.457031Z,1.320236,-0.534858,-0.075785
2019-05-07T23:06:00.657031Z,0.763117,-0.200131,-0.091856
2019-05-07T23:06:00.857031Z,0.6263029999999999,0.511651,-0.114648
2019-05-07T23:06:01.059031Z,-0.130527,0.195521,0.479203
2019-05-07T23:06:01.258031Z,-0.0015689999999999999,-0.5584399999999999,-0.156209
2019-05-07T23:06:01.458031Z,0.251992,0.025707999999999998,-0.372264
2019-05-07T23:06:01.658031Z,0.348781,0.535561,0.514981
2019-05-07T23:06:01.859031Z,0.716229,-0.070863,0.5536949999999999
2019-05-07T23:06:02.059031Z,0.7219260000000001,-0.5041720000000001,-0.092116
2019-05-07T23:06:02.269031Z,0.286941,0.211356,-0.6492760000000001
2019-05-07T23:06:02.460031Z,0.253757,0.303784,0.34523000000000004
2019-05-07T23:06:02.658031Z,0.00806,-0.580855,0.719072
2019-05-07T23:06:02.858031Z,0.387574,-0.23714200000000002,-0.137166
2019-05-07T23:06:03.059031Z,0.131602,0.39619899999999997,-0.277185
2019-05-07T23:06:03.258031Z,-0.136017,0.561293,0.257117
2019-05-07T23:06:03.461031Z,0.395552,-0.231442,0.165568
2019-05-07T23:06:03.660031Z,0.45315500000000003,-0.460892,-0.322234
