Datetime,accx,accy,accz
2019-03-21T22:04:43.079360Z,-0.5263909999999999,0.08693,-0.34458
2019-03-21T22:04:43.280360Z,-0.559768,0.060333000000000005,-0.48113900000000004
2019-03-21T22:04:43.483360Z,-0.779569,-0.13264700000000001,-0.168925
2019-03-21T22:04:43.684360Z,0.151475,1.039614,0.026948000000000003
2019-03-21T22:04:43.886360Z,0.576639,0.879394,-0.227483
2019-03-21T22:04:44.088360Z,0.426328,0.721654,-0.183507
2019-03-21T22:04:44.290360Z,0.34582399999999996,0.644883,-0.249358
2019-03-21T22:04:44.494360Z,0.9420700000000001,1.314468,-0.45140600000000003
2019-03-21T22:04:44.694360Z,0.443817,1.7112439999999998,-0.22934899999999997
2019-03-21T22:04:44.895360Z,0.8388450000000001,0.830936,-0.368884
2019-03-21T22:04:45.097360Z,0.670195,1.2727700000000002,-0.783949
2019-03-21T22:04:45.299360Z,0.830324,0.707144,0.230314
2019-03-21T22:04:45.502360Z,1.173916,0.821031,-0.406427
2019-03-21T22:04:45.703360Z,0.758026,0.697025,-0.31799
2019-03-21T22:04:45.905360Z,0.767918,0.744939,-0.399959
2019-03-21T22:04:46.107360Z,0.8315450000000001,0.746566,-0.7333970000000001
2019-03-21T22:04:46.309360Z,0.55025,0.357966,-0.128901
2019-03-21T22:04:46.511360Z,0.307697,0.47312600000000005,-0.22342399999999998
2019-03-21T22:04:47.264360Z,0.0,0.0,0.0
2019-03-21T22:04:47.475360Z,-0.15618800000000002,-0.055238,-0.023572
2019-03-21T22:04:47.666360Z,0.013961000000000001,-0.09161699999999999,0.026813999999999998
2019-03-21T22:04:47.868360Z,-0.044102999999999996,0.091159,-0.213806
2019-03-21T22:04:48.070360Z,0.033270999999999995,0.223228,0.11416400000000002
2019-03-21T22:04:48.272360Z,-0.029305,-0.11277999999999999,0.11669000000000002
2019-03-21T22:04:48.474360Z,0.031708999999999994,-0.14608,-0.059496
2019-03-21T22:04:48.675360Z,0.275511,0.101832,-0.000898
2019-03-21T22:04:48.877360Z,0.179944,0.115336,0.0975
2019-03-21T22:04:49.089360Z,0.040416,0.022896,-0.071836
2019-03-21T22:04:49.281360Z,0.220635,0.047513,0.032125
2019-03-21T22:04:49.493360Z,0.508556,0.131943,0.169396
2019-03-21T22:04:49.687360Z,0.377397,-0.178586,-0.016846
2019-03-21T22:04:49.886360Z,0.12853499999999998,-0.025532,0.002022
2019-03-21T22:04:50.088360Z,0.24581599999999998,0.14666500000000002,-0.085755
2019-03-21T22:04:50.558360Z,-0.171311,-0.159752,1.853259
2019-03-21T22:04:50.759360Z,-0.171822,-0.374969,-0.697853
2019-03-21T22:04:50.960360Z,-0.109725,0.22480300000000003,-0.629827
2019-03-21T22:04:51.163360Z,-0.133787,1.530626,0.479821
2019-03-21T22:04:51.365360Z,-0.612246,-1.293483,0.184591
2019-03-21T22:04:51.567360Z,-0.341053,-0.125513,-0.15672
2019-03-21T22:04:51.768360Z,-0.711488,0.498985,-0.37553600000000004
2019-03-21T22:04:51.970360Z,-0.558326,1.529324,-0.43315699999999996
2019-03-21T22:04:52.172360Z,-0.830522,-0.221456,0.41536300000000004
2019-03-21T22:04:52.374360Z,-0.209089,-0.22676999999999997,-0.254438
2019-03-21T22:04:52.600360Z,-0.633073,0.38664299999999996,-1.556273
2019-03-21T22:04:52.777360Z,-0.006564,0.37264,-0.337908
2019-03-21T22:04:52.979360Z,0.012697,0.6740189999999999,-0.31512399999999996
2019-03-21T22:04:53.181360Z,0.029604000000000002,1.2797889999999998,-0.37300500000000003
2019-03-21T22:04:53.382360Z,0.426209,2.005054,-0.422865
2019-03-21T22:04:53.584360Z,0.632119,1.9537060000000002,0.803017
2019-03-21T22:04:53.786360Z,0.488679,-0.7321300000000001,-0.369053
2019-03-21T22:04:53.988360Z,0.48521899999999996,-0.22380999999999998,-0.475505
2019-03-21T22:04:54.189360Z,-0.205019,0.8363280000000001,-0.235776
2019-03-21T22:04:54.392360Z,-0.234767,1.210458,-0.030151
2019-03-21T22:04:54.593360Z,-1.334502,-0.9103049999999999,0.202405
2019-03-21T22:04:54.795360Z,-1.070747,-0.538064,0.36434099999999997
2019-03-21T22:04:55.014360Z,-0.125926,-0.17063499999999998,0.11268
2019-03-21T22:04:55.212360Z,-0.487188,0.633188,0.19322
2019-03-21T22:04:55.597360Z,0.027086000000000002,0.106227,0.287522
2019-03-21T22:04:55.799360Z,0.0,0.0,0.0
2019-03-21T22:04:56.001360Z,-0.07321,0.01218,-0.065223
2019-03-21T22:04:56.205360Z,0.085023,0.179398,-0.10381900000000001
2019-03-21T22:04:56.425360Z,0.54328,0.44428,-0.139944
2019-03-21T22:04:56.620360Z,0.6087239999999999,0.538442,-0.08952
2019-03-21T22:04:56.809360Z,1.105032,0.724866,0.141145
2019-03-21T22:04:57.010360Z,0.281597,0.8549559999999999,0.18582
2019-03-21T22:04:57.212360Z,0.227287,-0.197997,0.963391
2019-03-21T22:04:57.413360Z,0.767698,-1.7148560000000002,-0.320229
2019-03-21T22:04:57.615360Z,1.011112,-0.324741,-0.28841500000000003
2019-03-21T22:04:57.817360Z,1.181872,0.015082,0.019711000000000003
2019-03-21T22:04:58.019360Z,1.982994,0.23884899999999998,-0.085493
2019-03-21T22:04:58.221360Z,1.218372,-0.217525,1.256406
2019-03-21T22:04:58.423360Z,0.384292,-1.430087,-0.28282399999999996
2019-03-21T22:04:58.624360Z,0.537114,-0.5013310000000001,0.134486
2019-03-21T22:04:59.106360Z,-0.064309,0.118301,-0.270712
2019-03-21T22:04:59.296360Z,0.39767399999999997,0.16278,-0.048201
2019-03-21T22:04:59.498360Z,0.43595,0.584875,-0.412682
2019-03-21T22:04:59.700360Z,0.453896,0.547437,-0.296713
2019-03-21T22:04:59.901360Z,0.30214,0.873984,-0.001312
2019-03-21T22:05:00.103360Z,0.06820599999999999,0.494889,-0.059128999999999994
2019-03-21T22:05:00.305360Z,0.162248,0.708721,-0.050882
2019-03-21T22:05:00.506360Z,0.11836400000000001,0.6793140000000001,-0.040477
2019-03-21T22:05:00.708360Z,-0.779888,-1.709121,1.347405
2019-03-21T22:05:00.910360Z,-0.70806,-0.218904,-0.480012
2019-03-21T22:05:01.112360Z,0.20638600000000001,0.114067,0.036087
2019-03-21T22:05:01.314360Z,0.204664,0.613074,0.748635
2019-03-21T22:05:01.516360Z,-0.49849899999999997,-2.01518,-0.31302199999999997
2019-03-21T22:05:01.717360Z,-0.315842,-0.741123,-0.16728800000000002
2019-03-21T22:05:01.919360Z,-0.155096,0.112818,0.037465
2019-03-21T22:05:02.121360Z,-0.283418,0.168794,0.621329
2019-03-21T22:05:02.323360Z,-0.387379,-1.344255,-0.478828
2019-03-21T22:05:02.526360Z,0.306654,-0.8600610000000001,0.177065
2019-03-21T22:05:02.727360Z,-0.161137,-0.41259799999999996,0.599595
2019-03-21T22:05:02.939360Z,-0.189376,0.084385,0.384021
2019-03-21T22:05:03.130360Z,0.015681999999999998,-0.18890099999999999,-0.037008
2019-03-21T22:05:03.332360Z,0.011014,-0.13610899999999998,-0.039827999999999995
2019-03-21T22:05:03.534360Z,-0.194247,-0.134199,-0.107644
2019-03-21T22:05:03.735360Z,0.474077,-0.06005,-0.252637
2019-03-21T22:05:04.123360Z,0.673259,0.370212,-0.338589
2019-03-21T22:05:04.325360Z,0.0,0.0,0.0
2019-03-21T22:05:04.527360Z,0.070688,-0.395403,0.292904
2019-03-21T22:05:04.729360Z,-0.757828,-0.390235,-0.279318
2019-03-21T22:05:04.931360Z,-0.400424,0.022712,-0.177126
2019-03-21T22:05:05.133360Z,0.048019,0.549707,-0.09649500000000001
2019-03-21T22:05:05.334360Z,0.287502,0.731078,-0.029401
2019-03-21T22:05:05.536360Z,-0.067442,-0.09728400000000001,0.55219
2019-03-21T22:05:05.738360Z,0.438608,-1.0333729999999999,-0.373193
2019-03-21T22:05:05.940360Z,0.683004,0.06602000000000001,-0.35378000000000004
2019-03-21T22:05:06.141360Z,0.839669,0.183887,0.26266
2019-03-21T22:05:06.343360Z,0.7278789999999999,0.087536,0.277283
2019-03-21T22:05:06.545360Z,0.361958,-0.34875900000000004,-0.2538
2019-03-21T22:05:06.747360Z,-0.066254,0.040595,0.152848
2019-03-21T22:05:06.975360Z,-0.11398,-0.205031,0.05584
2019-03-21T22:05:07.150360Z,0.310784,-0.105843,0.033674
2019-03-21T22:05:07.640360Z,0.5181060000000001,0.41808100000000004,-0.05349299999999999
2019-03-21T22:05:07.842360Z,0.232661,0.8371290000000001,0.101583
2019-03-21T22:05:08.044360Z,-0.728047,0.914545,0.654396
2019-03-21T22:05:08.245360Z,0.174925,-0.796217,-0.35221399999999997
2019-03-21T22:05:08.447360Z,0.406472,-0.8724790000000001,0.155366
2019-03-21T22:05:08.649360Z,0.656546,-0.057485,-0.175213
2019-03-21T22:05:08.850360Z,0.577681,0.511598,-0.131204
2019-03-21T22:05:09.052360Z,0.44773599999999997,0.026851,-0.070159
2019-03-21T22:05:09.254360Z,-0.453211,-0.381538,-0.446009
2019-03-21T22:05:09.456360Z,0.05349299999999999,0.144304,-0.239123
2019-03-21T22:05:09.658360Z,-0.202923,0.8638950000000001,0.042081
2019-03-21T22:05:09.859360Z,-1.094354,0.8435530000000001,0.271885
2019-03-21T22:05:10.061360Z,-0.549077,-1.0038200000000002,-0.458204
2019-03-21T22:05:10.264360Z,-0.441536,-0.719033,0.456207
2019-03-21T22:05:10.465360Z,-0.751095,-0.565707,0.5576399999999999
2019-03-21T22:05:10.667360Z,-0.8558690000000001,-0.194804,0.225478
2019-03-21T22:05:10.868360Z,-0.8790100000000001,-0.298623,0.171845
2019-03-21T22:05:11.087360Z,-0.44632700000000003,-0.183359,-0.060565999999999995
2019-03-21T22:05:11.272360Z,-0.32578,-0.05683099999999999,0.071167
2019-03-21T22:05:11.474360Z,-0.192926,0.032833,-0.194969
2019-03-21T22:05:11.675360Z,-0.17075,-0.265977,0.087588
2019-03-21T22:05:11.877360Z,-0.24659,-0.367028,0.311377
2019-03-21T22:05:12.079360Z,-0.365752,-0.046656,0.29901700000000003
2019-03-21T22:05:12.281360Z,-0.49686199999999997,0.850874,-0.359363
2019-03-21T22:05:12.674360Z,-0.280915,0.369379,-0.263529
2019-03-21T22:05:12.876360Z,0.0,0.0,0.0
2019-03-21T22:05:13.077360Z,0.195035,0.48639,0.079979
2019-03-21T22:05:13.279360Z,-0.13301500000000002,0.649683,-0.016949000000000002
2019-03-21T22:05:13.481360Z,-0.058036000000000004,0.776502,0.03896
2019-03-21T22:05:13.683360Z,-0.311221,0.054848,0.095137
2019-03-21T22:05:13.885360Z,0.074352,-0.725435,0.20628600000000002
2019-03-21T22:05:14.086360Z,0.285235,0.062738,0.04378
2019-03-21T22:05:14.288360Z,0.8308530000000001,0.118546,-0.010602
2019-03-21T22:05:14.491360Z,0.52568,0.5896279999999999,-0.010715
2019-03-21T22:05:14.692360Z,0.325902,0.835061,-0.0018210000000000001
2019-03-21T22:05:14.906360Z,-0.299062,0.097513,-0.074084
2019-03-21T22:05:15.095360Z,-0.417375,0.169536,0.009151000000000001
2019-03-21T22:05:15.297360Z,-0.365259,0.13380699999999998,0.11951700000000001
2019-03-21T22:05:15.499360Z,-0.5037470000000001,0.348526,-0.5221899999999999
2019-03-21T22:05:15.700360Z,-1.882407,0.190136,-0.369237
2019-03-21T22:05:16.170360Z,-0.549445,0.897917,0.269322
2019-03-21T22:05:16.372360Z,-0.570171,0.423101,-0.185349
2019-03-21T22:05:16.574360Z,-1.2553,0.558271,0.127357
2019-03-21T22:05:16.775360Z,-1.526145,1.344339,-0.501521
2019-03-21T22:05:16.977360Z,-1.2675290000000001,1.5919860000000001,-0.47456000000000004
2019-03-21T22:05:17.179360Z,-0.739061,0.8735950000000001,-0.240155
2019-03-21T22:05:17.381360Z,-0.76707,0.790672,0.319961
2019-03-21T22:05:17.583360Z,-1.396092,0.877401,0.388745
2019-03-21T22:05:17.784360Z,-0.8830040000000001,0.342992,-0.964008
2019-03-21T22:05:17.986360Z,-1.382516,-1.038683,0.329523
2019-03-21T22:05:18.188360Z,-0.982634,0.111633,0.576144
2019-03-21T22:05:18.390360Z,-1.255552,-0.077938,0.304429
2019-03-21T22:05:18.592360Z,-0.872408,0.817444,-0.042569
2019-03-21T22:05:18.793360Z,-2.044739,0.497579,0.572112
2019-03-21T22:05:18.995360Z,-1.460754,0.280534,0.103439
2019-03-21T22:05:19.198360Z,-1.850601,0.5986779999999999,0.17894000000000002
2019-03-21T22:05:19.400360Z,-1.447164,0.9217120000000001,-0.333278
2019-03-21T22:05:19.601360Z,-2.007013,1.3911149999999999,0.49832200000000004
2019-03-21T22:05:19.813360Z,-2.351445,0.694241,0.456716
2019-03-21T22:05:20.005360Z,-2.078722,0.732631,0.017228
2019-03-21T22:05:20.207360Z,-1.555296,0.208125,0.11782100000000001
2019-03-21T22:05:20.408360Z,-1.960186,-0.148928,-0.006029
2019-03-21T22:05:20.610360Z,-1.305398,0.095666,0.9352809999999999
2019-03-21T22:05:20.812360Z,-3.0255799999999997,-0.731847,0.409357
2019-03-21T22:05:21.013360Z,-2.176189,0.041264999999999996,0.612587
2019-03-21T22:05:21.215360Z,-2.773876,0.249217,1.12235
2019-03-21T22:05:21.417360Z,-2.63278,1.1168129999999998,-0.799558
2019-03-21T22:05:21.619360Z,-1.777496,0.775584,0.996999
2019-03-21T22:05:21.821360Z,-2.006909,0.6915520000000001,0.07584500000000001
2019-03-21T22:05:22.023360Z,-2.380302,1.7171880000000002,-1.06531
2019-03-21T22:05:22.225360Z,-1.231255,1.7297770000000001,0.083953
2019-03-21T22:05:22.426360Z,-0.9774450000000001,1.518669,0.43986499999999995
2019-03-21T22:05:22.644360Z,-1.370818,1.9148189999999998,0.199656
2019-03-21T22:05:22.830360Z,-1.0113889999999999,1.472032,0.067288
2019-03-21T22:05:23.031360Z,-1.273209,1.186401,-0.688333
2019-03-21T22:05:23.233360Z,-1.63123,0.9490290000000001,0.356142
2019-03-21T22:05:23.434360Z,-1.563053,0.843349,-0.15043499999999999
2019-03-21T22:05:23.664360Z,-1.624465,0.8903629999999999,-0.155469
2019-03-21T22:05:23.838360Z,-1.061963,0.517586,0.1073
2019-03-21T22:05:24.040360Z,-0.780899,0.41292399999999996,0.07041499999999999
2019-03-21T22:05:24.242360Z,-0.462765,0.168856,-0.086887
2019-03-21T22:05:24.443360Z,-0.287217,0.087791,0.007389
2019-03-21T22:05:24.645360Z,-0.189462,0.11829400000000001,0.059575
2019-03-21T22:05:24.847360Z,-0.12626099999999998,0.160643,0.061193
2019-03-21T22:05:25.049360Z,0.074711,0.14854,-0.141737
2019-03-21T22:05:25.250360Z,0.251294,0.31033099999999997,-0.068409
2019-03-21T22:05:25.453360Z,0.5511729999999999,0.809321,-0.090777
2019-03-21T22:05:25.654360Z,0.45445100000000005,1.475376,0.130474
2019-03-21T22:05:25.856360Z,0.397929,1.0929229999999999,-0.798819
2019-03-21T22:05:26.058360Z,-1.176505,0.374114,-0.24663200000000002
2019-03-21T22:05:26.260360Z,-1.140095,0.9712379999999999,0.188473
2019-03-21T22:05:26.461360Z,-2.25545,1.031998,-0.06518
2019-03-21T22:05:26.663360Z,-2.278695,0.734993,0.49806000000000006
2019-03-21T22:05:26.865360Z,-2.2340619999999998,-1.5636860000000001,-0.143509
2019-03-21T22:05:27.068360Z,-1.885018,-1.591624,1.1125399999999999
2019-03-21T22:05:27.269360Z,-2.563256,-1.054116,1.087132
2019-03-21T22:05:27.471360Z,-2.12289,-1.221973,0.5915189999999999
2019-03-21T22:05:27.673360Z,-1.9307299999999998,-0.9929620000000001,0.5670569999999999
2019-03-21T22:05:27.875360Z,-1.309157,-0.806603,-0.274584
2019-03-21T22:05:28.076360Z,-1.303996,-0.141211,0.47762200000000005
2019-03-21T22:05:28.277360Z,-1.309974,0.235103,0.629267
2019-03-21T22:05:28.479360Z,-0.9853559999999999,-0.541017,1.490896
2019-03-21T22:05:28.681360Z,-2.603026,-1.596745,-0.397007
2019-03-21T22:05:28.883360Z,-1.870243,-0.565974,0.177148
2019-03-21T22:05:29.084360Z,-1.443418,-0.032361,-0.256228
2019-03-21T22:05:29.286360Z,-2.09413,0.503868,1.028708
2019-03-21T22:05:29.488360Z,-1.933599,-2.3732439999999997,1.399286
2019-03-21T22:05:29.690360Z,-1.6858919999999997,-1.8601900000000002,-0.026012
2019-03-21T22:05:29.891360Z,-1.849921,-1.00809,1.53569
2019-03-21T22:05:30.093360Z,-1.284406,-1.949143,-0.502834
2019-03-21T22:05:30.295360Z,-1.800212,-0.765724,1.328195
2019-03-21T22:05:30.497360Z,-2.004861,0.277837,0.1506
2019-03-21T22:05:30.699360Z,-1.3605,0.564813,0.8471299999999999
2019-03-21T22:05:30.900360Z,-1.6777849999999999,0.49593100000000007,0.7254689999999999
2019-03-21T22:05:31.103360Z,-1.83985,-0.274047,0.373879
2019-03-21T22:05:31.304360Z,-1.45031,-0.8937280000000001,0.10334700000000001
2019-03-21T22:05:31.519360Z,-1.150421,-0.013246,1.127617
2019-03-21T22:05:31.708360Z,-0.502487,-0.073038,0.24190100000000003
2019-03-21T22:05:31.909360Z,-0.377712,0.365944,-0.14019500000000001
2019-03-21T22:05:32.111360Z,-0.167132,0.974282,0.349951
2019-03-21T22:05:32.313360Z,0.160331,0.650523,0.31383
2019-03-21T22:05:32.514360Z,-1.139122,-0.483336,0.594934
2019-03-21T22:05:32.716360Z,-1.553777,0.14338599999999999,0.187136
2019-03-21T22:05:32.918360Z,-1.0537290000000001,-0.239666,0.102594
2019-03-21T22:05:33.120360Z,-0.888083,0.632029,-0.419995
2019-03-21T22:05:33.321360Z,-0.817565,-0.005954999999999999,0.9015219999999999
2019-03-21T22:05:33.523360Z,-2.047966,-0.751778,-0.253277
2019-03-21T22:05:33.725360Z,0.6592899999999999,-0.6402800000000001,-0.886798
2019-03-21T22:05:33.928360Z,1.4383780000000002,-0.717902,0.739614
2019-03-21T22:05:34.128360Z,0.095088,-3.207626,0.646856
2019-03-21T22:05:34.330360Z,0.669347,-2.952273,1.199236
2019-03-21T22:05:34.532360Z,1.217876,-2.261421,0.969088
2019-03-21T22:05:34.750360Z,1.331109,-1.661902,0.9628760000000001
2019-03-21T22:05:34.935360Z,1.110236,-1.580972,0.257865
2019-03-21T22:05:35.138360Z,2.903563,-0.721668,0.8176770000000001
2019-03-21T22:05:35.339360Z,1.813266,-0.35898,0.014184
2019-03-21T22:05:35.540360Z,2.009645,0.6893239999999999,-0.090056
2019-03-21T22:05:35.742360Z,1.891248,1.764876,-0.101235
2019-03-21T22:05:35.944360Z,1.7730540000000001,1.2254450000000001,1.8874009999999999
2019-03-21T22:05:36.146360Z,0.501777,0.5302279999999999,-0.171066
2019-03-21T22:05:36.347360Z,1.167972,1.485842,-0.000688
2019-03-21T22:05:36.549360Z,0.7106939999999999,2.383033,0.48934399999999995
2019-03-21T22:05:36.753360Z,0.536321,1.298224,1.480056
2019-03-21T22:05:36.952360Z,0.25551599999999997,0.663017,-0.235686
2019-03-21T22:05:37.163360Z,0.086357,1.113141,-0.293875
2019-03-21T22:05:37.356360Z,0.446068,1.425293,-0.27422199999999997
2019-03-21T22:05:37.557360Z,0.614003,2.007021,-0.145248
2019-03-21T22:05:37.759360Z,0.807873,2.314377,-0.19356700000000002
2019-03-21T22:05:37.961360Z,0.5113840000000001,2.430647,2.222877
2019-03-21T22:05:38.163360Z,-0.43182,1.173822,-1.208594
2019-03-21T22:05:38.364360Z,0.07710499999999999,1.5490899999999999,0.397698
2019-03-21T22:05:38.566360Z,0.806651,1.599669,0.183793
2019-03-21T22:05:38.768360Z,0.40010500000000004,2.3532669999999998,-0.439637
2019-03-21T22:05:38.970360Z,0.167727,0.9987959999999999,0.413108
2019-03-21T22:05:39.171360Z,-0.047372000000000004,-0.044929000000000004,0.009825
2019-03-21T22:05:39.373360Z,-0.172157,0.55314,0.074462
2019-03-21T22:05:39.575360Z,-0.4397,0.617835,0.18600799999999998
2019-03-21T22:05:39.777360Z,-0.552615,0.514456,0.097009
2019-03-21T22:05:39.978360Z,-0.076187,0.5659649999999999,0.147503
2019-03-21T22:05:40.180360Z,-0.12138900000000001,0.432572,-0.356211
2019-03-21T22:05:40.382360Z,0.167754,0.596421,0.211713
2019-03-21T22:05:40.584360Z,0.764877,0.823793,-0.22407
2019-03-21T22:05:40.785360Z,0.445337,-0.052270000000000004,-0.056933000000000004
2019-03-21T22:05:40.987360Z,-1.519807,-0.897048,-0.11011300000000002
2019-03-21T22:05:41.189360Z,-0.7705310000000001,-0.54001,-0.275072
2019-03-21T22:05:41.390360Z,-0.459203,-0.23780700000000002,-0.8379190000000001
2019-03-21T22:05:41.592360Z,-0.230961,0.06602100000000001,0.687041
2019-03-21T22:05:41.794360Z,-1.096041,-0.254994,0.37946599999999997
2019-03-21T22:05:41.995360Z,-0.15873800000000002,-1.922885,-0.47443
2019-03-21T22:05:42.197360Z,-0.30601,-1.369615,0.24758400000000003
2019-03-21T22:05:42.418360Z,-0.684191,-1.0631620000000002,-0.054438
2019-03-21T22:05:42.601360Z,-0.667011,-0.846266,0.380589
2019-03-21T22:05:42.802360Z,-0.9501149999999999,-0.880532,-0.171273
2019-03-21T22:05:43.004360Z,-0.023791999999999997,-0.71887,0.129249
2019-03-21T22:05:43.206360Z,0.72877,-0.15925,0.5436529999999999
2019-03-21T22:05:43.407360Z,0.700329,-0.039744999999999996,0.08103400000000001
2019-03-21T22:05:43.610360Z,0.376291,0.49558500000000005,-0.226924
2019-03-21T22:05:43.811360Z,0.26653499999999997,-1.281781,0.455583
2019-03-21T22:05:44.013360Z,-1.229723,-1.3969479999999999,0.584862
2019-03-21T22:05:44.215360Z,-1.0669819999999999,-0.787031,0.189556
2019-03-21T22:05:44.416360Z,-0.5139600000000001,0.036837,0.221179
2019-03-21T22:05:44.619360Z,-1.257741,0.054935000000000005,0.050681
2019-03-21T22:05:44.821360Z,-0.6672140000000001,-2.01004,0.884503
2019-03-21T22:05:45.022360Z,-0.755494,-1.965934,0.49709
2019-03-21T22:05:45.223360Z,-0.42529799999999995,-1.565387,0.657158
2019-03-21T22:05:45.425360Z,-0.244123,-1.275579,0.20733400000000002
2019-03-21T22:05:45.659360Z,-0.451358,-1.2757020000000001,-0.20650700000000002
2019-03-21T22:05:45.829360Z,-0.650937,-0.798345,0.614102
2019-03-21T22:05:46.030360Z,-0.44656999999999997,-1.059587,0.022438999999999997
2019-03-21T22:05:46.232360Z,-0.038255000000000004,-0.568537,0.23048400000000002
2019-03-21T22:05:46.434360Z,0.176598,-0.25516,0.177123
2019-03-21T22:05:46.636360Z,-0.112382,0.11203099999999999,0.43025
2019-03-21T22:05:46.837360Z,1.1039940000000001,-0.46998100000000004,1.472528
2019-03-21T22:05:47.039360Z,-1.05777,-1.6500849999999998,-1.007015
2019-03-21T22:05:47.241360Z,0.143453,-0.125993,-0.50545
2019-03-21T22:05:47.442360Z,-0.029618000000000002,0.41621,-0.148707
2019-03-21T22:05:47.644360Z,-0.120735,0.03335,2.347216
2019-03-21T22:05:47.846360Z,0.751687,-1.7286529999999998,-1.7186549999999998
2019-03-21T22:05:48.048360Z,0.817301,0.181557,-0.292689
2019-03-21T22:05:48.249360Z,0.478887,0.833097,1.134439
2019-03-21T22:05:48.451360Z,-0.19076400000000002,-1.5970799999999998,0.044843
2019-03-21T22:05:48.653360Z,0.45194700000000004,-0.180377,0.31027899999999997
2019-03-21T22:05:48.854360Z,0.775016,0.793867,0.527084
2019-03-21T22:05:49.056360Z,0.5635760000000001,0.112075,2.4868770000000002
2019-03-21T22:05:49.258360Z,1.580649,-0.683649,-0.511919
2019-03-21T22:05:49.460360Z,1.459333,0.615163,-0.204512
2019-03-21T22:05:49.662360Z,1.3646479999999999,1.4112280000000001,1.6229770000000001
2019-03-21T22:05:49.863360Z,0.7300800000000001,0.085096,-0.204491
2019-03-21T22:05:50.065360Z,0.16735899999999998,-0.519161,-0.593192
2019-03-21T22:05:50.267360Z,0.9900389999999999,0.44885,-0.389915
2019-03-21T22:05:50.470360Z,0.8759459999999999,0.810884,0.3185
2019-03-21T22:05:50.671360Z,0.9903270000000001,0.411869,0.368456
2019-03-21T22:05:50.873360Z,1.9081110000000001,0.32091,0.442975
2019-03-21T22:05:51.085360Z,-0.007996,1.474724,-0.573022
2019-03-21T22:05:51.276360Z,-0.41580900000000004,1.069092,-0.292043
2019-03-21T22:05:51.478360Z,-0.21666999999999997,1.218969,-0.35689
2019-03-21T22:05:51.680360Z,-0.044226,0.8224319999999999,0.275769
2019-03-21T22:05:51.906360Z,-0.107563,0.693163,0.10441500000000001
2019-03-21T22:05:52.082360Z,-0.206325,0.595989,-0.051316999999999995
2019-03-21T22:05:52.284360Z,-0.22202600000000003,0.41303999999999996,-0.20664000000000002
2019-03-21T22:05:52.486360Z,-0.213687,0.40678800000000004,-0.055275
2019-03-21T22:05:52.689360Z,-0.09752899999999999,0.26929699999999995,-0.271993
2019-03-21T22:05:52.889360Z,-0.27832399999999996,0.23810100000000003,-0.139989
2019-03-21T22:05:53.091360Z,0.214352,0.039665,0.543138
2019-03-21T22:05:53.293360Z,-0.148128,0.400812,-0.002995
2019-03-21T22:05:53.495360Z,0.044701,0.570364,-0.273469
2019-03-21T22:05:53.696360Z,0.157551,1.359157,0.5529069999999999
2019-03-21T22:05:53.898360Z,-0.287774,0.099089,-0.024675
2019-03-21T22:05:54.100360Z,0.5994550000000001,-1.1265290000000001,-0.24684
2019-03-21T22:05:54.301360Z,0.9504360000000001,-0.200418,-0.290483
2019-03-21T22:05:54.503360Z,0.7366159999999999,0.813208,0.7540600000000001
2019-03-21T22:05:54.705360Z,0.722683,-0.01745,1.547421
2019-03-21T22:05:54.907360Z,-1.362949,-0.795013,-1.113724
2019-03-21T22:05:55.109360Z,0.09121900000000001,0.731233,0.26248499999999997
2019-03-21T22:05:55.310360Z,0.874066,0.649411,0.151009
2019-03-21T22:05:55.511360Z,-0.049059,0.775393,-0.130743
2019-03-21T22:05:55.714360Z,-0.098622,-1.194021,0.382263
2019-03-21T22:05:55.915360Z,0.6016600000000001,-1.284356,-0.307031
2019-03-21T22:05:56.117360Z,1.019506,-0.803443,0.673612
2019-03-21T22:05:56.362360Z,0.900934,-0.206019,0.479166
2019-03-21T22:05:56.522360Z,0.405369,-0.058449,0.24754600000000002
2019-03-21T22:05:56.723360Z,0.5268390000000001,-0.055623,0.066852
2019-03-21T22:05:56.924360Z,1.03807,0.09929299999999999,0.09263099999999999
2019-03-21T22:05:57.126360Z,0.723241,0.291198,0.134394
2019-03-21T22:05:57.328360Z,0.311155,1.04166,0.22214699999999998
2019-03-21T22:05:57.530360Z,0.305733,-0.007273999999999999,0.044515
2019-03-21T22:05:57.731360Z,-1.14307,-0.411584,-0.647799
2019-03-21T22:05:57.933360Z,-0.5712520000000001,0.6858609999999999,0.0017980000000000001
2019-03-21T22:05:58.135360Z,-0.261981,0.5567479999999999,0.35583400000000004
2019-03-21T22:05:58.337360Z,-0.603513,-1.100373,-0.392952
2019-03-21T22:05:58.538360Z,0.558067,-1.231301,0.590629
2019-03-21T22:05:58.740360Z,0.42514799999999997,-0.639103,0.713643
2019-03-21T22:05:58.941360Z,-0.106579,-0.42428699999999997,1.344665
2019-03-21T22:05:59.143360Z,-0.45423199999999997,-1.46278,0.325319
2019-03-21T22:05:59.345360Z,-0.254653,-0.796377,-0.01375
2019-03-21T22:05:59.547360Z,-0.156403,-0.661502,0.050488
2019-03-21T22:05:59.749360Z,0.141227,-0.030244,0.15957000000000002
2019-03-21T22:05:59.950360Z,-0.15109,-0.372723,-0.401163
2019-03-21T22:06:00.152360Z,0.026989,-0.309637,0.420554
2019-03-21T22:06:00.354360Z,0.003464,-0.5099020000000001,-0.321263
2019-03-21T22:06:00.555360Z,0.9070219999999999,-0.006790999999999999,-0.179303
2019-03-21T22:06:00.757360Z,0.33474899999999996,0.565088,-0.222743
2019-03-21T22:06:00.959360Z,0.165466,0.669059,0.11959000000000002
2019-03-21T22:06:01.160360Z,-0.530675,0.650766,1.444458
2019-03-21T22:06:01.362360Z,0.115755,-1.8980009999999998,-0.7801739999999999
2019-03-21T22:06:01.564360Z,0.972425,-1.6375110000000002,0.115397
2019-03-21T22:06:01.765360Z,1.096314,-1.234905,0.16163
2019-03-21T22:06:01.967360Z,1.942884,0.05823,1.1334819999999999
2019-03-21T22:06:02.170360Z,0.49570600000000004,-3.226541,0.254906
2019-03-21T22:06:02.371360Z,0.690235,-2.992529,0.839298
2019-03-21T22:06:02.573360Z,1.419656,-2.693177,1.389569
2019-03-21T22:06:02.786360Z,0.6028439999999999,-1.874281,1.238349
2019-03-21T22:06:02.976360Z,0.180902,-3.454353,1.040791
2019-03-21T22:06:03.177360Z,-1.1156620000000002,-2.627208,0.651118
2019-03-21T22:06:03.379360Z,0.256707,-2.289917,1.142847
2019-03-21T22:06:03.581360Z,-0.115223,-2.171519,1.154218
2019-03-21T22:06:03.783360Z,-0.8967069999999999,-2.582799,1.895114
2019-03-21T22:06:03.985360Z,-1.000147,-1.643286,0.38216300000000003
2019-03-21T22:06:04.186360Z,0.077684,-1.306586,0.8233879999999999
2019-03-21T22:06:04.388360Z,0.253419,-0.606577,0.26674499999999995
2019-03-21T22:06:04.590360Z,0.22605,-0.855684,0.343038
2019-03-21T22:06:04.791360Z,0.0035159999999999996,-0.237461,0.25334
2019-03-21T22:06:04.993360Z,-0.020562,-0.230925,0.234037
2019-03-21T22:06:05.195360Z,0.133976,-0.531377,-0.155703
2019-03-21T22:06:05.396360Z,0.140671,-0.44988900000000004,0.398277
2019-03-21T22:06:05.599360Z,0.593065,-0.372981,0.085275
2019-03-21T22:06:05.800360Z,1.456234,0.052785000000000006,0.5396569999999999
2019-03-21T22:06:06.001360Z,1.4329319999999999,0.542913,-0.41840600000000006
2019-03-21T22:06:06.203360Z,1.562099,0.626214,0.196906
2019-03-21T22:06:06.405360Z,0.920985,0.365176,0.836692
2019-03-21T22:06:06.606360Z,-0.790975,-0.007375,-0.8252870000000001
2019-03-21T22:06:06.808360Z,-0.194527,0.996382,-0.617006
2019-03-21T22:06:07.010360Z,0.46403,1.852757,0.454193
2019-03-21T22:06:07.212360Z,0.06257,0.42253500000000005,2.159812
2019-03-21T22:06:07.413360Z,0.31898699999999997,-0.504668,-1.276448
2019-03-21T22:06:07.615360Z,1.765786,0.598252,-0.701856
2019-03-21T22:06:07.817360Z,1.4547729999999999,1.658375,1.0011809999999999
2019-03-21T22:06:08.019360Z,-0.763058,-0.553048,0.5575899999999999
2019-03-21T22:06:08.220360Z,-0.056213,0.523997,-1.068554
2019-03-21T22:06:08.432360Z,1.0734059999999999,1.339747,0.8200370000000001
2019-03-21T22:06:08.624360Z,-0.196144,-0.984456,-0.48239799999999994
2019-03-21T22:06:08.826360Z,-0.41688100000000006,-0.237785,-1.184542
2019-03-21T22:06:09.028360Z,0.614617,0.40425900000000003,0.06043
2019-03-21T22:06:09.239360Z,0.06478099999999999,-0.073285,1.3986129999999999
2019-03-21T22:06:09.431360Z,-0.400968,-0.940708,-1.7743830000000003
2019-03-21T22:06:09.633360Z,0.333739,0.156994,0.191192
2019-03-21T22:06:09.834360Z,0.46893199999999996,0.44001599999999996,0.242786
2019-03-21T22:06:10.037360Z,-0.22244899999999998,-0.502028,-0.327288
2019-03-21T22:06:10.239360Z,0.489336,-0.647162,0.067594
2019-03-21T22:06:10.440360Z,0.202934,-0.43865299999999996,0.12065
2019-03-21T22:06:10.642360Z,1.244321,-0.583553,0.430648
2019-03-21T22:06:10.843360Z,1.2654100000000001,-0.5950810000000001,0.8537540000000001
2019-03-21T22:06:11.046360Z,0.560044,-0.30798600000000004,-0.06325499999999999
2019-03-21T22:06:11.247360Z,1.0181719999999999,-0.11304700000000001,0.081945
2019-03-21T22:06:11.449360Z,2.3092599999999996,0.078238,0.9589719999999999
2019-03-21T22:06:11.651360Z,2.220679,-0.258544,0.270282
2019-03-21T22:06:11.852360Z,1.1853,-0.761081,1.099769
2019-03-21T22:06:12.054360Z,0.760414,-1.180007,0.5055069999999999
2019-03-21T22:06:12.255360Z,0.622941,-0.817876,0.38012399999999996
2019-03-21T22:06:12.457360Z,0.32304099999999997,-0.494572,0.21547800000000003
2019-03-21T22:06:12.659360Z,0.253585,-0.261726,0.086697
2019-03-21T22:06:12.861360Z,0.127333,-0.037813,-0.045668
2019-03-21T22:06:13.062360Z,-0.5427569999999999,0.435621,0.356623
2019-03-21T22:06:13.264360Z,-0.156442,0.64674,-0.219617
2019-03-21T22:06:13.466360Z,-0.152292,0.49067700000000003,-0.15037999999999999
2019-03-21T22:06:13.710360Z,-0.15153,0.41086999999999996,-0.061385
2019-03-21T22:06:13.868360Z,-0.138803,0.337401,-0.032798
2019-03-21T22:06:14.070360Z,-0.084299,0.296008,-0.035523
2019-03-21T22:06:14.272360Z,0.628951,0.71416,0.08490700000000001
2019-03-21T22:06:14.474360Z,-1.166679,0.887338,-0.186999
2019-03-21T22:06:14.675360Z,-1.4397010000000001,0.9077139999999999,0.383778
2019-03-21T22:06:14.877360Z,-1.990157,1.183439,0.148531
2019-03-21T22:06:15.079360Z,-1.549385,0.908565,-0.087693
2019-03-21T22:06:15.280360Z,-0.864375,0.301996,0.38666799999999996
2019-03-21T22:06:15.482360Z,-1.588948,0.8558469999999999,0.637606
2019-03-21T22:06:15.684360Z,-1.159201,1.658781,-0.531366
2019-03-21T22:06:15.886360Z,0.123109,1.612004,0.406393
2019-03-21T22:06:16.087360Z,-0.289905,0.43666099999999997,0.211883
2019-03-21T22:06:16.290360Z,0.602527,0.782668,-0.678181
2019-03-21T22:06:16.491360Z,0.9292590000000001,1.770305,-0.415238
2019-03-21T22:06:16.692360Z,-0.792706,2.699262,-0.11423900000000001
2019-03-21T22:06:16.894360Z,-1.642334,1.558,2.4089810000000003
2019-03-21T22:06:17.096360Z,-0.22951799999999997,0.692473,-1.314054
2019-03-21T22:06:17.298360Z,-1.2289809999999999,1.32075,-0.770271
2019-03-21T22:06:17.500360Z,-2.0409990000000002,1.7827970000000002,0.369219
2019-03-21T22:06:17.701360Z,-1.1580139999999999,1.0191219999999999,0.075364
2019-03-21T22:06:17.902360Z,-1.047759,0.798129,-0.337525
2019-03-21T22:06:18.105360Z,-0.8582280000000001,0.892177,0.065217
2019-03-21T22:06:18.315360Z,-0.607486,1.581028,-1.834081
2019-03-21T22:06:18.509360Z,-0.351048,1.502898,-0.0564
2019-03-21T22:06:18.710360Z,-0.60751,1.555404,-0.4911
2019-03-21T22:06:18.912360Z,-0.63626,0.781,-0.587996
2019-03-21T22:06:19.113360Z,-0.734061,1.253144,0.277044
2019-03-21T22:06:19.315360Z,-0.88164,1.003707,-0.175537
2019-03-21T22:06:19.517360Z,-0.880769,1.041008,0.102703
2019-03-21T22:06:19.733360Z,-1.4921950000000002,1.049268,-4.29967
2019-03-21T22:06:19.920360Z,0.74228,1.1821629999999999,-0.481833
2019-03-21T22:06:20.122360Z,0.8930290000000001,1.201541,0.27613000000000004
2019-03-21T22:06:20.324360Z,1.2052559999999999,1.701373,0.545938
2019-03-21T22:06:20.525360Z,0.88638,1.245392,0.165945
2019-03-21T22:06:20.726360Z,0.6907840000000001,1.2245540000000001,-0.085043
2019-03-21T22:06:20.928360Z,0.499342,0.898515,-0.181173
2019-03-21T22:06:21.130360Z,0.240781,1.057513,-0.024069
2019-03-21T22:06:21.332360Z,0.071539,0.676204,-0.010472
2019-03-21T22:06:21.533360Z,0.765273,0.837756,0.22109600000000001
2019-03-21T22:06:21.735360Z,1.2311809999999999,-1.385377,0.052298000000000004
2019-03-21T22:06:21.937360Z,1.219666,-1.29035,0.268396
2019-03-21T22:06:22.138360Z,1.155349,-0.73725,0.538341
2019-03-21T22:06:22.340360Z,1.23394,-1.3631389999999999,1.027658
2019-03-21T22:06:22.542360Z,1.563013,-1.2496770000000001,0.518969
2019-03-21T22:06:22.744360Z,0.016363,-0.901048,-0.62893
2019-03-21T22:06:22.945360Z,0.082343,-0.275305,0.9886659999999999
2019-03-21T22:06:23.147360Z,0.9201370000000001,-0.7933140000000001,0.0021969999999999997
2019-03-21T22:06:23.349360Z,0.5061,-1.329543,0.323177
2019-03-21T22:06:23.550360Z,0.781669,-0.719133,1.2357799999999999
2019-03-21T22:06:23.752360Z,0.187117,-0.902183,0.302359
2019-03-21T22:06:23.954360Z,-0.8785860000000001,-1.0349389999999998,0.8356709999999999
2019-03-21T22:06:24.156360Z,-2.4573560000000003,-0.840283,0.997265
2019-03-21T22:06:24.357360Z,-0.376641,-0.26355500000000004,-0.017987
2019-03-21T22:06:24.560360Z,-0.10711199999999999,0.49070699999999995,0.42563999999999996
2019-03-21T22:06:24.761360Z,0.485625,0.270848,-0.34324299999999996
2019-03-21T22:06:24.963360Z,0.20938,-0.7219869999999999,0.347499
2019-03-21T22:06:25.164360Z,0.290583,-0.357927,-0.34920100000000004
2019-03-21T22:06:25.366360Z,0.44953000000000004,0.354528,0.516613
2019-03-21T22:06:25.569360Z,0.067024,0.883734,0.631955
2019-03-21T22:06:25.770360Z,-0.504455,-0.6154,0.131517
2019-03-21T22:06:25.971360Z,-0.9826,-0.374781,-0.067636
2019-03-21T22:06:26.173360Z,-0.405475,0.087279,-0.043214999999999996
2019-03-21T22:06:26.375360Z,-0.635101,0.6430520000000001,0.171736
2019-03-21T22:06:26.576360Z,-0.30297199999999996,0.5835899999999999,-0.372747
2019-03-21T22:06:26.778360Z,-0.175453,0.104469,-0.029106
2019-03-21T22:06:26.980360Z,0.207184,0.173537,-0.067714
2019-03-21T22:06:27.182360Z,-0.097643,0.9705290000000001,-0.592899
2019-03-21T22:06:27.384360Z,0.038615,1.323402,-0.26877199999999996
2019-03-21T22:06:27.585360Z,0.046381,1.23927,1.263118
2019-03-21T22:06:27.787360Z,-1.139265,-0.354041,-0.265887
2019-03-21T22:06:27.989360Z,-2.5962680000000002,0.097242,-0.050173
2019-03-21T22:06:28.191360Z,-1.906411,0.984627,-0.241799
2019-03-21T22:06:28.393360Z,-2.580622,0.993375,0.102276
2019-03-21T22:06:28.594360Z,-1.8591849999999999,0.178093,0.835936
2019-03-21T22:06:28.796360Z,-2.238871,-0.307224,0.9831469999999999
2019-03-21T22:06:29.026360Z,-2.085668,0.16867200000000002,-0.743292
2019-03-21T22:06:29.199360Z,-1.799896,-0.255357,0.48263199999999995
2019-03-21T22:06:29.401360Z,-1.605891,-0.138571,-0.184569
2019-03-21T22:06:29.603360Z,-2.1799720000000002,-0.494162,0.757413
2019-03-21T22:06:29.804360Z,-1.4456879999999999,-0.820091,1.557326
2019-03-21T22:06:30.006360Z,-0.804094,-1.032957,0.7868069999999999
2019-03-21T22:06:30.208360Z,-1.376557,-1.499233,-0.067965
2019-03-21T22:06:30.410360Z,-0.697782,-1.099117,0.824684
2019-03-21T22:06:30.611360Z,-1.30407,-2.389043,0.43844399999999994
2019-03-21T22:06:30.813360Z,-1.9242540000000001,-1.9988270000000001,0.766101
2019-03-21T22:06:31.015360Z,-0.704465,-0.388935,0.627552
2019-03-21T22:06:31.217360Z,-0.370221,0.20476,1.227219
2019-03-21T22:06:31.420360Z,-0.462521,-1.199497,1.18764
2019-03-21T22:06:31.621360Z,0.6569619999999999,-1.556351,-0.218131
2019-03-21T22:06:31.822360Z,0.6481979999999999,0.432472,0.25090500000000004
2019-03-21T22:06:32.024360Z,-0.040186,0.561527,0.393301
2019-03-21T22:06:32.226360Z,-0.486601,-0.6912229999999999,1.137959
2019-03-21T22:06:32.428360Z,-0.440378,-1.065137,0.021907
2019-03-21T22:06:32.630360Z,-0.611779,-0.246991,-0.015041999999999998
2019-03-21T22:06:32.831360Z,-0.052111000000000005,0.175119,-0.738636
2019-03-21T22:06:33.058360Z,0.121681,-0.7357130000000001,1.060568
2019-03-21T22:06:33.234360Z,-0.333333,-0.253805,-0.040097
2019-03-21T22:06:33.436360Z,-0.806768,-0.178731,-0.31959099999999996
2019-03-21T22:06:33.637360Z,-0.196692,0.49124399999999996,0.367502
2019-03-21T22:06:33.839360Z,-0.727723,0.544824,0.39207800000000004
2019-03-21T22:06:34.041360Z,-0.855793,0.393542,0.44082899999999997
2019-03-21T22:06:34.243360Z,-1.0596430000000001,-1.479432,0.199812
2019-03-21T22:06:34.444360Z,-1.126929,-0.284976,-0.47760600000000003
2019-03-21T22:06:34.646360Z,-1.122199,0.178533,-0.106023
2019-03-21T22:06:34.848360Z,-1.344178,0.234325,1.7309889999999999
2019-03-21T22:06:35.050360Z,-2.615597,-1.290704,-0.20945500000000003
2019-03-21T22:06:35.251360Z,-2.669111,-0.602858,-0.283038
2019-03-21T22:06:35.453360Z,-1.983193,0.0263,-0.202908
2019-03-21T22:06:35.654360Z,-1.58474,0.331652,0.21072800000000003
