Datetime,accx,accy,accz
2019-03-20T22:03:58.134927Z,0.0,0.0,0.0
2019-03-20T22:03:58.239927Z,-0.085957,-0.08823500000000001,0.069441
2019-03-20T22:03:58.535927Z,0.15494000000000002,-0.150759,-0.521913
2019-03-20T22:03:58.641927Z,-0.354623,-0.32457600000000003,0.062127999999999996
2019-03-20T22:03:58.882927Z,-0.969569,-1.0608870000000001,0.411695
2019-03-20T22:03:59.169927Z,-1.430625,-0.9560270000000001,-0.8738319999999999
2019-03-20T22:03:59.370927Z,-1.609509,-0.23105,0.25450700000000004
2019-03-20T22:03:59.571927Z,-0.9221540000000001,0.7184050000000001,0.227175
2019-03-20T22:03:59.787927Z,-0.29056,-1.162384,1.644282
2019-03-20T22:03:59.973927Z,0.196702,-1.9093189999999998,0.10699000000000002
2019-03-20T22:04:00.173927Z,0.058013,-1.1998959999999999,0.27084
2019-03-20T22:04:00.374927Z,0.239281,0.196778,0.955685
2019-03-20T22:04:00.575927Z,-0.25366700000000003,-0.948327,1.109558
2019-03-20T22:04:00.776927Z,0.975936,-1.520838,1.918969
2019-03-20T22:04:00.976927Z,0.539852,-0.809512,0.844744
2019-03-20T22:04:01.177927Z,0.906331,1.123027,1.609465
2019-03-20T22:04:01.378927Z,0.8573219999999999,-2.397678,1.2751940000000002
2019-03-20T22:04:01.579927Z,0.158946,-3.3215809999999997,-0.754025
2019-03-20T22:04:01.780927Z,1.9951299999999998,-0.6515810000000001,3.223553
2019-03-20T22:04:01.980927Z,2.119626,-0.5782649999999999,0.9333670000000001
2019-03-20T22:04:02.181927Z,0.6264609999999999,-0.081001,1.535418
2019-03-20T22:04:02.383927Z,0.193891,-0.106825,-0.32794
2019-03-20T22:04:02.583927Z,0.8853260000000001,0.8642569999999999,-0.30944299999999997
2019-03-20T22:04:02.784927Z,1.0868520000000002,1.140094,-0.11114600000000001
2019-03-20T22:04:02.985927Z,0.397615,-0.19333499999999998,0.435913
2019-03-20T22:04:03.185927Z,0.011581000000000001,0.152871,-2.450799
2019-03-20T22:04:03.386927Z,-0.295136,0.7880050000000001,-1.499269
2019-03-20T22:04:03.588927Z,-1.281743,0.13313599999999998,0.008948999999999999
2019-03-20T22:04:03.788927Z,-0.571325,0.110776,2.863961
2019-03-20T22:04:04.001927Z,-0.388139,0.148654,-2.391264
2019-03-20T22:04:04.190927Z,-1.135894,0.352973,0.197638
2019-03-20T22:04:04.391927Z,-2.569314,0.49695100000000003,-0.879416
2019-03-20T22:04:04.592927Z,-0.03814,2.503724,-2.22739
2019-03-20T22:04:04.793927Z,1.5344879999999999,1.70747,1.171765
2019-03-20T22:04:04.994927Z,0.328631,-0.028819,-0.79674
2019-03-20T22:04:05.194927Z,0.792841,0.324204,-0.9082620000000001
2019-03-20T22:04:05.396927Z,0.94194,0.5512779999999999,0.19752
2019-03-20T22:04:05.596927Z,-0.345359,0.277648,1.078942
2019-03-20T22:04:05.797927Z,0.080775,0.217016,0.609006
2019-03-20T22:04:05.997927Z,-0.140097,0.114776,0.9864700000000001
2019-03-20T22:04:06.198927Z,-0.9539049999999999,0.5313439999999999,0.045375
2019-03-20T22:04:06.399927Z,-0.165663,0.521667,-0.675185
2019-03-20T22:04:06.600927Z,-0.452383,1.04116,-0.749079
2019-03-20T22:04:06.801927Z,-0.855409,1.9792290000000001,0.613871
2019-03-20T22:04:07.001927Z,-0.435166,1.251056,-1.025228
2019-03-20T22:04:07.203927Z,-0.637993,1.661057,-1.2213399999999999
2019-03-20T22:04:07.403927Z,-2.185555,0.683435,0.097379
2019-03-20T22:04:07.604927Z,-2.80943,0.370768,-1.421341
2019-03-20T22:04:07.806927Z,-2.622316,0.590743,0.39863899999999997
2019-03-20T22:04:08.005927Z,-2.013292,1.206651,2.095007
2019-03-20T22:04:08.206927Z,-1.733377,0.903594,-0.384885
2019-03-20T22:04:08.407927Z,-1.33535,1.1238629999999998,-0.49913100000000005
2019-03-20T22:04:08.608927Z,-1.5019719999999999,0.729425,-0.9617040000000001
2019-03-20T22:04:08.809927Z,-1.447397,1.787521,-0.42414300000000005
2019-03-20T22:04:09.010927Z,-1.102627,1.55209,-1.6521830000000002
2019-03-20T22:04:09.210927Z,-1.3962430000000001,1.198887,-1.860481
2019-03-20T22:04:09.411927Z,-0.840349,1.249703,-0.27315700000000004
2019-03-20T22:04:09.622927Z,-1.076408,1.606538,0.571205
2019-03-20T22:04:09.813927Z,-1.305544,2.010261,-0.9110459999999999
2019-03-20T22:04:10.013927Z,-0.89575,2.472022,-1.034108
2019-03-20T22:04:10.214927Z,-0.5137550000000001,1.6132870000000001,2.19492
2019-03-20T22:04:10.415927Z,-0.009288,-0.097747,-0.294553
2019-03-20T22:04:10.615927Z,-0.8284379999999999,0.7238220000000001,-1.160277
2019-03-20T22:04:10.817927Z,-0.9936299999999999,0.802606,-0.048079000000000004
2019-03-20T22:04:11.017927Z,-1.475567,0.559936,0.23335799999999998
2019-03-20T22:04:11.219927Z,-1.609169,0.183061,-0.086814
2019-03-20T22:04:11.419927Z,-1.5839860000000001,0.746971,-0.323606
2019-03-20T22:04:11.620927Z,-1.0554370000000002,1.10058,-0.20538299999999998
2019-03-20T22:04:11.821927Z,-1.63371,1.312186,-0.598997
2019-03-20T22:04:12.036927Z,-0.43137299999999995,1.0287600000000001,0.667253
2019-03-20T22:04:12.226927Z,-0.949889,0.42616400000000004,0.373816
2019-03-20T22:04:12.422927Z,-0.6227550000000001,0.9753370000000001,-0.6896800000000001
2019-03-20T22:04:12.624927Z,-1.335505,0.810527,-0.168176
2019-03-20T22:04:12.825927Z,-1.76378,-0.121939,-0.17006500000000002
2019-03-20T22:04:13.025927Z,-1.9196220000000002,0.30735999999999997,0.056809000000000005
2019-03-20T22:04:13.228927Z,-1.375038,0.20703200000000002,-0.100441
2019-03-20T22:04:13.427927Z,-1.405718,0.29659,0.318848
2019-03-20T22:04:13.627927Z,-2.19935,-0.424349,2.294724
2019-03-20T22:04:13.829927Z,-1.133616,-0.41528699999999996,-0.2204
2019-03-20T22:04:14.029927Z,-0.5082909999999999,0.24466500000000002,-0.543454
2019-03-20T22:04:14.230927Z,-0.420642,0.470262,-0.155669
2019-03-20T22:04:14.431927Z,-0.64652,0.623885,-0.6290979999999999
2019-03-20T22:04:14.632927Z,-0.554014,1.25872,-0.815515
2019-03-20T22:04:14.833927Z,-0.335008,0.029312,1.144941
2019-03-20T22:04:15.033927Z,-0.498217,-0.018289,0.9052889999999999
2019-03-20T22:04:15.234927Z,-0.836226,0.43048000000000003,-0.497889
2019-03-20T22:04:15.434927Z,-0.863859,0.614657,-0.47016199999999997
2019-03-20T22:04:15.635927Z,-0.7883680000000001,0.395246,-0.056865
2019-03-20T22:04:15.836927Z,-0.411929,-0.21164000000000002,0.777514
2019-03-20T22:04:16.036927Z,-0.533457,0.12468599999999999,-0.316064
2019-03-20T22:04:16.238927Z,-1.0213940000000001,0.31033,-0.027718
2019-03-20T22:04:16.438927Z,-0.740063,0.0951,0.36151300000000003
2019-03-20T22:04:16.663927Z,-1.211969,-0.412785,-0.718827
2019-03-20T22:04:16.840927Z,-0.563049,-1.003462,0.46207600000000004
2019-03-20T22:04:17.040927Z,-0.640176,-0.47770799999999997,0.896383
2019-03-20T22:04:17.241927Z,-0.9220459999999999,-1.1407370000000001,0.018876
2019-03-20T22:04:17.442927Z,-0.612174,-1.38984,-0.509035
2019-03-20T22:04:17.642927Z,0.048406,-0.725412,0.18526900000000002
2019-03-20T22:04:17.844927Z,0.063192,-0.14311300000000002,0.320338
2019-03-20T22:04:18.044927Z,0.730946,0.45229600000000003,0.301119
2019-03-20T22:04:18.245927Z,-0.012342,0.06601,0.47661800000000004
2019-03-20T22:04:18.445927Z,-1.0089,0.308046,-0.877132
2019-03-20T22:04:18.648927Z,-0.9990620000000001,0.274428,-0.584043
2019-03-20T22:04:18.848927Z,0.19885799999999998,1.38125,-0.048137
2019-03-20T22:04:19.048927Z,0.26466799999999996,1.031336,-1.053583
2019-03-20T22:04:19.250927Z,-0.251751,-0.6459060000000001,1.945816
2019-03-20T22:04:19.449927Z,0.977822,-1.91985,0.292443
2019-03-20T22:04:19.650927Z,0.9074530000000001,-0.297213,-0.374199
2019-03-20T22:04:19.851927Z,0.50175,-0.15079700000000001,0.44733999999999996
2019-03-20T22:04:20.052927Z,1.0078799999999999,-0.045531,0.268737
2019-03-20T22:04:20.252927Z,0.085517,-0.8874920000000001,0.089479
2019-03-20T22:04:20.453927Z,0.181892,-0.700441,1.1018700000000001
2019-03-20T22:04:20.677927Z,-0.109547,-0.19329000000000002,0.23352199999999998
2019-03-20T22:04:20.856927Z,0.444639,-0.214879,-0.42007700000000003
2019-03-20T22:04:21.057927Z,1.202029,-0.265266,0.562778
2019-03-20T22:04:21.257927Z,1.134836,-0.34634499999999996,0.343121
2019-03-20T22:04:21.457927Z,1.58443,0.27109099999999997,0.964182
2019-03-20T22:04:21.659927Z,0.718765,1.7341540000000002,-0.45843100000000003
2019-03-20T22:04:21.859927Z,0.622049,1.838311,-1.0686579999999999
2019-03-20T22:04:22.078927Z,0.246642,0.5210600000000001,0.679696
2019-03-20T22:04:22.261927Z,-0.3468,0.7146100000000001,0.216678
2019-03-20T22:04:22.461927Z,-0.321279,1.408342,-1.003448
2019-03-20T22:04:22.662927Z,-0.251847,1.389873,-0.75241
2019-03-20T22:04:22.863927Z,-0.176175,-0.00665,1.312604
2019-03-20T22:04:23.063927Z,0.31303200000000003,-0.40355,-0.934299
2019-03-20T22:04:23.264927Z,0.43104899999999996,0.5264840000000001,-1.408744
2019-03-20T22:04:23.465927Z,0.87839,1.422028,0.180807
2019-03-20T22:04:23.665927Z,-0.072635,0.23216599999999998,1.21338
2019-03-20T22:04:23.866927Z,0.282127,-0.43226099999999995,-1.071484
2019-03-20T22:04:24.067927Z,0.545261,-0.106492,0.32104299999999997
2019-03-20T22:04:24.267927Z,0.619879,0.095506,0.756884
2019-03-20T22:04:24.468927Z,-0.047447,-1.651664,1.396116
2019-03-20T22:04:24.669927Z,0.7764800000000001,-1.546424,0.711933
2019-03-20T22:04:24.870927Z,0.738712,-1.250792,0.15104700000000001
2019-03-20T22:04:25.070927Z,0.716783,-0.687602,0.101989
2019-03-20T22:04:25.271927Z,0.08014500000000001,-1.8922299999999999,0.136655
2019-03-20T22:04:25.472927Z,0.22540100000000002,-1.519367,0.905935
2019-03-20T22:04:25.672927Z,-0.062285,-1.543995,0.994368
2019-03-20T22:04:25.874927Z,0.066434,-1.558135,1.907732
2019-03-20T22:04:26.074927Z,0.923118,-2.5598520000000002,-0.210548
2019-03-20T22:04:26.291927Z,-0.354905,-2.19003,1.443998
2019-03-20T22:04:26.476927Z,0.251062,-1.64028,1.912136
2019-03-20T22:04:26.677927Z,0.798926,-0.982563,0.881742
2019-03-20T22:04:26.877927Z,0.164338,-1.9505599999999998,0.825541
2019-03-20T22:04:27.078927Z,-0.323762,-2.5781080000000003,0.7067
2019-03-20T22:04:27.279927Z,-0.266569,-1.9358529999999998,1.485763
2019-03-20T22:04:27.480927Z,0.195049,-1.558092,1.672259
2019-03-20T22:04:27.681927Z,0.45082700000000003,-2.169685,3.379982
2019-03-20T22:04:27.881927Z,0.560391,-2.958612,-1.048973
2019-03-20T22:04:28.081927Z,1.107656,-1.979786,1.09502
2019-03-20T22:04:28.297927Z,0.716538,-1.028843,1.049483
2019-03-20T22:04:28.484927Z,0.6230760000000001,-1.241924,-0.735054
2019-03-20T22:04:28.685927Z,-0.301429,-1.4110610000000001,1.026384
2019-03-20T22:04:28.885927Z,-0.442351,-1.642467,1.1052549999999999
2019-03-20T22:04:29.085927Z,-0.539508,-1.015434,0.36544
2019-03-20T22:04:29.287927Z,-0.675265,-0.608214,-0.851295
2019-03-20T22:04:29.487927Z,-0.7709050000000001,-0.31411100000000003,1.671007
2019-03-20T22:04:29.688927Z,-0.701983,-1.119056,1.031253
2019-03-20T22:04:29.888927Z,-0.23381799999999997,-1.0425,0.26206999999999997
2019-03-20T22:04:30.089927Z,0.048353,-0.449157,-0.948565
2019-03-20T22:04:30.290927Z,-0.029519,-0.330312,-0.013507
2019-03-20T22:04:30.491927Z,-1.253738,-0.535166,1.4822440000000001
2019-03-20T22:04:30.692927Z,-2.155513,-0.884973,-0.511111
2019-03-20T22:04:30.892927Z,-1.262925,-0.756131,-0.8618379999999999
2019-03-20T22:04:31.093927Z,-1.7192869999999998,-0.675021,0.031951
2019-03-20T22:04:31.294927Z,-0.9905870000000001,0.165297,2.256966
2019-03-20T22:04:31.494927Z,-1.146978,-1.392619,-0.084463
2019-03-20T22:04:31.696927Z,-1.1507690000000002,-1.724848,1.248887
2019-03-20T22:04:31.896927Z,-1.727043,-0.517259,0.11500999999999999
2019-03-20T22:04:32.096927Z,-1.50872,-0.081127,0.6177
2019-03-20T22:04:32.297927Z,-1.6394950000000001,-0.5758800000000001,-0.374781
2019-03-20T22:04:32.498927Z,-1.528672,-0.48226899999999995,0.30377
2019-03-20T22:04:32.699927Z,-1.610601,-0.401199,1.032874
2019-03-20T22:04:32.899927Z,-1.576882,-1.01148,0.905927
2019-03-20T22:04:33.100927Z,-0.966158,-2.238002,0.07309600000000001
2019-03-20T22:04:33.301927Z,0.639475,-2.380128,2.29276
2019-03-20T22:04:33.501927Z,1.042299,-1.6259629999999998,-0.020232
2019-03-20T22:04:33.703927Z,0.9346180000000001,-0.879866,0.046488999999999996
2019-03-20T22:04:33.903927Z,1.175721,-1.3200610000000002,0.654614
2019-03-20T22:04:34.104927Z,0.207544,-1.6210639999999998,1.636916
2019-03-20T22:04:34.305927Z,0.307705,-0.726487,0.5991890000000001
2019-03-20T22:04:34.505927Z,-0.27048,0.144352,-0.44705500000000004
2019-03-20T22:04:34.706927Z,-0.5085970000000001,-0.139836,0.32004699999999997
2019-03-20T22:04:34.907927Z,0.267099,-2.4501150000000003,1.950577
2019-03-20T22:04:35.107927Z,-0.068703,-2.6146849999999997,1.30466
2019-03-20T22:04:35.308927Z,0.064527,-1.420973,0.750525
2019-03-20T22:04:35.509927Z,0.267621,-0.7890659999999999,1.319442
2019-03-20T22:04:35.710927Z,-0.511803,-1.62097,2.1906630000000002
2019-03-20T22:04:35.911927Z,-0.962741,-2.0522810000000002,0.18155
2019-03-20T22:04:36.110927Z,-0.32821999999999996,-1.66651,-0.25816100000000003
2019-03-20T22:04:36.311927Z,-0.407621,-1.392807,0.335013
2019-03-20T22:04:36.524927Z,0.24533200000000002,-1.126135,0.679809
2019-03-20T22:04:36.714927Z,0.239997,-1.545261,-0.9344790000000001
2019-03-20T22:04:36.913927Z,1.024291,-1.405352,2.018527
2019-03-20T22:04:37.114927Z,1.113204,-1.122182,0.38677
2019-03-20T22:04:37.315927Z,1.107113,-0.116638,0.854548
2019-03-20T22:04:37.526927Z,0.630854,-0.682825,2.026796
2019-03-20T22:04:37.718927Z,-0.44432299999999997,-2.241225,2.088603
2019-03-20T22:04:37.917927Z,-1.0133,-1.480921,2.003723
2019-03-20T22:04:38.117927Z,-1.17517,-0.312811,0.23134699999999997
2019-03-20T22:04:38.318927Z,-0.80425,0.11855,1.056664
2019-03-20T22:04:38.519927Z,-0.806888,-2.7616549999999997,1.506377
2019-03-20T22:04:38.720927Z,0.480916,-1.7726060000000001,1.857446
2019-03-20T22:04:38.920927Z,0.391859,-0.7026140000000001,0.274677
2019-03-20T22:04:39.121927Z,0.06563,-0.8499180000000001,0.076833
2019-03-20T22:04:39.323927Z,0.29783699999999996,-1.328467,1.108528
2019-03-20T22:04:39.522927Z,-0.8971889999999999,-2.0049259999999998,0.9006049999999999
2019-03-20T22:04:39.723927Z,-0.617687,-0.390544,1.4501979999999999
2019-03-20T22:04:39.923927Z,-0.99729,-0.49454799999999993,0.283539
2019-03-20T22:04:40.124927Z,-1.1079620000000001,-0.615437,0.899791
2019-03-20T22:04:40.325927Z,0.303274,-0.48472,1.696812
2019-03-20T22:04:40.525927Z,0.518061,-0.718435,0.250936
2019-03-20T22:04:40.727927Z,0.36296100000000003,-0.351029,-0.24350500000000003
2019-03-20T22:04:40.927927Z,0.128105,0.937627,-0.054166
2019-03-20T22:04:41.128927Z,0.13908299999999998,0.21497,0.2116
2019-03-20T22:04:41.328927Z,0.9304709999999999,-0.296595,0.8640049999999999
2019-03-20T22:04:41.530927Z,1.0679,-1.3125360000000001,-0.559186
2019-03-20T22:04:41.730927Z,-0.246986,-0.5579149999999999,0.024966
2019-03-20T22:04:41.943927Z,-1.518499,-0.08164600000000001,-0.247052
2019-03-20T22:04:42.142927Z,-0.29888899999999996,0.9767819999999999,0.307253
2019-03-20T22:04:42.332927Z,0.552333,0.0261,-1.8246490000000002
2019-03-20T22:04:42.532927Z,1.254108,-0.102805,0.622972
2019-03-20T22:04:42.734927Z,0.590857,1.138439,-0.775774
2019-03-20T22:04:42.934927Z,1.009024,1.3072489999999999,0.304996
2019-03-20T22:04:43.135927Z,-0.529558,-0.343567,-0.329717
2019-03-20T22:04:43.347927Z,0.106728,0.253363,-1.835188
2019-03-20T22:04:43.536927Z,1.0825280000000002,0.456219,-0.19983099999999998
2019-03-20T22:04:43.738927Z,1.252289,1.060331,-0.023643
2019-03-20T22:04:43.938927Z,1.104571,-0.42128999999999994,0.498691
2019-03-20T22:04:44.137927Z,1.867849,-0.637583,0.8294809999999999
2019-03-20T22:04:44.338927Z,0.88984,1.1303290000000001,0.8542489999999999
2019-03-20T22:04:44.540927Z,-0.008282,1.678604,-0.268353
2019-03-20T22:04:44.740927Z,0.220766,0.693008,0.534313
2019-03-20T22:04:44.940927Z,0.29299400000000003,0.201409,0.245356
2019-03-20T22:04:45.141927Z,-0.34881,0.425908,0.694986
2019-03-20T22:04:45.355927Z,-0.017418,1.183478,-0.712899
2019-03-20T22:04:45.541927Z,0.08091,2.266886,-1.141341
2019-03-20T22:04:45.743927Z,-0.143974,-0.194352,2.847845
2019-03-20T22:04:45.943927Z,0.460819,-0.14935,0.8929549999999999
2019-03-20T22:04:46.143927Z,0.33412600000000003,0.190249,0.106689
2019-03-20T22:04:46.358927Z,0.153754,-0.601305,0.917545
2019-03-20T22:04:46.544927Z,-0.615934,-0.393788,0.548367
2019-03-20T22:04:46.745927Z,-0.525659,-0.44050100000000003,0.48448500000000005
2019-03-20T22:04:46.946927Z,-1.2645819999999999,0.42817700000000003,-1.5438319999999999
2019-03-20T22:04:47.146927Z,-0.618983,0.260936,-0.021695
2019-03-20T22:04:47.346927Z,-0.15441300000000002,0.225007,1.613952
2019-03-20T22:04:47.547927Z,-0.695349,-0.523837,0.164126
2019-03-20T22:04:47.748927Z,-0.391047,-0.8534579999999999,0.627174
2019-03-20T22:04:47.948927Z,-0.215565,-0.23362399999999997,-0.23410799999999998
2019-03-20T22:04:48.149927Z,-0.185147,0.5609350000000001,-0.161017
2019-03-20T22:04:48.349927Z,0.415084,-0.9277639999999999,-0.32860500000000004
2019-03-20T22:04:48.550927Z,-0.285683,-1.46691,1.8586330000000002
2019-03-20T22:04:48.752927Z,-0.411425,-0.5998640000000001,0.6004
2019-03-20T22:04:48.951927Z,-0.301577,0.061467999999999995,-0.34010300000000004
2019-03-20T22:04:49.151927Z,-0.480054,0.013397999999999998,-0.052248
2019-03-20T22:04:49.352927Z,-0.628965,-0.230581,-0.052684
2019-03-20T22:04:49.553927Z,0.48907,-0.598631,0.240562
2019-03-20T22:04:49.754927Z,0.521278,0.357247,-0.427105
2019-03-20T22:04:49.954927Z,0.716012,0.5990979999999999,-0.5902109999999999
2019-03-20T22:04:50.161927Z,0.748583,0.10268,0.421706
2019-03-20T22:04:50.359927Z,0.301672,-0.600924,-0.015027
2019-03-20T22:04:50.556927Z,-0.344622,-0.508364,-0.036982
2019-03-20T22:04:50.757927Z,0.0297,0.017185,-0.127949
2019-03-20T22:04:50.957927Z,-0.050493,-0.011375,-0.452312
2019-03-20T22:04:51.158927Z,-0.300076,0.016925,-0.114949
2019-03-20T22:04:51.358927Z,-0.019912,0.002954,0.463552
2019-03-20T22:04:51.559927Z,-0.904682,-0.299717,-0.5307689999999999
2019-03-20T22:04:51.760927Z,-0.41574700000000003,0.444644,0.047601
2019-03-20T22:04:51.960927Z,-0.43123100000000003,0.495476,-0.5810850000000001
2019-03-20T22:04:52.161927Z,-0.33442,0.686038,0.502164
2019-03-20T22:04:52.362927Z,-0.148832,-0.572288,-1.447864
2019-03-20T22:04:52.562927Z,0.357768,-0.318515,0.7870560000000001
2019-03-20T22:04:52.763927Z,0.27789400000000003,-0.193753,0.580184
2019-03-20T22:04:52.964927Z,-0.23803600000000003,0.045881,0.2414
2019-03-20T22:04:53.164927Z,-0.9999950000000001,0.104762,-3.41811
2019-03-20T22:04:53.365927Z,0.036683,0.806585,-1.336379
2019-03-20T22:04:53.566927Z,-0.031564999999999996,1.031771,0.682496
2019-03-20T22:04:53.768927Z,-0.430921,1.57465,-0.5669850000000001
2019-03-20T22:04:53.982927Z,-0.005603,1.7264540000000002,0.423025
2019-03-20T22:04:54.168927Z,-0.339881,1.238644,0.44362399999999996
2019-03-20T22:04:54.368927Z,-0.339873,-0.676834,1.181664
2019-03-20T22:04:54.569927Z,0.22651500000000002,-1.46412,0.09702999999999999
2019-03-20T22:04:54.771927Z,-0.066208,-0.695893,-0.46666199999999997
2019-03-20T22:04:54.970927Z,-0.041267,-0.49284300000000003,-0.144422
2019-03-20T22:04:55.171927Z,-1.422788,-2.053152,0.065083
2019-03-20T22:04:55.372927Z,-2.326918,-2.157637,0.783698
2019-03-20T22:04:55.572927Z,-1.730633,-0.8740100000000001,1.409318
2019-03-20T22:04:55.773927Z,-2.192286,-0.670743,0.5235890000000001
2019-03-20T22:04:55.974927Z,-2.962644,-0.981671,-0.601995
2019-03-20T22:04:56.174927Z,-3.3365050000000003,-1.095474,0.8480110000000001
2019-03-20T22:04:56.374927Z,-3.2998239999999996,-0.683222,0.019031
2019-03-20T22:04:56.575927Z,-2.072012,-0.38663600000000004,0.705836
2019-03-20T22:04:56.777927Z,-1.9291369999999999,-0.776914,-2.1281830000000004
2019-03-20T22:04:56.976927Z,-1.173658,0.235645,0.6786840000000001
2019-03-20T22:04:57.177927Z,-2.230354,0.061323,1.0542719999999999
2019-03-20T22:04:57.391927Z,-2.031502,-0.333966,0.006895
2019-03-20T22:04:57.589927Z,-1.9667400000000002,0.47285299999999997,-0.161142
2019-03-20T22:04:57.780927Z,-1.438749,0.562829,-0.179572
2019-03-20T22:04:57.980927Z,-1.233606,0.9651850000000001,-0.201323
2019-03-20T22:04:58.180927Z,-1.6492830000000003,-0.45825699999999997,0.24056
2019-03-20T22:04:58.382927Z,-0.908352,-1.664311,0.7429600000000001
2019-03-20T22:04:58.582927Z,-0.21084699999999998,-0.440377,0.38906399999999997
2019-03-20T22:04:58.782927Z,-0.42352700000000004,-0.088554,0.7608050000000001
2019-03-20T22:04:58.983927Z,0.8402639999999999,-0.074647,1.8032
2019-03-20T22:04:59.184927Z,0.7710560000000001,-0.794111,0.960068
2019-03-20T22:04:59.384927Z,0.224237,-0.449679,0.8479270000000001
2019-03-20T22:04:59.585927Z,-0.646374,-0.07121799999999999,-1.2851270000000001
2019-03-20T22:04:59.785927Z,-1.363613,0.83726,0.69617
2019-03-20T22:04:59.986927Z,-1.139422,0.698767,1.872899
2019-03-20T22:05:00.187927Z,-0.9596680000000001,0.06657300000000001,-2.094044
2019-03-20T22:05:00.387927Z,-1.155134,0.23006300000000002,-0.524104
2019-03-20T22:05:00.588927Z,-0.983153,0.9232870000000001,0.048018
2019-03-20T22:05:00.789927Z,-0.675552,0.49883299999999997,1.120007
2019-03-20T22:05:00.989927Z,-0.8739180000000001,-0.07267,0.25233099999999997
2019-03-20T22:05:01.190927Z,-1.3216780000000001,-0.255481,-0.529993
2019-03-20T22:05:01.391927Z,-1.0034,0.243921,0.043718
2019-03-20T22:05:01.592927Z,-1.253017,0.065385,1.4053799999999999
2019-03-20T22:05:01.792927Z,-1.4925469999999998,-0.09325399999999999,-0.349904
2019-03-20T22:05:01.993927Z,-0.9797459999999999,-0.238879,-0.680841
2019-03-20T22:05:02.193927Z,-0.316971,0.128564,0.44838599999999995
2019-03-20T22:05:02.394927Z,-0.205623,0.029629000000000003,-0.5225270000000001
2019-03-20T22:05:02.596927Z,-0.51194,-0.357951,1.120356
2019-03-20T22:05:02.794927Z,-1.946938,-0.992821,-0.314754
2019-03-20T22:05:02.995927Z,-1.5043600000000001,-0.9269700000000001,0.764668
2019-03-20T22:05:03.196927Z,-1.224785,-0.50754,0.6006130000000001
2019-03-20T22:05:03.396927Z,-1.237844,-0.222423,1.074697
2019-03-20T22:05:03.598927Z,-1.511023,-1.289752,0.5933930000000001
2019-03-20T22:05:03.798927Z,-1.582803,-0.623003,0.8720899999999999
2019-03-20T22:05:03.998927Z,-1.327877,-0.558365,1.1537879999999998
2019-03-20T22:05:04.200927Z,-1.5419129999999999,-0.307578,0.008738
2019-03-20T22:05:04.400927Z,-2.1324080000000003,-0.325345,0.033886
2019-03-20T22:05:04.600927Z,-2.235035,-0.19478399999999998,-0.10853199999999999
2019-03-20T22:05:04.801927Z,-0.852949,0.43770299999999995,-0.236377
2019-03-20T22:05:05.001927Z,-0.167327,0.7708689999999999,-0.439328
2019-03-20T22:05:05.202927Z,-0.907148,0.9641149999999999,0.968318
2019-03-20T22:05:05.417927Z,-0.289123,0.317304,-1.051353
2019-03-20T22:05:05.607927Z,0.120372,0.083183,-0.080309
2019-03-20T22:05:05.804927Z,0.038622000000000004,0.6844640000000001,-0.6809
2019-03-20T22:05:06.005927Z,0.051547,0.759893,0.39667399999999997
2019-03-20T22:05:06.205927Z,-0.202356,-0.695376,0.877492
2019-03-20T22:05:06.405927Z,-0.140468,-1.4049770000000001,-1.738113
2019-03-20T22:05:06.606927Z,0.819317,-0.538896,-0.662226
2019-03-20T22:05:06.807927Z,0.945592,0.342908,0.86855
2019-03-20T22:05:07.007927Z,0.936264,-1.005499,2.162075
2019-03-20T22:05:07.207927Z,0.9436549999999999,-0.41516000000000003,-0.023833
2019-03-20T22:05:07.449927Z,1.126301,0.078801,1.564401
2019-03-20T22:05:07.608927Z,1.393721,0.11901300000000001,1.054152
2019-03-20T22:05:07.808927Z,0.296718,-0.6516270000000001,0.41547399999999995
2019-03-20T22:05:08.010927Z,0.28658,-0.611413,0.302448
2019-03-20T22:05:08.210927Z,1.529968,0.21769499999999997,0.12119100000000001
2019-03-20T22:05:08.410927Z,1.6358,0.371653,0.146869
2019-03-20T22:05:08.612927Z,0.91837,-1.131996,1.19626
2019-03-20T22:05:08.822927Z,1.221769,-1.2912780000000001,0.289056
2019-03-20T22:05:09.012927Z,1.165503,-0.847274,1.067489
2019-03-20T22:05:09.213927Z,1.110975,-0.447454,-0.564178
2019-03-20T22:05:09.413927Z,1.416405,-0.47903900000000005,1.205594
2019-03-20T22:05:09.614927Z,0.171868,-1.169942,-0.019077
2019-03-20T22:05:09.816927Z,0.570577,-1.607278,0.228312
2019-03-20T22:05:10.015927Z,0.9975450000000001,-0.7254470000000001,1.3375139999999999
2019-03-20T22:05:10.215927Z,1.009487,-0.9087780000000001,0.659954
2019-03-20T22:05:10.417927Z,1.3035450000000002,-1.231454,1.134955
2019-03-20T22:05:10.618927Z,1.58099,-1.1816520000000001,0.538976
2019-03-20T22:05:10.817927Z,1.64553,-0.441572,-0.157648
2019-03-20T22:05:11.019927Z,0.823227,0.39081,0.08418099999999999
2019-03-20T22:05:11.218927Z,0.8009029999999999,-0.11808699999999998,-0.5422100000000001
2019-03-20T22:05:11.419927Z,1.035292,0.08368099999999999,0.278654
2019-03-20T22:05:11.620927Z,0.543484,0.076752,0.201965
2019-03-20T22:05:11.820927Z,0.08414400000000001,0.435659,0.22025799999999998
2019-03-20T22:05:12.032927Z,0.868265,1.045601,-0.230622
2019-03-20T22:05:12.222927Z,0.577692,1.5397450000000001,-0.020117
2019-03-20T22:05:12.422927Z,0.77144,0.812221,0.388846
2019-03-20T22:05:12.623927Z,0.638981,0.406722,0.506807
2019-03-20T22:05:12.824927Z,1.218191,0.621976,-0.8930819999999999
2019-03-20T22:05:13.024927Z,0.9296059999999999,0.45801099999999995,-0.046787999999999996
2019-03-20T22:05:13.224927Z,-0.11423499999999999,0.009355,0.736187
2019-03-20T22:05:13.425927Z,-0.075254,-0.387721,0.257421
2019-03-20T22:05:13.625927Z,0.197247,-0.02369,-0.9625389999999999
2019-03-20T22:05:13.826927Z,0.5623560000000001,0.308218,0.084999
2019-03-20T22:05:14.027927Z,1.069618,0.198431,0.74474
2019-03-20T22:05:14.227927Z,1.8053270000000001,-0.266205,-0.256564
2019-03-20T22:05:14.429927Z,1.65515,-0.007201000000000001,1.333317
2019-03-20T22:05:14.629927Z,0.256102,0.189555,0.369247
2019-03-20T22:05:14.829927Z,0.017019,-0.168425,-0.21996100000000002
2019-03-20T22:05:15.030927Z,-0.6979270000000001,0.043107,-0.208752
2019-03-20T22:05:15.231927Z,-0.329094,-0.34070100000000003,0.208217
2019-03-20T22:05:15.431927Z,-0.391959,-0.231647,-0.672193
2019-03-20T22:05:15.632927Z,0.133597,0.66647,0.210144
2019-03-20T22:05:15.833927Z,-0.410282,-0.712194,0.5283899999999999
2019-03-20T22:05:16.033927Z,0.313375,-1.033752,-0.673504
2019-03-20T22:05:16.233927Z,0.334276,-1.0654709999999998,-0.073926
2019-03-20T22:05:16.435927Z,0.118654,-0.634758,0.299714
2019-03-20T22:05:16.651927Z,-0.502988,-1.164767,0.036733
2019-03-20T22:05:16.835927Z,-1.445915,-1.182731,0.753443
2019-03-20T22:05:17.036927Z,-1.3434780000000002,-1.086678,-0.195128
2019-03-20T22:05:17.237927Z,-0.082273,-0.225507,-0.166459
2019-03-20T22:05:17.437927Z,-0.35193,0.666466,0.57343
2019-03-20T22:05:17.639927Z,-0.817458,-1.094255,0.291283
2019-03-20T22:05:17.838927Z,0.136958,-1.590402,0.44928
2019-03-20T22:05:18.039927Z,-0.243152,-0.309546,0.493439
2019-03-20T22:05:18.240927Z,-1.1402219999999998,-1.079312,0.747862
2019-03-20T22:05:18.440927Z,-1.309396,-0.689533,1.14153
2019-03-20T22:05:18.641927Z,-1.977914,-1.1584139999999998,0.928041
2019-03-20T22:05:18.842927Z,-2.427882,-0.9941909999999999,0.317887
2019-03-20T22:05:19.042927Z,-2.6049439999999997,-1.0706280000000001,0.392882
2019-03-20T22:05:19.243927Z,-1.92697,-0.943831,0.643433
2019-03-20T22:05:19.444927Z,-0.590627,-0.525848,0.367831
2019-03-20T22:05:19.644927Z,-0.236198,-0.270611,0.48513100000000003
2019-03-20T22:05:19.844927Z,-1.436776,-0.548176,0.8164279999999999
2019-03-20T22:05:20.045927Z,-1.361114,-1.070791,0.41917
2019-03-20T22:05:20.245927Z,-1.425403,-1.3523290000000001,-1.188542
2019-03-20T22:05:20.446927Z,-1.388307,-1.185433,-0.082527
2019-03-20T22:05:20.647927Z,-1.984054,-0.501417,0.45072700000000004
2019-03-20T22:05:20.847927Z,-0.858009,0.052704999999999995,0.892072
2019-03-20T22:05:21.047927Z,-1.268937,-0.601291,1.0433729999999999
2019-03-20T22:05:21.248927Z,-1.098848,-0.613063,-0.688348
2019-03-20T22:05:21.449927Z,-0.5860310000000001,-0.877815,0.025596
2019-03-20T22:05:21.650927Z,-0.444247,-0.082432,-0.46126000000000006
2019-03-20T22:05:21.850927Z,-0.50385,0.121351,0.454888
2019-03-20T22:05:22.050927Z,-0.788554,-0.39259,1.1081809999999999
2019-03-20T22:05:22.251927Z,-2.086952,-0.811283,-1.5828360000000001
2019-03-20T22:05:22.452927Z,-2.082738,-1.034438,0.404842
2019-03-20T22:05:22.653927Z,-1.746264,-0.512889,0.26645399999999997
2019-03-20T22:05:22.853927Z,-1.507375,0.47201400000000004,0.44123599999999996
2019-03-20T22:05:23.054927Z,-1.057974,0.198427,0.056829
2019-03-20T22:05:23.254927Z,-1.3101200000000002,-1.304547,0.8765120000000001
2019-03-20T22:05:23.454927Z,-0.5094569999999999,-1.851975,0.527287
2019-03-20T22:05:23.656927Z,-0.930795,-0.384954,-1.679397
2019-03-20T22:05:23.856927Z,-0.455456,-0.039931,0.62326
2019-03-20T22:05:24.068927Z,-0.549884,-0.49924700000000005,0.518072
2019-03-20T22:05:24.257927Z,-1.19821,-0.652755,-0.553143
2019-03-20T22:05:24.457927Z,-1.460011,-0.495516,-0.22410500000000003
2019-03-20T22:05:24.659927Z,-1.2234049999999999,-0.40889899999999996,0.904433
2019-03-20T22:05:24.859927Z,-0.6752819999999999,-0.121546,1.163073
2019-03-20T22:05:25.059927Z,-0.515428,-0.07030499999999999,0.843417
2019-03-20T22:05:25.260927Z,-0.221717,-0.428389,-0.25056
2019-03-20T22:05:25.461927Z,0.028917,-0.23610799999999998,-0.20874099999999998
2019-03-20T22:05:25.661927Z,-0.06592100000000001,-0.697227,0.370814
2019-03-20T22:05:25.861927Z,0.060655999999999995,-0.197027,1.183087
2019-03-20T22:05:26.062927Z,-0.26141,0.007370999999999999,0.618422
2019-03-20T22:05:26.262927Z,-0.436138,0.191654,-0.092421
2019-03-20T22:05:26.465927Z,-1.041172,0.327972,0.0077989999999999995
2019-03-20T22:05:26.664927Z,-0.960413,0.277416,0.21034299999999997
2019-03-20T22:05:26.864927Z,-1.6981849999999998,0.078184,-0.711963
2019-03-20T22:05:27.064927Z,-2.0400669999999996,0.566024,0.474339
2019-03-20T22:05:27.265927Z,-0.2144,0.129384,2.273154
2019-03-20T22:05:27.465927Z,0.8715700000000001,-0.633965,0.323399
2019-03-20T22:05:27.666927Z,0.5838,-0.778943,-0.560172
2019-03-20T22:05:27.867927Z,-0.20261500000000002,-0.074709,-0.722436
2019-03-20T22:05:28.067927Z,-1.329925,0.033053,2.836558
2019-03-20T22:05:28.267927Z,-2.175097,-0.44463400000000003,0.583901
2019-03-20T22:05:28.470927Z,-1.759034,-0.745316,-0.946951
2019-03-20T22:05:28.669927Z,-1.86637,0.308758,-0.5685020000000001
2019-03-20T22:05:28.869927Z,-1.017082,-0.8011520000000001,0.20156
2019-03-20T22:05:29.070927Z,-1.4071360000000002,-1.3064149999999999,1.106136
2019-03-20T22:05:29.270927Z,-1.4439520000000001,0.12136199999999998,-0.07849199999999999
2019-03-20T22:05:29.485927Z,-1.2143549999999999,-0.093887,-1.288599
2019-03-20T22:05:29.672927Z,-0.815631,-0.559998,-0.0031
2019-03-20T22:05:29.872927Z,-1.745348,0.130339,0.062354
2019-03-20T22:05:30.073927Z,-1.503955,0.294982,0.35589299999999996
2019-03-20T22:05:30.274927Z,-0.094962,0.466463,0.142285
2019-03-20T22:05:30.474927Z,0.28126100000000004,0.323777,0.400515
2019-03-20T22:05:30.675927Z,-0.15823399999999999,-0.166291,0.252684
2019-03-20T22:05:30.876927Z,0.280921,-1.198705,-0.8810479999999999
2019-03-20T22:05:31.076927Z,0.774791,-0.3351,-0.17332
2019-03-20T22:05:31.276927Z,0.677421,-0.27215700000000004,0.17765799999999998
2019-03-20T22:05:31.477927Z,0.615384,-0.22055100000000002,-0.180517
2019-03-20T22:05:31.678927Z,1.04449,0.005609,1.189486
2019-03-20T22:05:31.878927Z,0.9957600000000001,-0.8902629999999999,-0.26411799999999996
2019-03-20T22:05:32.079927Z,0.277517,-1.415945,0.613332
2019-03-20T22:05:32.279927Z,-0.050266000000000005,0.545755,0.27174899999999996
2019-03-20T22:05:32.481927Z,0.521111,0.19628900000000002,0.19230999999999998
2019-03-20T22:05:32.681927Z,1.003284,-0.389098,-0.169253
2019-03-20T22:05:32.881927Z,1.463488,-0.132631,0.14608
2019-03-20T22:05:33.081927Z,0.9888899999999999,0.38424400000000003,0.190131
2019-03-20T22:05:33.282927Z,0.449921,-0.10332999999999999,1.080611
2019-03-20T22:05:33.483927Z,0.536611,-2.5869779999999998,1.899604
2019-03-20T22:05:33.684927Z,0.125171,-2.258515,0.06664400000000001
2019-03-20T22:05:33.884927Z,0.677135,-0.704612,1.003932
2019-03-20T22:05:34.084927Z,0.470896,-0.914042,1.0658219999999998
2019-03-20T22:05:34.285927Z,0.239747,-0.290216,0.804389
2019-03-20T22:05:34.486927Z,0.079981,-0.9477030000000001,-0.22858299999999998
2019-03-20T22:05:34.686927Z,0.343505,-0.568236,1.34237
2019-03-20T22:05:34.887927Z,1.114283,-0.077702,0.176054
2019-03-20T22:05:35.088927Z,1.004008,0.039099,-0.197569
2019-03-20T22:05:35.310927Z,0.5999369999999999,-0.432122,1.540876
2019-03-20T22:05:35.489927Z,0.727846,-2.767311,-0.42462700000000003
2019-03-20T22:05:35.708927Z,-0.13081700000000002,-1.815464,-0.17896800000000002
2019-03-20T22:05:35.896927Z,0.110392,-0.405493,1.092199
2019-03-20T22:05:36.091927Z,0.025311,-1.2359229999999999,2.0895
2019-03-20T22:05:36.291927Z,0.5741729999999999,-3.375657,2.582944
2019-03-20T22:05:36.492927Z,0.469654,-2.325856,2.061289
2019-03-20T22:05:36.693927Z,0.482998,-1.703932,0.005901
2019-03-20T22:05:36.893927Z,0.44391800000000003,-2.0687580000000003,0.991352
2019-03-20T22:05:37.094927Z,-0.23908000000000001,-3.493494,1.228545
2019-03-20T22:05:37.294927Z,-0.380434,-2.476881,2.1504380000000003
2019-03-20T22:05:37.496927Z,-0.344708,-1.9966540000000002,1.7071990000000001
2019-03-20T22:05:37.696927Z,-0.13138699999999998,-1.795507,2.5596
2019-03-20T22:05:37.897927Z,0.15554500000000002,-3.14267,1.7549540000000001
2019-03-20T22:05:38.099927Z,1.15877,-3.829714,2.283735
2019-03-20T22:05:38.298927Z,0.920441,-2.8917450000000002,1.401786
2019-03-20T22:05:38.498927Z,0.8530540000000001,-2.499688,2.760392
2019-03-20T22:05:38.711927Z,-0.124471,-3.472354,2.218819
2019-03-20T22:05:38.899927Z,-0.510433,-2.129848,2.1136619999999997
2019-03-20T22:05:39.100927Z,-0.645918,-1.020405,1.949339
2019-03-20T22:05:39.301927Z,-0.15026199999999998,-2.082725,2.676905
2019-03-20T22:05:39.501927Z,0.22195900000000002,-2.5719830000000004,1.414807
2019-03-20T22:05:39.701927Z,0.51459,-2.2282740000000003,1.7264959999999998
2019-03-20T22:05:39.903927Z,0.36277800000000004,-2.05009,1.227479
2019-03-20T22:05:40.102927Z,-0.170685,-1.074287,2.63635
2019-03-20T22:05:40.303927Z,-0.87928,-1.149749,1.629082
2019-03-20T22:05:40.505927Z,-0.850483,-0.52023,0.039848
2019-03-20T22:05:40.704927Z,-0.578939,-0.276928,-0.24358200000000002
2019-03-20T22:05:40.905927Z,-0.684311,-0.464226,2.765911
2019-03-20T22:05:41.106927Z,-0.522155,-1.5435860000000001,-0.280842
2019-03-20T22:05:41.306927Z,-0.8146899999999999,-0.518135,-0.732355
2019-03-20T22:05:41.507927Z,-1.30379,0.40931100000000004,0.348099
2019-03-20T22:05:41.707927Z,-1.2826170000000001,0.121448,0.5244340000000001
2019-03-20T22:05:41.908927Z,-0.600362,-0.9106360000000001,0.056903999999999996
2019-03-20T22:05:42.108927Z,-0.332027,-0.418555,0.27411199999999997
2019-03-20T22:05:42.309927Z,-0.5424680000000001,0.079463,0.984669
2019-03-20T22:05:42.510927Z,0.122369,-1.240559,1.272624
2019-03-20T22:05:42.711927Z,0.5781229999999999,-1.0940379999999998,0.034759
2019-03-20T22:05:42.911927Z,0.076443,0.07720700000000001,0.265065
2019-03-20T22:05:43.111927Z,0.34575,0.509454,0.46863699999999997
2019-03-20T22:05:43.312927Z,-0.7081729999999999,-0.518185,1.455984
2019-03-20T22:05:43.513927Z,-1.395658,-0.21855,-0.138221
2019-03-20T22:05:43.712927Z,-1.044753,0.408681,-1.07686
2019-03-20T22:05:43.913927Z,0.001295,0.156405,-0.388669
2019-03-20T22:05:44.114927Z,-0.130483,0.606246,1.122001
2019-03-20T22:05:44.314927Z,0.8369639999999999,-0.261917,-0.31030399999999997
2019-03-20T22:05:44.515927Z,0.9212870000000001,0.273434,-0.219297
2019-03-20T22:05:44.716927Z,0.903634,0.8546799999999999,0.092622
2019-03-20T22:05:44.916927Z,0.44738100000000003,0.38960500000000003,-0.964765
2019-03-20T22:05:45.117927Z,0.659641,-0.180498,0.35156
2019-03-20T22:05:45.318927Z,0.435778,-0.20095,0.959767
2019-03-20T22:05:45.518927Z,-0.13746,-0.170623,1.2235719999999999
2019-03-20T22:05:45.718927Z,0.294545,-0.9229649999999999,0.59922
2019-03-20T22:05:45.919927Z,0.919334,-0.351576,0.9186479999999999
2019-03-20T22:05:46.119927Z,0.572408,-0.320769,-0.251116
2019-03-20T22:05:46.324927Z,0.251525,-0.195165,0.33620700000000003
2019-03-20T22:05:46.521927Z,-0.12776500000000002,-1.349505,0.755275
2019-03-20T22:05:46.721927Z,-0.933376,-0.816467,0.369197
2019-03-20T22:05:46.921927Z,-0.8718739999999999,-0.527031,0.471517
2019-03-20T22:05:47.122927Z,-0.74141,0.177209,-1.1645860000000001
2019-03-20T22:05:47.322927Z,-0.343644,-1.270916,1.8459470000000002
2019-03-20T22:05:47.523927Z,0.198688,-1.84237,-0.177046
2019-03-20T22:05:47.723927Z,0.43940100000000004,-0.5672659999999999,0.325682
2019-03-20T22:05:47.923927Z,-0.331389,-0.7145560000000001,-0.099357
2019-03-20T22:05:48.124927Z,-0.8190029999999999,-0.7864439999999999,1.7730569999999999
2019-03-20T22:05:48.325927Z,-0.754443,-1.317813,1.221136
2019-03-20T22:05:48.525927Z,-1.642999,-0.885023,1.2505540000000002
2019-03-20T22:05:48.725927Z,-1.865953,-0.664492,0.904449
2019-03-20T22:05:48.926927Z,-1.89553,-0.546566,0.536521
2019-03-20T22:05:49.127927Z,-2.251111,-0.20550700000000002,1.38689
2019-03-20T22:05:49.327927Z,-1.34499,-0.9337049999999999,0.250181
2019-03-20T22:05:49.543927Z,-0.732779,-0.712554,0.07338
2019-03-20T22:05:49.728927Z,-0.288045,-0.594804,1.801432
2019-03-20T22:05:49.928927Z,0.542133,0.242633,-0.550005
2019-03-20T22:05:50.131927Z,1.635127,3.046415,0.138536
2019-03-20T22:05:50.329927Z,1.113353,2.718068,-0.6129720000000001
2019-03-20T22:05:50.531927Z,1.0218450000000001,1.2103,-0.507833
2019-03-20T22:05:50.731927Z,1.107369,1.594833,-0.08440800000000001
2019-03-20T22:05:50.931927Z,1.6136110000000001,1.545808,-0.025679
2019-03-20T22:05:51.132927Z,0.6497029999999999,2.317715,1.134234
2019-03-20T22:05:51.333927Z,0.04301,0.552344,0.606183
2019-03-20T22:05:51.533927Z,0.291568,1.1647530000000001,-0.28486
2019-03-20T22:05:51.734927Z,-0.058611,1.270972,-0.43713900000000006
2019-03-20T22:05:51.935927Z,-0.15801099999999998,1.581389,-0.659509
2019-03-20T22:05:52.135927Z,0.704342,0.620163,-0.276088
2019-03-20T22:05:52.335927Z,0.9205690000000001,0.384498,0.004411
2019-03-20T22:05:52.536927Z,0.45496000000000003,1.2462739999999999,0.238933
2019-03-20T22:05:52.736927Z,0.551183,1.0595860000000001,-0.357611
2019-03-20T22:05:52.955927Z,0.50641,0.974751,-0.055682
2019-03-20T22:05:53.156927Z,-0.8470059999999999,0.457312,-0.588904
2019-03-20T22:05:53.338927Z,-1.089767,0.589654,-1.1733959999999999
2019-03-20T22:05:53.539927Z,-0.937099,1.190806,-0.569811
2019-03-20T22:05:53.741927Z,-0.609667,1.155706,-0.082311
2019-03-20T22:05:53.939927Z,0.115659,-0.357725,-1.060708
2019-03-20T22:05:54.140927Z,0.923549,-0.075896,0.232298
2019-03-20T22:05:54.341927Z,-0.037565,0.166077,-0.44298699999999996
2019-03-20T22:05:54.541927Z,0.12843,0.355808,0.326221
2019-03-20T22:05:54.742927Z,-0.314031,0.1663,0.474131
2019-03-20T22:05:54.943927Z,-0.45281800000000005,-0.275902,0.535767
2019-03-20T22:05:55.143927Z,-0.489544,-0.41940500000000003,-0.846916
2019-03-20T22:05:55.343927Z,-0.49698400000000004,0.041507999999999996,0.117317
2019-03-20T22:05:55.545927Z,-0.699047,0.41548100000000004,1.3424559999999999
2019-03-20T22:05:55.744927Z,-0.077955,-0.385347,-0.576518
2019-03-20T22:05:55.945927Z,1.323417,-0.281519,-0.029894999999999998
2019-03-20T22:05:56.146927Z,0.6288560000000001,0.028457999999999997,-0.876189
2019-03-20T22:05:56.346927Z,-0.8703930000000001,0.44733199999999995,-0.605578
2019-03-20T22:05:56.564927Z,-0.583831,0.819098,-0.6041449999999999
2019-03-20T22:05:56.754927Z,0.18073,0.548856,-1.341178
2019-03-20T22:05:56.947927Z,-0.313253,0.9143600000000001,-0.156327
2019-03-20T22:05:57.148927Z,-0.5862149999999999,1.517118,-0.9412440000000001
2019-03-20T22:05:57.349927Z,0.17868900000000001,2.013362,-0.261763
2019-03-20T22:05:57.550927Z,-0.186093,-0.285382,0.329374
2019-03-20T22:05:57.750927Z,-0.12941,-0.315789,0.11103199999999999
2019-03-20T22:05:57.951927Z,0.075284,-0.224433,-1.590407
2019-03-20T22:05:58.151927Z,0.14945799999999998,0.054397,0.6628310000000001
2019-03-20T22:05:58.351927Z,-0.543408,-0.094955,0.48423299999999997
2019-03-20T22:05:58.553927Z,-0.223264,-0.496615,0.790924
2019-03-20T22:05:58.754927Z,-1.0015610000000001,-0.01518,0.447575
2019-03-20T22:05:58.953927Z,-1.051641,0.086398,0.08719600000000001
2019-03-20T22:05:59.154927Z,-0.195261,-0.5330060000000001,0.321524
2019-03-20T22:05:59.385927Z,-0.258112,0.038959,-0.47401000000000004
2019-03-20T22:05:59.555927Z,-0.597841,-0.5371739999999999,-0.065825
2019-03-20T22:05:59.755927Z,-1.6184100000000001,0.065454,0.568691
2019-03-20T22:05:59.956927Z,-1.965186,-0.10119500000000001,0.513502
2019-03-20T22:06:00.156927Z,-1.357545,0.620264,-0.8885620000000001
2019-03-20T22:06:00.357927Z,0.30822,0.904191,-1.087895
2019-03-20T22:06:00.558927Z,-0.306689,1.162196,0.213966
2019-03-20T22:06:00.758927Z,-1.381073,-0.539728,0.968184
2019-03-20T22:06:00.959927Z,-0.93294,-0.754279,0.718024
2019-03-20T22:06:01.159927Z,-1.491163,-0.187307,-0.4135
2019-03-20T22:06:01.359927Z,-1.630019,0.47671499999999994,-0.454771
2019-03-20T22:06:01.561927Z,-1.922325,-0.118598,1.159241
2019-03-20T22:06:01.760927Z,-2.1432860000000002,-1.075774,0.706257
2019-03-20T22:06:01.961927Z,-2.379507,-1.2503360000000001,0.133749
2019-03-20T22:06:02.161927Z,-2.099417,-0.15857000000000002,0.24659099999999998
2019-03-20T22:06:02.361927Z,-1.6741599999999999,-0.566453,1.246881
2019-03-20T22:06:02.562927Z,-1.430217,-1.132896,-0.064197
2019-03-20T22:06:02.763927Z,-0.711055,-0.753446,0.09028
2019-03-20T22:06:02.973927Z,-0.803295,-0.5074029999999999,0.777886
2019-03-20T22:06:03.163927Z,-1.5961100000000001,-0.399833,0.193853
2019-03-20T22:06:03.364927Z,-1.413314,-0.584991,0.681673
2019-03-20T22:06:03.565927Z,-1.9232479999999998,-0.06215,1.0001659999999999
2019-03-20T22:06:03.771927Z,-2.519056,0.024647,0.382695
2019-03-20T22:06:03.965927Z,-2.3769400000000003,0.100788,0.626617
2019-03-20T22:06:04.165927Z,-2.064677,-0.58009,3.0636639999999997
2019-03-20T22:06:04.366927Z,-1.52081,-1.570009,1.001056
2019-03-20T22:06:04.567927Z,-2.081871,-1.329451,-0.278462
2019-03-20T22:06:04.767927Z,-2.17877,-0.403429,0.716805
2019-03-20T22:06:04.967927Z,-2.9190709999999997,-1.021037,0.9506549999999999
2019-03-20T22:06:05.168927Z,-2.295212,-0.508038,0.387325
2019-03-20T22:06:05.368927Z,-2.747158,-0.270435,-0.276199
2019-03-20T22:06:05.569927Z,-1.551703,-0.007067,0.980137
2019-03-20T22:06:05.769927Z,-1.3942780000000001,-0.702438,0.7553350000000001
2019-03-20T22:06:05.969927Z,-1.103264,-0.653036,0.9213809999999999
2019-03-20T22:06:06.170927Z,-1.0739,-0.950651,0.571842
2019-03-20T22:06:06.370927Z,-1.5914110000000001,-0.493436,0.555794
2019-03-20T22:06:06.571927Z,-1.198491,-0.5223140000000001,0.6701229999999999
2019-03-20T22:06:06.771927Z,-1.216335,0.150036,0.134047
2019-03-20T22:06:06.972927Z,-1.550925,0.108894,0.067816
2019-03-20T22:06:07.173927Z,-1.147205,0.380373,-0.734015
2019-03-20T22:06:07.373927Z,-0.8344360000000001,0.725614,-0.25475
2019-03-20T22:06:07.574927Z,-0.82015,0.298668,0.58777
2019-03-20T22:06:07.774927Z,0.33208000000000004,-0.679765,-0.43918999999999997
2019-03-20T22:06:07.974927Z,1.2532159999999999,-0.496701,0.8362649999999999
2019-03-20T22:06:08.175927Z,0.262164,-0.591962,0.683232
2019-03-20T22:06:08.375927Z,0.751257,-0.46863299999999997,1.207333
2019-03-20T22:06:08.576927Z,1.318316,-1.231256,0.911958
2019-03-20T22:06:08.776927Z,0.45170699999999997,-1.243582,-0.084095
2019-03-20T22:06:08.977927Z,0.13585899999999998,-0.955902,0.456913
2019-03-20T22:06:09.177927Z,0.326721,-1.691475,0.596304
2019-03-20T22:06:09.378927Z,0.18950999999999998,-0.33523400000000003,0.449992
2019-03-20T22:06:09.579927Z,0.671664,0.255511,-1.0428950000000001
2019-03-20T22:06:09.779927Z,1.174451,1.037868,-0.048842
2019-03-20T22:06:09.980927Z,1.012171,0.49307700000000004,0.016256
2019-03-20T22:06:10.180927Z,0.697919,0.960989,-0.586674
2019-03-20T22:06:10.380927Z,0.906224,1.484369,-0.3125
2019-03-20T22:06:10.584927Z,0.283927,1.153524,-0.431618
2019-03-20T22:06:10.782927Z,0.28464,0.8333370000000001,-0.347644
2019-03-20T22:06:10.983927Z,0.074464,0.558504,-0.38699
2019-03-20T22:06:11.183927Z,-1.116892,0.787464,0.055387
2019-03-20T22:06:11.383927Z,-0.403855,0.514532,1.115283
2019-03-20T22:06:11.584927Z,1.0309629999999999,-0.27145199999999997,-0.472717
2019-03-20T22:06:11.785927Z,1.032317,0.608135,-0.148339
2019-03-20T22:06:11.984927Z,1.520546,-0.048194,0.23753600000000002
2019-03-20T22:06:12.185927Z,1.81597,-0.296556,0.811003
2019-03-20T22:06:12.386927Z,2.236538,-0.289281,0.17713900000000002
2019-03-20T22:06:12.586927Z,1.486537,0.155661,0.47615100000000005
2019-03-20T22:06:12.786927Z,1.018041,-0.154248,0.085892
2019-03-20T22:06:12.987927Z,0.065295,0.301235,0.28267600000000004
2019-03-20T22:06:13.187927Z,0.160576,-0.047372000000000004,-0.229073
2019-03-20T22:06:13.387927Z,0.103316,0.21028899999999998,-0.114774
2019-03-20T22:06:13.589927Z,0.6632100000000001,0.21207199999999998,0.346719
2019-03-20T22:06:13.788927Z,1.305097,-0.038345,0.207378
2019-03-20T22:06:13.989927Z,0.768888,0.536207,-0.376452
2019-03-20T22:06:14.200927Z,0.203469,0.678901,-0.563229
2019-03-20T22:06:14.389927Z,0.22243400000000002,1.100415,0.274487
2019-03-20T22:06:14.590927Z,0.060167,-0.426512,-0.9096069999999999
2019-03-20T22:06:14.791927Z,-0.00029,0.5816279999999999,-0.704399
2019-03-20T22:06:14.991927Z,-0.144091,2.035139,0.04286
2019-03-20T22:06:15.191927Z,-0.544099,0.848994,1.092391
2019-03-20T22:06:15.393927Z,0.04835,-1.154554,-0.040008999999999996
2019-03-20T22:06:15.592927Z,0.740118,-0.601599,-0.146003
2019-03-20T22:06:15.793927Z,1.256441,0.249677,-0.346558
2019-03-20T22:06:15.994927Z,0.99811,0.286443,0.783309
2019-03-20T22:06:16.194927Z,1.015323,-0.17479,-0.409491
2019-03-20T22:06:16.394927Z,1.371521,0.277362,-0.439518
2019-03-20T22:06:16.595927Z,1.019097,0.152773,0.042287
2019-03-20T22:06:16.795927Z,1.259028,0.41016099999999994,0.169262
2019-03-20T22:06:16.996927Z,0.819808,0.924182,0.300451
2019-03-20T22:06:17.197927Z,1.8810259999999999,0.072896,0.336529
2019-03-20T22:06:17.397927Z,2.112144,-0.53601,0.39526500000000003
2019-03-20T22:06:17.597927Z,1.984884,0.326834,-0.322887
2019-03-20T22:06:17.798927Z,1.613866,0.673658,-0.379362
2019-03-20T22:06:17.998927Z,1.889922,0.258198,1.08112
2019-03-20T22:06:18.198927Z,1.8291979999999999,-0.5172800000000001,0.903874
2019-03-20T22:06:18.400927Z,1.640842,-0.7344890000000001,-0.180726
2019-03-20T22:06:18.600927Z,0.8982479999999999,-0.43903100000000006,1.0693979999999998
2019-03-20T22:06:18.800927Z,1.6896209999999998,-0.086078,0.786438
2019-03-20T22:06:19.001927Z,1.129851,-0.933673,0.18673499999999998
2019-03-20T22:06:19.201927Z,1.406673,-0.575699,0.8535950000000001
2019-03-20T22:06:19.426927Z,0.917008,0.0012900000000000001,0.730086
2019-03-20T22:06:19.602927Z,1.057917,0.180084,0.259827
2019-03-20T22:06:19.802927Z,1.599758,0.242851,-0.5395800000000001
2019-03-20T22:06:20.003927Z,0.796371,0.16329200000000002,0.093993
2019-03-20T22:06:20.204927Z,-0.191109,0.948525,-0.14326
2019-03-20T22:06:20.404927Z,-0.098219,0.701407,-0.578941
2019-03-20T22:06:20.604927Z,-0.617412,1.000281,-0.10130700000000001
2019-03-20T22:06:20.805927Z,-0.39461999999999997,1.159875,-0.631055
2019-03-20T22:06:21.005927Z,-1.3028309999999999,1.701877,-0.42429399999999995
2019-03-20T22:06:21.206927Z,-1.577921,-0.0066489999999999995,0.487375
2019-03-20T22:06:21.407927Z,-0.826976,-0.7197020000000001,-0.258788
2019-03-20T22:06:21.607927Z,-0.8647100000000001,-0.564606,-0.22189099999999998
2019-03-20T22:06:21.807927Z,-1.237152,-0.159224,0.363588
2019-03-20T22:06:22.009927Z,-1.556957,-0.654068,-0.43271099999999996
2019-03-20T22:06:22.208927Z,-1.401831,0.135029,0.427259
2019-03-20T22:06:22.409927Z,-1.394688,-0.018338999999999998,0.610611
