Datetime,accx,accy,accz
2019-05-23T04:14:34.874501Z,-0.10317799999999999,0.625962,-0.6126020000000001
2019-05-23T04:14:34.914501Z,0.174594,0.538818,-0.842894
2019-05-23T04:14:34.954501Z,0.45033,0.696747,-0.446009
2019-05-23T04:14:34.995501Z,0.383865,0.8556590000000001,-0.51641
2019-05-23T04:14:35.035501Z,0.900251,0.790141,0.207914
2019-05-23T04:14:35.075501Z,0.08218500000000001,0.359462,-0.070414
2019-05-23T04:14:35.116501Z,-0.060150999999999996,0.436979,-0.104898
2019-05-23T04:14:35.160501Z,0.841827,1.136528,0.010607
2019-05-23T04:14:35.196501Z,0.8614430000000001,0.700925,0.748727
2019-05-23T04:14:35.238501Z,0.858152,0.486809,0.831363
2019-05-23T04:14:35.276501Z,-0.250645,0.650158,-0.726851
2019-05-23T04:14:35.319501Z,0.25587,0.30094,-0.710203
2019-05-23T04:14:35.355501Z,0.293079,0.241141,-0.670694
2019-05-23T04:14:35.395501Z,0.104236,0.07158300000000001,-0.408978
2019-05-23T04:14:35.435501Z,0.269932,0.546941,-0.666959
2019-05-23T04:14:35.475501Z,0.233079,0.352554,-0.547884
2019-05-23T04:14:35.515501Z,-0.38721,0.597719,-0.48856099999999997
2019-05-23T04:14:35.555501Z,-0.766066,0.8869959999999999,-0.10381199999999999
2019-05-23T04:14:35.595501Z,-0.783832,0.7960119999999999,-0.051552
2019-05-23T04:14:35.635501Z,-1.540915,0.8598879999999999,0.5976859999999999
2019-05-23T04:14:35.675501Z,-1.612185,0.850563,1.5509899999999999
2019-05-23T04:14:35.717501Z,-1.758851,0.62644,1.694539
2019-05-23T04:14:35.755501Z,-0.27915700000000004,0.571054,1.1585
2019-05-23T04:14:35.796501Z,-0.07839,0.020346,0.544416
2019-05-23T04:14:35.836501Z,0.069299,0.08254,0.476771
2019-05-23T04:14:35.877501Z,-0.611241,-1.4369129999999999,0.324449
2019-05-23T04:14:35.917501Z,0.37967,-1.3654620000000002,-0.12959500000000002
2019-05-23T04:14:35.957501Z,0.511587,-1.307213,-0.159724
2019-05-23T04:14:35.997501Z,0.772545,-1.134839,-0.9951190000000001
2019-05-23T04:14:36.036501Z,0.16162100000000001,-1.211596,-0.9388770000000001
2019-05-23T04:14:36.077501Z,0.274052,-1.104264,-0.982067
2019-05-23T04:14:36.117501Z,-0.345985,-1.418528,-0.543171
2019-05-23T04:14:36.155501Z,0.32348299999999997,-0.5972569999999999,-0.19122
2019-05-23T04:14:36.195501Z,0.4061,-0.617787,-0.16270199999999999
2019-05-23T04:14:36.293501Z,-0.217797,0.260882,-1.640952
2019-05-23T04:14:36.294501Z,-0.194878,0.805515,-0.32823800000000003
2019-05-23T04:14:36.325501Z,-0.30803600000000003,0.8355610000000001,-0.358167
2019-05-23T04:14:36.355501Z,-0.411076,0.43395200000000006,1.037501
2019-05-23T04:14:36.395501Z,-0.9773940000000001,0.27441,1.328835
2019-05-23T04:14:36.438501Z,-0.974391,0.23378000000000002,1.3305420000000001
2019-05-23T04:14:36.476501Z,-0.704,0.22424000000000002,0.896122
2019-05-23T04:14:36.516501Z,-0.103047,0.17868699999999998,-0.10229500000000001
2019-05-23T04:14:36.556501Z,-0.219707,0.326776,-0.19808399999999998
2019-05-23T04:14:36.596501Z,0.9702850000000001,-0.838735,1.6912209999999999
2019-05-23T04:14:36.655501Z,1.316754,-0.857886,0.5189189999999999
2019-05-23T04:14:36.677501Z,1.4945959999999998,-0.727167,0.44616300000000003
2019-05-23T04:14:36.717501Z,0.41601400000000005,-1.024425,-0.732542
2019-05-23T04:14:36.757501Z,0.548338,-1.1024180000000001,0.08745399999999999
2019-05-23T04:14:36.797501Z,0.566501,-1.160596,0.131419
2019-05-23T04:14:36.836501Z,0.447387,-0.619953,-1.174258
2019-05-23T04:14:36.877501Z,-0.26592,-0.19914300000000001,-1.015441
2019-05-23T04:14:36.917501Z,-0.22516799999999998,-0.20492399999999997,-0.9909479999999999
2019-05-23T04:14:36.957501Z,-0.438292,0.519941,-0.45892299999999997
2019-05-23T04:14:36.997501Z,-0.410934,0.5480520000000001,0.43104
2019-05-23T04:14:37.037501Z,-0.40305,0.566878,0.408326
2019-05-23T04:14:37.078501Z,-0.580799,0.063592,1.5965040000000001
2019-05-23T04:14:37.118501Z,-0.48641999999999996,0.22225599999999998,1.432296
2019-05-23T04:14:37.157501Z,-0.43153100000000005,0.12273599999999998,1.46894
2019-05-23T04:14:37.198501Z,-0.164458,0.255849,0.694663
2019-05-23T04:14:37.238501Z,0.28951,-1.206587,0.933318
2019-05-23T04:14:37.279501Z,0.36146799999999996,-1.180742,0.9215760000000001
2019-05-23T04:14:37.316501Z,0.073128,-1.622365,0.198446
2019-05-23T04:14:37.357501Z,0.122591,-1.528227,-0.863828
2019-05-23T04:14:37.442501Z,0.151284,-1.424459,-0.889884
2019-05-23T04:14:37.443501Z,-0.032413,-0.8674139999999999,-0.261042
2019-05-23T04:14:37.476501Z,0.3097,-0.193388,-0.40350199999999997
2019-05-23T04:14:37.516501Z,0.323631,-0.221658,-0.37738499999999997
2019-05-23T04:14:37.557501Z,0.30270199999999997,-0.038029,-0.7188
2019-05-23T04:14:37.598501Z,-0.27826100000000004,0.110242,-0.46525200000000005
2019-05-23T04:14:37.640501Z,-0.38193699999999997,0.061359000000000004,-0.44023100000000004
2019-05-23T04:14:37.677501Z,-0.225302,0.33073600000000003,0.31029
2019-05-23T04:14:37.716501Z,-0.408686,0.37343200000000004,0.885134
2019-05-23T04:14:37.757501Z,-0.48548500000000006,0.41281,0.8398120000000001
2019-05-23T04:14:37.803501Z,-0.552343,0.070853,1.053677
2019-05-23T04:14:37.837501Z,-0.29077600000000003,0.181448,1.148068
2019-05-23T04:14:37.878501Z,-0.34254,0.16972,1.131883
2019-05-23T04:14:37.917501Z,0.567674,-0.58796,0.98264
2019-05-23T04:14:37.957501Z,0.25558200000000003,-0.786441,-0.538867
2019-05-23T04:14:38.015501Z,0.28229299999999996,-0.744102,-0.543365
2019-05-23T04:14:38.044501Z,-0.019964,-0.8405819999999999,-0.47710600000000003
2019-05-23T04:14:38.077501Z,0.11358599999999999,-0.49847700000000006,-0.141511
2019-05-23T04:14:38.117501Z,0.11707100000000001,-0.575511,-0.094288
2019-05-23T04:14:38.157501Z,0.3808,-0.21163600000000002,-0.978057
2019-05-23T04:14:38.198501Z,-0.21500999999999998,-0.09112200000000001,-0.8645940000000001
2019-05-23T04:14:38.239501Z,-0.24762800000000001,-0.109622,-0.840693
2019-05-23T04:14:38.277501Z,-0.10712100000000001,0.422964,-0.10442699999999999
2019-05-23T04:14:38.319501Z,0.132217,0.6854060000000001,0.090797
2019-05-23T04:14:38.361501Z,0.07338099999999999,0.787614,0.028078
2019-05-23T04:14:38.398501Z,-0.576816,0.420833,1.099898
2019-05-23T04:14:38.443501Z,-0.528446,0.36939,1.179297
2019-05-23T04:14:38.478501Z,-0.560225,0.37236199999999997,1.154867
2019-05-23T04:14:38.518501Z,0.36554899999999996,0.316812,0.7037439999999999
2019-05-23T04:14:38.559501Z,0.9103959999999999,-1.063607,1.580424
2019-05-23T04:14:38.598501Z,1.083499,-1.136548,1.600937
2019-05-23T04:14:38.639501Z,0.853332,-1.199912,-0.510653
2019-05-23T04:14:38.679501Z,0.526522,-1.0828870000000002,-0.6197189999999999
2019-05-23T04:14:38.719501Z,0.541575,-1.061265,-0.610693
2019-05-23T04:14:38.759501Z,0.25156999999999996,-1.437468,-0.037462999999999996
2019-05-23T04:14:38.799501Z,0.8786860000000001,-0.7279760000000001,0.21220300000000003
2019-05-23T04:14:38.838501Z,0.946341,-0.716806,0.21247600000000003
2019-05-23T04:14:38.915501Z,0.568395,-0.7466020000000001,-0.31597
2019-05-23T04:14:38.932501Z,0.173381,-0.521003,-0.28683600000000004
2019-05-23T04:14:38.962501Z,0.10348199999999999,-0.54462,-0.26848299999999997
2019-05-23T04:14:38.998501Z,0.46341000000000004,-0.127947,0.6773279999999999
2019-05-23T04:14:39.038501Z,1.0889739999999999,0.369665,0.35134099999999996
2019-05-23T04:14:39.078501Z,1.10106,0.374581,0.340674
2019-05-23T04:14:39.119501Z,0.970851,0.28481,0.496449
2019-05-23T04:14:39.159501Z,1.362701,-0.549834,0.614701
2019-05-23T04:14:39.198501Z,1.213998,-0.470058,0.565695
2019-05-23T04:14:39.239501Z,2.794074,-1.507593,0.903335
2019-05-23T04:14:39.280501Z,2.357856,-1.400409,-0.061013
2019-05-23T04:14:39.318501Z,2.314054,-1.303531,-0.093637
2019-05-23T04:14:39.360501Z,1.0805209999999998,-0.499593,-0.493438
2019-05-23T04:14:39.401501Z,1.284437,-0.46583900000000006,0.73163
2019-05-23T04:14:39.438501Z,1.30958,-0.641844,0.802515
2019-05-23T04:14:39.479501Z,1.063197,-1.197735,1.258461
2019-05-23T04:14:39.518501Z,-0.10966400000000001,-0.229836,-0.5894159999999999
2019-05-23T04:14:39.559501Z,-0.137769,-0.068504,-0.656992
2019-05-23T04:14:39.598501Z,0.075087,-0.423232,0.82399
2019-05-23T04:14:39.640501Z,-0.23049499999999998,-0.42756400000000006,1.0775059999999999
2019-05-23T04:14:39.679501Z,-0.252511,-0.415013,1.058168
2019-05-23T04:14:39.720501Z,0.111193,0.02568,0.468077
2019-05-23T04:14:39.760501Z,0.056197000000000004,-0.11944500000000001,0.643228
2019-05-23T04:14:39.799501Z,0.071862,-0.259387,0.701846
2019-05-23T04:14:39.840501Z,-0.373985,-0.194466,0.881418
2019-05-23T04:14:39.879501Z,-0.152229,-0.105842,1.36351
2019-05-23T04:14:39.919501Z,-0.05600599999999999,-0.21928699999999998,1.402313
2019-05-23T04:14:39.959501Z,-0.489979,-0.605024,0.8335600000000001
2019-05-23T04:14:40.000501Z,-0.537043,-1.3866450000000001,0.7361850000000001
2019-05-23T04:14:40.040501Z,-0.45088,-1.482337,0.795701
2019-05-23T04:14:40.080501Z,-0.460608,-1.962855,0.13147799999999998
2019-05-23T04:14:40.119501Z,-0.511356,-1.8779709999999998,-0.5723560000000001
2019-05-23T04:14:40.160501Z,-0.453317,-1.840381,-0.564856
2019-05-23T04:14:40.199501Z,-0.830363,-1.327573,-1.391199
2019-05-23T04:14:40.275501Z,-0.812105,-0.902581,-0.284099
2019-05-23T04:14:40.285501Z,-0.8506940000000001,-0.873712,-0.289254
2019-05-23T04:14:40.318501Z,-1.332008,-0.642932,-0.338929
2019-05-23T04:14:40.359501Z,-0.7048260000000001,-0.049227,-0.037695
2019-05-23T04:14:40.400501Z,-0.660419,-0.006876999999999999,-0.061035
2019-05-23T04:14:40.439501Z,-1.195986,-0.136873,0.474084
2019-05-23T04:14:40.479501Z,-0.8423379999999999,-0.309731,1.5743719999999999
2019-05-23T04:14:40.520501Z,-0.891452,-0.389942,1.5985969999999998
2019-05-23T04:14:40.560501Z,-0.46332700000000004,-0.278737,1.930779
2019-05-23T04:14:40.626501Z,-0.014079,-0.45714899999999997,1.032238
2019-05-23T04:14:40.639501Z,-0.005803,-0.411846,0.9913420000000001
2019-05-23T04:14:40.681501Z,-0.760808,-0.443328,0.43154899999999996
2019-05-23T04:14:40.720501Z,0.195078,-1.3208879999999998,1.327374
2019-05-23T04:14:40.760501Z,0.22885500000000003,-1.394491,1.366632
2019-05-23T04:14:40.801501Z,0.359846,-1.241645,-0.154638
2019-05-23T04:14:40.839501Z,0.08105599999999999,-1.593787,-0.471938
2019-05-23T04:14:40.881501Z,0.129911,-1.55549,-0.471333
2019-05-23T04:14:40.920501Z,-0.43106000000000005,-1.38271,-0.575164
2019-05-23T04:14:40.961501Z,-0.189651,-0.5980489999999999,-0.797713
2019-05-23T04:14:41.000501Z,-0.19732,-0.627153,-0.758706
2019-05-23T04:14:41.042501Z,-0.109884,-0.073308,-1.0625280000000001
2019-05-23T04:14:41.082501Z,-0.629312,0.250052,-0.453262
2019-05-23T04:14:41.121501Z,-0.610973,0.267676,-0.459743
2019-05-23T04:14:41.161501Z,-0.48801700000000003,0.534576,0.651605
2019-05-23T04:14:41.201501Z,-0.239662,0.30203800000000003,1.100085
2019-05-23T04:14:41.241501Z,-0.183142,0.352553,1.047643
2019-05-23T04:14:41.281501Z,-0.388784,0.092364,1.511428
2019-05-23T04:14:41.321501Z,-0.104243,-0.061944000000000006,1.521469
2019-05-23T04:14:41.360501Z,-0.050887,-0.149925,1.557099
2019-05-23T04:14:41.401501Z,0.184719,-0.311265,0.281523
2019-05-23T04:14:41.442501Z,0.081366,-2.090758,1.097164
2019-05-23T04:14:41.481501Z,0.107476,-2.091868,1.1037
2019-05-23T04:14:41.521501Z,0.35254800000000003,-1.756372,-0.291598
2019-05-23T04:14:41.561501Z,0.46203900000000003,-1.001385,-0.800044
2019-05-23T04:14:41.600501Z,0.465242,-0.796006,-0.90502
2019-05-23T04:14:41.640501Z,0.23083800000000002,-1.090922,-0.302687
2019-05-23T04:14:41.697501Z,0.05898,-0.676251,0.232217
2019-05-23T04:14:41.732501Z,0.051753,-0.687606,0.24106599999999997
2019-05-23T04:14:41.766501Z,-0.1802,-0.18667899999999998,-0.47793599999999997
2019-05-23T04:14:41.801501Z,-0.346147,0.095717,-0.069839
2019-05-23T04:14:41.841501Z,-0.364354,0.08807000000000001,-0.066481
2019-05-23T04:14:41.881501Z,-0.326725,0.372203,0.430224
2019-05-23T04:14:41.922501Z,-0.463163,0.509171,0.031323000000000004
2019-05-23T04:14:41.961501Z,-0.431519,0.5313760000000001,0.014484
2019-05-23T04:14:42.002501Z,-0.838541,0.571767,0.57587
2019-05-23T04:14:42.067501Z,-0.269689,0.199152,1.5103209999999998
2019-05-23T04:14:42.081501Z,-0.107146,0.18573900000000002,1.502845
2019-05-23T04:14:42.121501Z,-0.5448109999999999,-0.391164,0.17141099999999998
2019-05-23T04:14:42.161501Z,0.694714,-1.085439,1.702684
2019-05-23T04:14:42.202501Z,0.756157,-1.16618,1.7368700000000001
2019-05-23T04:14:42.241501Z,0.602215,-0.952198,-0.781464
2019-05-23T04:14:42.281501Z,0.5703159999999999,-1.213078,0.16542
2019-05-23T04:14:42.322501Z,0.543687,-1.1676959999999998,0.147556
2019-05-23T04:14:42.363501Z,0.163103,-1.029204,0.050527999999999997
2019-05-23T04:14:42.402501Z,0.32793,-0.692018,-0.776405
2019-05-23T04:14:42.443501Z,0.363632,-0.699422,-0.7499640000000001
2019-05-23T04:14:42.481501Z,-0.053527,-0.399036,-1.088422
2019-05-23T04:14:42.521501Z,-0.1679,-0.30885100000000004,-0.13843699999999998
2019-05-23T04:14:42.562501Z,-0.10335499999999999,-0.273113,-0.14802300000000002
2019-05-23T04:14:42.601501Z,-0.150903,0.158028,-0.32457199999999997
2019-05-23T04:14:42.661501Z,0.097335,0.6906220000000001,0.393067
2019-05-23T04:14:42.690501Z,-0.023443000000000002,0.645658,0.395022
2019-05-23T04:14:42.721501Z,-0.455675,0.616153,0.761683
2019-05-23T04:14:42.761501Z,-0.23503800000000002,0.351673,1.1384020000000001
2019-05-23T04:14:42.802501Z,-0.238096,0.340054,1.1222590000000001
2019-05-23T04:14:42.841501Z,-0.328403,0.159521,0.085979
2019-05-23T04:14:42.882501Z,-0.082273,-1.2702069999999999,1.0095129999999999
2019-05-23T04:14:42.922501Z,-0.078703,-1.206497,0.969822
2019-05-23T04:14:42.963501Z,-0.316849,-1.0078799999999999,0.208825
2019-05-23T04:14:43.020501Z,0.049561,-1.3044959999999999,0.194824
2019-05-23T04:14:43.042501Z,0.08929400000000001,-1.189643,0.14436
2019-05-23T04:14:43.082501Z,0.40368699999999996,-1.162169,-0.10350799999999999
2019-05-23T04:14:43.123501Z,-0.007131,-0.442533,-1.0715940000000002
2019-05-23T04:14:43.163501Z,0.048931,-0.236184,-1.140458
2019-05-23T04:14:43.207501Z,0.011770000000000001,-0.120886,-0.372823
2019-05-23T04:14:43.243501Z,-0.128694,0.191546,0.164866
2019-05-23T04:14:43.283501Z,-0.027670999999999998,0.283136,0.134582
2019-05-23T04:14:43.323501Z,-0.25150100000000003,-0.028589,0.8735700000000001
2019-05-23T04:14:43.363501Z,-0.199984,-0.167469,0.815024
2019-05-23T04:14:43.403501Z,-0.236985,-0.307094,0.8574209999999999
2019-05-23T04:14:43.445501Z,0.365577,0.19257,0.667946
2019-05-23T04:14:43.485501Z,0.146862,0.46719499999999997,-0.670446
2019-05-23T04:14:43.524501Z,-0.048155,0.557409,-0.721968
2019-05-23T04:14:43.564501Z,0.5222140000000001,-1.128751,1.812821
2019-05-23T04:14:43.603501Z,0.451122,-0.739287,-0.592468
2019-05-23T04:14:43.643501Z,0.400214,-0.706483,-0.595902
2019-05-23T04:14:43.695501Z,0.600539,-0.893534,-0.093292
2019-05-23T04:14:43.726501Z,0.17966700000000002,-0.667752,-1.306217
2019-05-23T04:14:43.762501Z,0.12400599999999999,-0.569017,-1.325991
2019-05-23T04:14:43.802501Z,0.014094,-0.269142,-0.595804
2019-05-23T04:14:43.844501Z,0.148303,-0.145672,-0.226552
2019-05-23T04:14:43.883501Z,0.152878,-0.149515,-0.219596
2019-05-23T04:14:43.923501Z,-0.14694100000000002,0.025412,-0.371199
2019-05-23T04:14:43.964501Z,-0.270251,0.112437,0.573742
2019-05-23T04:14:44.003501Z,-0.322619,-0.020963,0.6159720000000001
2019-05-23T04:14:44.042501Z,0.128639,0.538201,0.182872
2019-05-23T04:14:44.083501Z,-0.029972000000000002,0.636488,1.141513
2019-05-23T04:14:44.123501Z,0.077475,0.549871,1.164576
2019-05-23T04:14:44.164501Z,-0.251372,0.672676,0.5816279999999999
2019-05-23T04:14:44.204501Z,-0.057130999999999994,0.511524,0.6188670000000001
2019-05-23T04:14:44.243501Z,-0.191795,0.537791,0.58198
2019-05-23T04:14:44.284501Z,-0.077331,-1.549608,1.567122
2019-05-23T04:14:44.324501Z,-0.426721,-1.082749,-0.21935500000000002
2019-05-23T04:14:44.363501Z,-0.43590500000000004,-1.0667879999999998,-0.21635700000000002
2019-05-23T04:14:44.404501Z,-0.18751400000000001,-1.069918,-0.32117199999999996
2019-05-23T04:14:44.444501Z,-0.017169999999999998,-0.7942899999999999,-0.172934
2019-05-23T04:14:44.485501Z,0.040368,-0.761981,-0.172448
2019-05-23T04:14:44.524501Z,0.096302,-0.398934,-1.124164
2019-05-23T04:14:44.564501Z,0.231947,0.19358399999999998,-1.1076469999999998
2019-05-23T04:14:44.605501Z,0.175322,0.122373,-1.0669440000000001
2019-05-23T04:14:44.645501Z,0.18896400000000002,-0.11311199999999999,-0.8851399999999999
2019-05-23T04:14:44.683501Z,-0.01883,-0.142502,-1.259673
2019-05-23T04:14:44.723501Z,-0.073482,-0.093475,-1.262351
2019-05-23T04:14:44.807501Z,-0.383261,0.08450099999999999,1.0622040000000001
2019-05-23T04:14:44.808501Z,-0.561026,0.178643,1.113609
2019-05-23T04:14:44.843501Z,-0.593935,0.274469,1.052875
2019-05-23T04:14:44.883501Z,-0.762023,0.654801,0.773933
2019-05-23T04:14:44.923501Z,0.820995,-0.263416,2.2547330000000003
2019-05-23T04:14:44.964501Z,0.8284090000000001,-0.343028,2.248923
2019-05-23T04:14:45.003501Z,0.708851,-0.32235199999999997,-0.07425
2019-05-23T04:14:45.043501Z,0.374753,-0.687995,-0.186122
2019-05-23T04:14:45.084501Z,0.396538,-0.603416,-0.20835700000000001
2019-05-23T04:14:45.126501Z,-0.30365,-0.533748,-0.357772
2019-05-23T04:14:45.166501Z,-0.26090599999999997,-0.669833,0.058245000000000005
2019-05-23T04:14:45.203501Z,-0.170594,-0.8240120000000001,0.12138
2019-05-23T04:14:45.243501Z,0.34179499999999996,0.007503,-1.0923690000000001
2019-05-23T04:14:45.284501Z,0.5475270000000001,0.708426,-0.46593500000000004
2019-05-23T04:14:45.324501Z,0.675094,0.672064,-0.439964
2019-05-23T04:14:45.364501Z,0.40993900000000005,1.16957,-0.283992
2019-05-23T04:14:45.404501Z,-0.24535300000000002,0.377605,0.796222
2019-05-23T04:14:45.444501Z,-0.251603,0.43723100000000004,0.757676
2019-05-23T04:14:45.485501Z,-0.142824,0.164987,1.752441
2019-05-23T04:14:45.524501Z,-0.358666,0.67637,-0.408023
2019-05-23T04:14:45.565501Z,-0.5625939999999999,0.7951600000000001,-0.469233
2019-05-23T04:14:45.606501Z,-0.7889,-0.066678,0.953051
2019-05-23T04:14:45.645501Z,-0.479951,-1.649168,0.812879
2019-05-23T04:14:45.685501Z,-0.412175,-1.676106,0.821708
2019-05-23T04:14:45.725501Z,-0.19866099999999998,-0.732345,-0.386324
2019-05-23T04:14:45.763501Z,0.061015999999999994,-0.9819129999999999,-0.495638
2019-05-23T04:14:45.804501Z,0.063311,-0.980289,-0.48175100000000004
2019-05-23T04:14:45.902501Z,-0.190824,-0.9149860000000001,-0.530651
2019-05-23T04:14:45.903501Z,-0.061137000000000004,-0.368672,-0.5011220000000001
2019-05-23T04:14:45.937501Z,-0.14744200000000002,-0.45115500000000003,-0.465208
2019-05-23T04:14:45.964501Z,-0.09915299999999999,-0.078221,-0.525776
2019-05-23T04:14:46.003501Z,0.166983,0.338515,-0.579868
2019-05-23T04:14:46.045501Z,0.233026,0.261581,-0.5379390000000001
2019-05-23T04:14:46.084501Z,0.23343000000000003,-0.089996,0.310992
2019-05-23T04:14:46.128501Z,-0.372909,0.096728,1.007469
2019-05-23T04:14:46.164501Z,-0.39069499999999996,-0.177062,1.11697
2019-05-23T04:14:46.204501Z,-0.041949,0.104772,1.003976
2019-05-23T04:14:46.256501Z,-0.21663200000000002,0.550384,-0.08647
2019-05-23T04:14:46.285501Z,-0.49709899999999996,0.510301,-0.085149
2019-05-23T04:14:46.324501Z,0.14489200000000002,-0.352511,1.7077509999999998
2019-05-23T04:14:46.365501Z,0.510626,-0.441463,-0.242229
2019-05-23T04:14:46.405501Z,0.378899,-0.398447,-0.261357
2019-05-23T04:14:46.446501Z,0.791347,-0.626336,-0.145056
2019-05-23T04:14:46.485501Z,0.323365,-0.913377,-0.642868
2019-05-23T04:14:46.525501Z,0.365708,-0.8661760000000001,-0.649483
2019-05-23T04:14:46.567501Z,0.401278,-0.28029299999999996,-0.965256
2019-05-23T04:14:46.606501Z,0.23826599999999998,-0.086906,-0.8173590000000001
2019-05-23T04:14:46.645501Z,0.26303200000000004,-0.050931,-0.8215389999999999
2019-05-23T04:14:46.686501Z,0.42662700000000003,0.353604,-0.279271
2019-05-23T04:14:46.726501Z,0.527463,0.594184,0.12270999999999999
2019-05-23T04:14:46.767501Z,0.6037060000000001,0.604873,0.112233
2019-05-23T04:14:46.807501Z,0.5713189999999999,0.922241,-0.289523
2019-05-23T04:14:46.846501Z,0.08515199999999999,0.9227540000000001,0.8420110000000001
2019-05-23T04:14:46.887501Z,0.15296400000000002,0.860007,0.85485
2019-05-23T04:14:46.927501Z,-0.582974,0.24131999999999998,0.753161
2019-05-23T04:14:46.967501Z,-0.272811,0.429245,0.502677
2019-05-23T04:14:47.007501Z,-0.382805,0.444125,0.478808
2019-05-23T04:14:47.048501Z,-0.21612800000000001,-0.9370440000000001,1.120757
2019-05-23T04:14:47.087501Z,-0.173488,-1.137592,0.45483999999999997
2019-05-23T04:14:47.127501Z,-0.128802,-1.071699,0.42471099999999995
2019-05-23T04:14:47.167501Z,-0.020409,-1.212504,-0.285638
2019-05-23T04:14:47.206501Z,0.17443499999999998,-1.090082,-0.199147
2019-05-23T04:14:47.247501Z,0.213583,-1.0055100000000001,-0.22577399999999997
2019-05-23T04:14:47.286501Z,0.13741,-0.73903,-0.33520900000000003
2019-05-23T04:14:47.325501Z,0.173269,-0.38283,-0.096337
2019-05-23T04:14:47.367501Z,0.25456799999999996,-0.381126,-0.08785599999999999
2019-05-23T04:14:47.407501Z,-0.054325,-0.18650999999999998,-0.27203099999999997
2019-05-23T04:14:47.447501Z,0.179944,0.269198,-0.07441299999999999
2019-05-23T04:14:47.487501Z,0.213351,0.255616,-0.066277
2019-05-23T04:14:47.527501Z,0.41688400000000003,0.262524,0.063402
2019-05-23T04:14:47.565501Z,0.068109,0.512153,-0.577615
2019-05-23T04:14:47.606501Z,0.006873000000000001,0.5304989999999999,-0.585659
2019-05-23T04:14:47.654501Z,-0.013380000000000001,0.9622379999999999,-0.022167
2019-05-23T04:14:47.688501Z,-0.341048,1.108263,0.271169
2019-05-23T04:14:47.726501Z,-0.396934,0.9613299999999999,0.320436
2019-05-23T04:14:47.766501Z,0.037222000000000005,0.7347899999999999,0.029874
2019-05-23T04:14:47.806501Z,-0.508203,-0.05864400000000001,0.295705
2019-05-23T04:14:47.847501Z,-0.6049439999999999,-0.09037200000000001,0.298663
2019-05-23T04:14:47.886501Z,-0.197025,-0.7238479999999999,0.9744959999999999
2019-05-23T04:14:47.927501Z,0.22227600000000003,-0.590461,0.16983499999999999
2019-05-23T04:14:47.966501Z,0.193646,-0.641266,0.19500599999999998
2019-05-23T04:14:48.020501Z,0.351461,-0.9229799999999999,-0.082715
2019-05-23T04:14:48.048501Z,0.28089400000000003,-0.751793,-0.355097
2019-05-23T04:14:48.087501Z,0.277123,-0.724575,-0.35620100000000005
2019-05-23T04:14:48.127501Z,-0.074424,-0.6623220000000001,-0.249245
2019-05-23T04:14:48.166501Z,0.281269,0.129251,-0.679678
2019-05-23T04:14:48.207501Z,0.311325,0.140413,-0.673054
2019-05-23T04:14:48.248501Z,-0.012822,0.275113,-0.5405840000000001
2019-05-23T04:14:48.287501Z,0.160183,0.465496,-0.199398
2019-05-23T04:14:48.327501Z,0.20735599999999998,0.440089,-0.184505
2019-05-23T04:14:48.367501Z,0.510145,0.485783,-0.318098
2019-05-23T04:14:48.406501Z,0.02402,0.7651220000000001,-0.7497010000000001
2019-05-23T04:14:48.514501Z,0.050467000000000005,0.80237,-0.759351
2019-05-23T04:14:48.515501Z,0.6283989999999999,1.6225530000000001,-0.731009
2019-05-23T04:14:48.528501Z,0.24770100000000003,0.9574860000000001,1.0564280000000001
2019-05-23T04:14:48.569501Z,0.160911,0.7417600000000001,1.128134
2019-05-23T04:14:48.606501Z,0.096295,0.20443599999999998,0.337376
2019-05-23T04:14:48.646501Z,0.283629,-0.147151,0.926534
2019-05-23T04:14:48.688501Z,0.17038399999999998,-0.12700899999999998,0.895966
2019-05-23T04:14:48.728501Z,0.69972,-1.7589130000000002,2.3157349999999997
2019-05-23T04:14:48.767501Z,0.439849,-2.115748,0.982132
2019-05-23T04:14:48.807501Z,0.440496,-1.988441,0.922658
2019-05-23T04:14:48.849501Z,0.686315,-1.699864,0.191445
2019-05-23T04:14:48.895501Z,0.94289,-1.6453830000000003,0.23272199999999998
2019-05-23T04:14:48.928501Z,0.775251,-1.6486459999999998,0.24078200000000002
2019-05-23T04:14:48.968501Z,0.996806,-1.1886889999999999,-0.263507
2019-05-23T04:14:49.007501Z,1.025954,-0.949206,-0.635088
2019-05-23T04:14:49.048501Z,0.8729049999999999,-0.8524520000000001,-0.6540159999999999
2019-05-23T04:14:49.087501Z,0.716541,-0.656116,0.198203
2019-05-23T04:14:49.128501Z,0.462863,-0.415821,0.45664899999999997
2019-05-23T04:14:49.168501Z,0.243529,-0.360946,0.449514
2019-05-23T04:14:49.208501Z,-0.412808,-0.579154,-0.29516
2019-05-23T04:14:49.247501Z,1.521962,0.10611199999999998,1.9858049999999998
2019-05-23T04:14:49.288501Z,1.62626,0.07700900000000001,1.944186
2019-05-23T04:14:49.328501Z,0.25290999999999997,-0.809959,0.531454
2019-05-23T04:14:49.367501Z,-0.690409,-0.983196,0.29046
2019-05-23T04:14:49.407501Z,-0.618776,-0.870924,0.24215100000000003
2019-05-23T04:14:49.449501Z,-0.5564359999999999,-1.099661,1.16022
2019-05-23T04:14:49.487501Z,-0.497964,-0.8769790000000001,0.655015
2019-05-23T04:14:49.527501Z,-0.554031,-0.8851110000000001,0.6592359999999999
2019-05-23T04:14:49.568501Z,-0.397049,-1.127894,0.578226
2019-05-23T04:14:49.607501Z,-0.046133,-1.04626,0.19818
2019-05-23T04:14:49.647501Z,-0.0013050000000000002,-1.027045,0.189099
2019-05-23T04:14:49.690501Z,0.16533499999999998,-0.8319639999999999,0.202154
2019-05-23T04:14:49.727501Z,-0.196751,-0.6150399999999999,-0.053546
2019-05-23T04:14:49.770501Z,-0.167243,-0.5940380000000001,-0.059375
2019-05-23T04:14:49.807501Z,-0.366693,-0.318911,0.07388
2019-05-23T04:14:49.848501Z,-0.5227539999999999,-0.21245999999999998,0.317918
2019-05-23T04:14:49.887501Z,-0.49005299999999996,-0.204189,0.308614
2019-05-23T04:14:49.928501Z,-0.11436800000000001,0.156646,0.030454000000000002
2019-05-23T04:14:49.969501Z,-0.752787,-0.681811,0.28406
2019-05-23T04:14:50.009501Z,-0.71562,-0.8480840000000001,0.34920100000000004
2019-05-23T04:14:50.048501Z,-0.274821,-0.37296399999999996,0.360823
2019-05-23T04:14:50.088501Z,-0.6744220000000001,-0.20687600000000003,-0.360389
2019-05-23T04:14:50.129501Z,-0.68194,-0.19415,-0.35767899999999997
2019-05-23T04:14:50.168501Z,-0.238012,-0.049537,0.06814400000000001
2019-05-23T04:14:50.211501Z,-0.61443,0.362687,0.038445
2019-05-23T04:14:50.248501Z,-0.8479180000000001,0.41996999999999995,0.026973
2019-05-23T04:14:50.289501Z,-0.525342,-0.046585,0.440204
2019-05-23T04:14:50.328501Z,-0.17010699999999998,-0.5445840000000001,0.617224
2019-05-23T04:14:50.370501Z,-0.122423,-0.363186,0.534122
2019-05-23T04:14:50.408501Z,0.103404,-0.782718,1.370247
2019-05-23T04:14:50.448501Z,-0.115944,-1.187187,0.981253
2019-05-23T04:14:50.488501Z,-0.027956,-1.350143,1.0275
2019-05-23T04:14:50.529501Z,0.509934,-1.011042,-0.184841
2019-05-23T04:14:50.571501Z,-0.119085,-0.8394010000000001,-0.5788770000000001
2019-05-23T04:14:50.608501Z,0.007906999999999999,-0.9002129999999999,-0.545141
2019-05-23T04:14:50.649501Z,0.022772999999999998,-1.377544,0.677754
2019-05-23T04:14:50.690501Z,-0.49771899999999997,-1.177346,0.297551
2019-05-23T04:14:50.730501Z,-0.33055,-1.332,0.373705
2019-05-23T04:14:50.769501Z,-0.22734400000000002,-0.575887,-0.36235700000000004
2019-05-23T04:14:50.808501Z,-0.6667109999999999,-0.5227069999999999,-1.2396
2019-05-23T04:14:50.849501Z,-0.690936,-0.38910900000000004,-1.279093
2019-05-23T04:14:50.911501Z,-0.548104,0.36959000000000003,-1.1911
2019-05-23T04:14:50.929501Z,-1.325666,-0.203701,0.655212
2019-05-23T04:14:50.968501Z,-1.412319,-0.349588,0.705859
2019-05-23T04:14:51.009501Z,-1.321699,-0.020415,-0.114548
2019-05-23T04:14:51.051501Z,-0.021199000000000003,0.662989,0.846852
2019-05-23T04:14:51.091501Z,-0.005014,0.511245,0.8988870000000001
2019-05-23T04:14:51.129501Z,0.26532,0.011824,0.212667
2019-05-23T04:14:51.169501Z,0.019327,0.22311399999999998,-0.34860599999999997
2019-05-23T04:14:51.210501Z,0.025317,0.6997800000000001,-0.526867
2019-05-23T04:14:51.249501Z,0.084612,-0.738992,1.804934
2019-05-23T04:14:51.292501Z,0.685496,-1.0276450000000001,1.706779
2019-05-23T04:14:51.330501Z,0.822939,-1.237668,1.7659189999999998
2019-05-23T04:14:51.370501Z,0.08442100000000001,-1.245847,-0.9083459999999999
2019-05-23T04:14:51.410501Z,-0.421188,-1.087049,-0.33471
2019-05-23T04:14:51.450501Z,-0.51021,-1.350134,-0.217704
2019-05-23T04:14:51.492501Z,-0.29581799999999997,-0.6293890000000001,-0.09472
2019-05-23T04:14:51.530501Z,0.981827,0.13911500000000002,-0.848783
2019-05-23T04:14:51.570501Z,0.502084,-0.11518699999999998,-0.67543
2019-05-23T04:14:51.610501Z,0.844591,-0.639655,-0.9017639999999999
2019-05-23T04:14:51.651501Z,0.565142,0.51165,-0.13208699999999998
2019-05-23T04:14:51.689501Z,0.7101850000000001,0.61965,-0.200809
2019-05-23T04:14:51.730501Z,0.006572,0.890684,-1.23916
2019-05-23T04:14:51.769501Z,-0.016953,0.36314,1.526728
2019-05-23T04:14:51.810501Z,-0.128018,0.28528400000000004,1.544933
2019-05-23T04:14:51.849501Z,0.36051700000000003,0.212088,1.0638670000000001
2019-05-23T04:14:51.891501Z,0.19636099999999998,0.266074,0.740294
2019-05-23T04:14:51.929501Z,0.087164,0.381015,0.691734
2019-05-23T04:14:51.970501Z,-0.658153,-1.0596299999999998,2.641362
2019-05-23T04:14:52.010501Z,-0.334596,-1.291168,0.8879389999999999
2019-05-23T04:14:52.050501Z,-0.179901,-1.444874,0.932206
2019-05-23T04:14:52.090501Z,-0.301172,-1.200325,-1.124539
2019-05-23T04:14:52.130501Z,-0.15394000000000002,-1.345637,-0.395278
2019-05-23T04:14:52.170501Z,-0.014021,-1.365933,-0.38057399999999997
2019-05-23T04:14:52.215501Z,-0.769756,-0.885763,-0.6273989999999999
2019-05-23T04:14:52.249501Z,-0.677609,-0.276938,-1.3723
2019-05-23T04:14:52.327501Z,-0.637659,-0.095948,-1.428483
2019-05-23T04:14:52.338501Z,0.0009710000000000001,0.07156599999999999,0.17845899999999998
2019-05-23T04:14:52.369501Z,-0.856302,0.204293,0.029046
2019-05-23T04:14:52.410501Z,-0.900028,0.134664,0.06105700000000001
2019-05-23T04:14:52.450501Z,-0.602645,0.253911,0.002271
2019-05-23T04:14:52.491501Z,-0.41073000000000004,0.365079,-0.08138200000000001
2019-05-23T04:14:52.531501Z,-0.43967700000000004,0.386327,-0.089613
2019-05-23T04:14:52.570501Z,0.40284200000000003,0.294569,1.0376969999999999
2019-05-23T04:14:52.613501Z,0.007861,0.264569,0.369433
2019-05-23T04:14:52.686501Z,-0.044251,0.256716,0.368731
2019-05-23T04:14:52.691501Z,0.216013,-0.214142,1.155969
2019-05-23T04:14:52.732501Z,0.426331,-0.274548,1.835303
2019-05-23T04:14:52.772501Z,0.5067159999999999,-0.38298899999999997,1.8501310000000002
2019-05-23T04:14:52.811501Z,0.954843,-0.6063609999999999,-0.312814
2019-05-23T04:14:52.852501Z,0.392579,-0.557164,-0.618363
2019-05-23T04:14:52.890501Z,0.480071,-0.506793,-0.631324
2019-05-23T04:14:52.932501Z,0.81953,-0.7982199999999999,-0.08426499999999999
2019-05-23T04:14:52.971501Z,-0.219604,-0.098576,-0.946838
2019-05-23T04:14:53.010501Z,-0.33431700000000003,0.02982,-0.9852360000000001
2019-05-23T04:14:53.051501Z,-0.459429,0.269183,-1.395153
2019-05-23T04:14:53.095501Z,0.832417,-0.148954,0.819087
2019-05-23T04:14:53.130501Z,0.869243,-0.20837199999999997,0.8272930000000001
2019-05-23T04:14:53.170501Z,0.473505,0.24876399999999999,-0.00424
2019-05-23T04:14:53.212501Z,0.430433,0.57833,-0.148596
2019-05-23T04:14:53.251501Z,0.441188,0.5599310000000001,-0.143312
2019-05-23T04:14:53.291501Z,0.5427930000000001,0.507243,0.391891
2019-05-23T04:14:53.331501Z,-0.215771,0.434067,0.666759
2019-05-23T04:14:53.373501Z,-0.226836,0.441379,0.649957
2019-05-23T04:14:53.450501Z,-0.706503,-0.739973,1.6827729999999999
2019-05-23T04:14:53.452501Z,-0.809451,-1.221371,0.455172
2019-05-23T04:14:53.530501Z,-0.79366,-1.2315530000000001,0.46088100000000004
2019-05-23T04:14:53.531501Z,-1.046334,-1.225692,0.181763
2019-05-23T04:14:53.571501Z,-0.467524,-1.423378,0.30964
2019-05-23T04:14:53.611501Z,-0.505102,-1.451552,0.331869
2019-05-23T04:14:53.651501Z,-0.25277,-1.002142,-1.360479
2019-05-23T04:14:53.692501Z,-0.052020000000000004,-0.36408,-0.9369430000000001
2019-05-23T04:14:53.732501Z,0.020952000000000002,-0.27937,-0.959899
2019-05-23T04:14:53.772501Z,-0.006083,0.025457,-0.649464
2019-05-23T04:14:53.814501Z,0.218766,0.156253,-0.075171
2019-05-23T04:14:53.852501Z,0.297048,0.13609200000000002,-0.069867
2019-05-23T04:14:53.892501Z,-0.334775,0.587342,0.380874
2019-05-23T04:14:53.931501Z,-0.29635900000000004,0.534744,0.274165
2019-05-23T04:14:53.972501Z,-0.455875,0.6143390000000001,0.24125300000000002
2019-05-23T04:14:54.015501Z,-0.234366,0.422637,0.849557
2019-05-23T04:14:54.051501Z,0.223962,0.639337,1.348093
2019-05-23T04:14:54.091501Z,0.301587,0.568167,1.345408
2019-05-23T04:14:54.132501Z,0.176445,-0.305044,-0.7442489999999999
2019-05-23T04:14:54.172501Z,0.488914,-1.242323,2.516839
2019-05-23T04:14:54.212501Z,0.627703,-1.441591,2.557187
2019-05-23T04:14:54.252501Z,0.45393199999999995,-1.062102,-1.15293
2019-05-23T04:14:54.294501Z,0.647131,-1.196519,-0.22154200000000002
2019-05-23T04:14:54.332501Z,0.7215739999999999,-1.2169780000000001,-0.204034
2019-05-23T04:14:54.373501Z,0.716958,-1.113659,0.137075
2019-05-23T04:14:54.411501Z,0.012263,-0.40377399999999997,-1.176569
2019-05-23T04:14:54.452501Z,-0.038289,-0.30900700000000003,-1.19434
2019-05-23T04:14:54.519501Z,0.826142,0.01157,-1.1385530000000001
2019-05-23T04:14:54.538501Z,1.132776,0.055595000000000006,-0.121353
2019-05-23T04:14:54.573501Z,1.109588,0.114754,-0.143996
2019-05-23T04:14:54.613501Z,0.543913,0.42064399999999996,0.507629
2019-05-23T04:14:54.654501Z,0.46653900000000004,0.361716,0.623788
2019-05-23T04:14:54.693501Z,0.44960600000000006,0.253854,0.656043
2019-05-23T04:14:54.733501Z,0.9410440000000001,-0.051043,0.790878
2019-05-23T04:14:54.773501Z,0.9626030000000001,-0.716774,0.406538
2019-05-23T04:14:54.813501Z,0.9556959999999999,-0.566298,0.338873
2019-05-23T04:14:54.852501Z,1.058836,-1.686005,2.621796
2019-05-23T04:14:54.893501Z,1.471609,-1.6907150000000002,0.6305350000000001
2019-05-23T04:14:54.933501Z,1.2845030000000002,-1.7059669999999998,0.647258
2019-05-23T04:14:54.973501Z,2.027087,-1.37747,0.228805
2019-05-23T04:14:55.013501Z,1.921825,-1.0682049999999998,-0.51266
2019-05-23T04:14:55.053501Z,1.819303,-0.984426,-0.5272
2019-05-23T04:14:55.093501Z,1.4427020000000002,-0.737576,-0.39337300000000003
2019-05-23T04:14:55.133501Z,0.908634,-1.287034,0.838359
2019-05-23T04:14:55.173501Z,0.8776370000000001,-1.3595469999999998,0.866135
2019-05-23T04:14:55.213501Z,0.494041,-1.709814,0.874764
2019-05-23T04:14:55.255501Z,-0.44915299999999997,-1.374541,0.330933
2019-05-23T04:14:55.295501Z,-0.45203000000000004,-1.431767,0.363237
2019-05-23T04:14:55.334501Z,-0.869917,-1.0931629999999999,0.325459
2019-05-23T04:14:55.374501Z,-1.219101,-0.49080100000000004,-0.183819
2019-05-23T04:14:55.415501Z,-1.185633,-0.434792,-0.204629
2019-05-23T04:14:55.453501Z,-1.303057,0.074883,-0.5046069999999999
2019-05-23T04:14:55.495501Z,0.24548299999999998,0.8216760000000001,0.680387
2019-05-23T04:14:55.534501Z,0.271889,0.704059,0.712258
2019-05-23T04:14:55.575501Z,-0.8826799999999999,0.16915999999999998,1.349083
2019-05-23T04:14:55.616501Z,0.36643000000000003,-0.083514,1.157282
2019-05-23T04:14:55.655501Z,0.416883,-0.213725,1.201071
2019-05-23T04:14:55.695501Z,-0.291711,-0.64887,0.6164149999999999
2019-05-23T04:14:55.734501Z,0.461454,-1.506176,1.726575
2019-05-23T04:14:55.775501Z,0.425546,-1.7871110000000001,1.876728
2019-05-23T04:14:55.815501Z,0.306998,-1.451838,-0.27748
2019-05-23T04:14:55.855501Z,0.9610799999999999,-1.747375,0.093911
2019-05-23T04:14:55.896501Z,1.058755,-1.795886,0.128471
2019-05-23T04:14:55.934501Z,-0.11651199999999999,-1.2717209999999999,-0.591119
2019-05-23T04:14:55.976501Z,0.168811,-1.026082,-0.911544
2019-05-23T04:14:56.015501Z,0.333775,-1.0794270000000001,-0.8669469999999999
2019-05-23T04:14:56.055501Z,0.47248,-0.8433780000000001,-0.869123
2019-05-23T04:14:56.093501Z,-0.465055,-0.354759,-1.225076
2019-05-23T04:14:56.159501Z,-0.363519,-0.262856,-1.264421
2019-05-23T04:14:56.175501Z,-0.35615399999999997,0.067579,0.796828
2019-05-23T04:14:56.212501Z,-0.058602,0.29845,0.725194
2019-05-23T04:14:56.253501Z,-0.06402100000000001,0.28499800000000003,0.7187640000000001
2019-05-23T04:14:56.294501Z,-0.595843,0.601382,1.445073
2019-05-23T04:14:56.334501Z,-0.30433000000000004,0.570565,0.607349
2019-05-23T04:14:56.374501Z,-0.46464099999999997,0.623923,0.560318
2019-05-23T04:14:56.414501Z,-0.535296,-0.804962,1.31571
2019-05-23T04:14:56.455501Z,-0.499536,-1.7916130000000001,1.197711
2019-05-23T04:14:56.515501Z,-0.44117399999999996,-1.739475,1.1614959999999999
2019-05-23T04:14:56.533501Z,-1.296352,-1.6425189999999998,-0.127235
2019-05-23T04:14:56.575501Z,-0.430604,-1.6442990000000002,-0.284426
2019-05-23T04:14:56.615501Z,-0.41109799999999996,-1.585126,-0.29985500000000004
2019-05-23T04:14:56.654501Z,-0.058464,-1.223119,-0.45329899999999995
2019-05-23T04:14:56.694501Z,0.183411,-0.9014629999999999,-0.5001899999999999
2019-05-23T04:14:56.734501Z,0.23262199999999997,-0.85146,-0.5137010000000001
2019-05-23T04:14:56.775501Z,-0.224823,-0.7663479999999999,-0.064341
2019-05-23T04:14:56.815501Z,-0.233346,-0.517426,0.441187
2019-05-23T04:14:56.855501Z,-0.138514,-0.643514,0.5176069999999999
2019-05-23T04:14:56.894501Z,-0.6653560000000001,0.07876699999999999,0.193796
2019-05-23T04:14:56.936501Z,-0.6900229999999999,0.042068,0.621868
2019-05-23T04:14:56.976501Z,-0.664459,-0.017547,0.650153
2019-05-23T04:14:57.016501Z,-0.582739,0.185244,1.0255459999999998
2019-05-23T04:14:57.058501Z,-0.401424,0.558882,-0.60843
2019-05-23T04:14:57.094501Z,-0.601136,0.8578389999999999,-0.791734
2019-05-23T04:14:57.134501Z,-0.020402,-0.695588,2.011991
2019-05-23T04:14:57.181501Z,0.197231,-1.359229,0.8673280000000001
2019-05-23T04:14:57.214501Z,0.105484,-1.274481,0.821833
2019-05-23T04:14:57.254501Z,0.6020310000000001,-1.5416,-0.285407
2019-05-23T04:14:57.294501Z,0.027857999999999997,-1.404143,-0.147543
2019-05-23T04:14:57.335501Z,0.060801999999999995,-1.412159,-0.129645
2019-05-23T04:14:57.376501Z,-0.026601,-0.870338,-0.673829
2019-05-23T04:14:57.415501Z,0.613204,-0.575788,-0.7244520000000001
2019-05-23T04:14:57.456501Z,0.820118,-0.570978,-0.709642
2019-05-23T04:14:57.495501Z,0.059334000000000005,-0.26160100000000003,-0.034977999999999995
2019-05-23T04:14:57.535501Z,-0.084613,0.079084,0.06988899999999999
2019-05-23T04:14:57.624501Z,-0.06704299999999999,0.070038,0.073617
2019-05-23T04:14:57.626501Z,0.174656,0.244531,0.09820599999999999
2019-05-23T04:14:57.661501Z,0.394043,0.274548,0.7526649999999999
2019-05-23T04:14:57.694501Z,0.40931999999999996,0.275072,0.738232
2019-05-23T04:14:57.735501Z,0.116943,0.464495,0.001877
2019-05-23T04:14:57.775501Z,-0.744015,-0.40311199999999997,1.632112
2019-05-23T04:14:57.816501Z,-0.8016989999999999,-0.328914,1.570309
2019-05-23T04:14:57.855501Z,-0.401106,-1.279865,2.281184
2019-05-23T04:14:57.896501Z,-0.62844,-1.086729,-0.694659
2019-05-23T04:14:57.935501Z,-0.729382,-1.028036,-0.704339
2019-05-23T04:14:57.975501Z,-0.135472,-1.100471,-0.296763
2019-05-23T04:14:58.015501Z,0.156063,-0.937625,0.42102399999999995
2019-05-23T04:14:58.056501Z,0.24136300000000002,-1.001608,0.453557
2019-05-23T04:14:58.096501Z,-0.13788599999999998,-0.45078199999999996,-0.738507
2019-05-23T04:14:58.136501Z,-0.52818,-0.257653,-0.48066400000000004
2019-05-23T04:14:58.176501Z,-0.45110600000000006,-0.283267,-0.455502
2019-05-23T04:14:58.216501Z,-0.906349,0.22861599999999999,-0.8453620000000001
2019-05-23T04:14:58.258501Z,-0.920156,0.20239300000000002,0.24031799999999998
2019-05-23T04:14:58.296501Z,-0.946059,0.10544300000000001,0.280575
2019-05-23T04:14:58.337501Z,-0.398809,-0.197899,0.985615
2019-05-23T04:14:58.376501Z,-0.042105000000000004,0.044331999999999996,0.816909
2019-05-23T04:14:58.417501Z,-0.068051,-0.017425,0.8360219999999999
2019-05-23T04:14:58.457501Z,-0.262246,-0.270427,1.681619
2019-05-23T04:14:58.497501Z,-0.062424,-1.414506,1.640037
2019-05-23T04:14:58.538501Z,0.05839199999999999,-1.563793,1.7255479999999999
2019-05-23T04:14:58.577501Z,-0.5129640000000001,-1.246357,-0.838825
2019-05-23T04:14:58.618501Z,-0.6377229999999999,-1.424333,-0.024575
2019-05-23T04:14:58.655501Z,-0.356697,-1.303692,-0.043914999999999996
2019-05-23T04:14:58.730501Z,-1.3650280000000001,-1.045506,-0.874812
2019-05-23T04:14:58.743501Z,-1.3817540000000001,-0.8419270000000001,-1.221509
2019-05-23T04:14:58.777501Z,-1.350496,-0.707001,-1.264267
2019-05-23T04:14:58.815501Z,-1.885645,-0.70452,-0.46231700000000003
2019-05-23T04:14:58.856501Z,-1.5260690000000001,-0.756084,-0.19189
2019-05-23T04:14:58.896501Z,-1.751155,-0.7520180000000001,-0.22581500000000002
2019-05-23T04:14:58.937501Z,-1.086488,-0.464863,0.004062
2019-05-23T04:14:58.976501Z,-0.420421,-0.402713,0.550565
2019-05-23T04:14:59.017501Z,-0.545689,-0.346401,0.504426
2019-05-23T04:14:59.082501Z,-0.46298599999999995,-0.25319899999999995,0.576224
2019-05-23T04:14:59.096501Z,-0.6315390000000001,-0.82419,1.71573
2019-05-23T04:14:59.136501Z,-0.525253,-0.761997,1.670852
2019-05-23T04:14:59.178501Z,-0.387831,-1.308815,1.429233
2019-05-23T04:14:59.216501Z,-0.75568,-1.05863,-0.249513
2019-05-23T04:14:59.257501Z,-0.7896380000000001,-0.9876450000000001,-0.27512800000000004
2019-05-23T04:14:59.297501Z,-0.541754,-1.020019,-0.208087
2019-05-23T04:14:59.337501Z,0.76595,-1.032882,0.091257
2019-05-23T04:14:59.378501Z,0.840036,-1.1090799999999998,0.14241099999999998
2019-05-23T04:14:59.417501Z,0.385975,-0.22366100000000003,-0.994609
2019-05-23T04:14:59.457501Z,0.399885,-0.06568099999999999,-0.355482
2019-05-23T04:14:59.499501Z,0.387444,-0.125174,-0.32001999999999997
2019-05-23T04:14:59.538501Z,0.6601199999999999,0.09576799999999999,0.532593
2019-05-23T04:14:59.622501Z,1.048823,0.27328800000000003,1.12016
2019-05-23T04:14:59.626501Z,1.097797,0.096711,1.205325
2019-05-23T04:14:59.658501Z,1.090961,0.516737,0.6703020000000001
2019-05-23T04:14:59.698501Z,0.722722,0.097538,1.342039
2019-05-23T04:14:59.737501Z,0.8690620000000001,0.058163,1.3662020000000001
2019-05-23T04:14:59.778501Z,1.056338,-0.9496399999999999,1.210975
2019-05-23T04:14:59.818501Z,1.067045,-0.796212,-0.566941
2019-05-23T04:14:59.859501Z,1.133723,-0.815408,-0.519522
2019-05-23T04:14:59.899501Z,1.1838790000000001,-1.045205,0.0013800000000000002
2019-05-23T04:14:59.938501Z,1.101817,-0.940931,-0.383359
2019-05-23T04:14:59.978501Z,1.296604,-0.9194110000000001,-0.323529
2019-05-23T04:15:00.017501Z,1.7773130000000001,-0.633771,-0.940457
2019-05-23T04:15:00.057501Z,0.143529,0.050897000000000005,-1.656209
2019-05-23T04:15:00.127501Z,0.205815,0.265007,-1.7364240000000002
2019-05-23T04:15:00.140501Z,-1.0730790000000001,0.148733,-0.26395799999999997
2019-05-23T04:15:00.180501Z,-1.45594,0.102014,1.0992549999999999
2019-05-23T04:15:00.217501Z,-1.7219209999999998,0.134771,0.985301
2019-05-23T04:15:00.258501Z,-1.044224,-0.22560700000000003,0.903518
2019-05-23T04:15:00.298501Z,-0.10979000000000001,-0.895407,0.818103
2019-05-23T04:15:00.338501Z,-0.19627999999999998,-0.881862,0.789148
2019-05-23T04:15:00.378501Z,-1.234176,-1.222304,1.525542
2019-05-23T04:15:00.417501Z,-1.133995,-1.7862069999999999,0.751739
2019-05-23T04:15:00.457501Z,-1.129751,-1.7397740000000002,0.7280439999999999
2019-05-23T04:15:00.503501Z,-1.434878,-1.0965340000000001,-0.42239
2019-05-23T04:15:00.537501Z,-0.36839,-1.617197,-0.582862
2019-05-23T04:15:00.580501Z,-0.476757,-1.447863,-0.653265
2019-05-23T04:15:00.617501Z,-0.173768,-1.2680850000000001,0.049145
2019-05-23T04:15:00.657501Z,0.076521,-0.736075,0.23345300000000002
2019-05-23T04:15:00.697501Z,0.043514,-0.705124,0.21749899999999997
2019-05-23T04:15:00.738501Z,0.644642,-0.377785,0.050388
2019-05-23T04:15:00.778501Z,1.392017,-0.271226,1.095222
2019-05-23T04:15:00.818501Z,1.4021379999999999,-0.301025,1.095068
2019-05-23T04:15:00.858501Z,2.007263,-0.307631,1.402197
2019-05-23T04:15:00.899501Z,2.071125,-0.101112,0.487519
2019-05-23T04:15:00.940501Z,2.006104,0.030856,0.42040299999999997
2019-05-23T04:15:00.979501Z,1.8252380000000001,-0.9060229999999999,2.594195
2019-05-23T04:15:01.019501Z,2.030719,-0.897399,1.075025
2019-05-23T04:15:01.060501Z,2.016912,-0.996131,1.106846
2019-05-23T04:15:01.099501Z,2.0176220000000002,-0.652424,-0.564878
2019-05-23T04:15:01.138501Z,1.508346,-0.536874,-1.008168
2019-05-23T04:15:01.229501Z,1.397783,-0.49627,-1.012635
2019-05-23T04:15:01.231501Z,1.43636,-0.58153,0.063276
2019-05-23T04:15:01.266501Z,1.3345360000000002,-0.016259,-1.4714129999999999
2019-05-23T04:15:01.297501Z,1.162521,0.100977,-1.5046680000000001
2019-05-23T04:15:01.337501Z,0.940449,0.29442399999999996,-0.8262709999999999
2019-05-23T04:15:01.378501Z,1.0525579999999999,0.348819,-0.020266
2019-05-23T04:15:01.420501Z,0.974407,0.379114,-0.034109
2019-05-23T04:15:01.459501Z,1.143759,0.648354,0.643122
2019-05-23T04:15:01.498501Z,0.996334,0.9268649999999999,0.965363
2019-05-23T04:15:01.539501Z,0.9767440000000001,0.8241459999999999,0.9839700000000001
2019-05-23T04:15:01.593501Z,0.984118,1.060345,0.641155
2019-05-23T04:15:01.620501Z,0.759885,0.9449049999999999,0.42082200000000003
2019-05-23T04:15:01.658501Z,0.70281,0.922117,0.41702700000000004
2019-05-23T04:15:01.701501Z,0.602499,-0.666876,2.996864
2019-05-23T04:15:01.738501Z,0.313726,-1.5383799999999999,0.92961
2019-05-23T04:15:01.779501Z,0.382482,-1.60636,0.958694
2019-05-23T04:15:01.820501Z,-0.299158,-1.448073,-1.2960530000000001
2019-05-23T04:15:01.859501Z,0.20909499999999998,-1.292042,-0.683954
2019-05-23T04:15:01.900501Z,0.186865,-1.181201,-0.711176
2019-05-23T04:15:01.939501Z,1.083783,-0.8671909999999999,-0.21519899999999997
2019-05-23T04:15:01.978501Z,0.6858770000000001,-0.21591999999999997,-0.9369649999999999
2019-05-23T04:15:02.019501Z,0.64313,-0.15215599999999999,-0.9466049999999999
2019-05-23T04:15:02.061501Z,0.6771590000000001,-0.17325,-0.317912
2019-05-23T04:15:02.100501Z,1.049775,0.138787,-0.033356
2019-05-23T04:15:02.139501Z,1.0870790000000001,0.11856199999999999,-0.025332
2019-05-23T04:15:02.179501Z,1.483643,0.571531,0.758393
2019-05-23T04:15:02.220501Z,1.386741,0.151816,1.784101
2019-05-23T04:15:02.261501Z,1.204668,-0.008697,1.822615
2019-05-23T04:15:02.300501Z,1.6071440000000001,0.180576,0.551038
2019-05-23T04:15:02.341501Z,1.972289,-0.6084689999999999,1.830068
2019-05-23T04:15:02.379501Z,1.9936189999999998,-0.661362,1.8265770000000001
2019-05-23T04:15:02.420501Z,1.528175,-1.291126,1.111465
2019-05-23T04:15:02.460501Z,1.746102,-1.3878469999999998,-0.61846
2019-05-23T04:15:02.500501Z,1.699152,-1.3530469999999999,-0.613111
2019-05-23T04:15:02.539501Z,2.328662,-1.611635,-0.046488999999999996
2019-05-23T04:15:02.580501Z,2.128721,-1.275414,-0.17508900000000002
2019-05-23T04:15:02.656501Z,2.205865,-1.294789,-0.156882
2019-05-23T04:15:02.669501Z,2.1610720000000003,-0.786461,-1.054733
2019-05-23T04:15:02.701501Z,1.661848,-0.26219499999999996,-0.7328279999999999
2019-05-23T04:15:02.739501Z,1.655403,-0.260432,-0.7196779999999999
2019-05-23T04:15:02.780501Z,1.8771099999999998,0.010794,-0.199876
2019-05-23T04:15:02.820501Z,1.6966860000000001,-0.057498,1.065877
2019-05-23T04:15:02.860501Z,1.569628,-0.072746,1.059252
2019-05-23T04:15:02.901501Z,1.3595760000000001,-0.167759,1.94927
2019-05-23T04:15:02.940501Z,0.523309,0.10456700000000001,0.693797
2019-05-23T04:15:02.985501Z,0.38396399999999997,0.047716,0.715992
2019-05-23T04:15:03.020501Z,0.045964,-0.776461,2.655298
2019-05-23T04:15:03.060501Z,0.765741,-2.099282,1.814831
2019-05-23T04:15:03.104501Z,0.704072,-2.245909,1.8915099999999998
2019-05-23T04:15:03.140501Z,0.164461,-1.7672310000000002,-0.824549
2019-05-23T04:15:03.179501Z,0.9139520000000001,-1.6849740000000002,-1.054471
2019-05-23T04:15:03.220501Z,0.8844190000000001,-1.62422,-1.0538040000000002
2019-05-23T04:15:03.260501Z,0.230027,-1.473606,-0.692211
2019-05-23T04:15:03.300501Z,-0.394619,-1.021478,0.061988999999999995
2019-05-23T04:15:03.340501Z,-0.344329,-1.07911,0.09762
2019-05-23T04:15:03.381501Z,-0.15679200000000001,-0.35582199999999997,-0.02317
2019-05-23T04:15:03.420501Z,-0.600241,0.31845,-0.505621
2019-05-23T04:15:03.460501Z,-0.506919,0.335338,-0.518121
2019-05-23T04:15:03.504501Z,-0.6637850000000001,0.258422,0.121245
2019-05-23T04:15:03.541501Z,-0.5932270000000001,0.42304200000000003,0.784165
2019-05-23T04:15:03.582501Z,-0.564017,0.39348099999999997,0.7827149999999999
2019-05-23T04:15:03.622501Z,-0.054426999999999996,0.7017399999999999,1.623681
2019-05-23T04:15:03.663501Z,0.67916,0.782112,1.101723
2019-05-23T04:15:03.702501Z,0.705205,0.753671,1.090226
2019-05-23T04:15:03.741501Z,-0.066229,-0.47445299999999996,1.9784439999999999
2019-05-23T04:15:03.782501Z,0.212088,-2.00605,1.8058919999999998
2019-05-23T04:15:03.822501Z,0.264842,-2.237604,1.946402
2019-05-23T04:15:03.861501Z,0.371143,-1.5418120000000002,-1.848888
2019-05-23T04:15:03.900501Z,0.33484200000000003,-1.7126419999999998,-0.890684
2019-05-23T04:15:04.001501Z,0.307195,-1.543434,-0.9627290000000001
2019-05-23T04:15:04.002501Z,0.486378,-1.459732,0.6413270000000001
2019-05-23T04:15:04.035501Z,-0.224137,-0.709705,-1.103049
2019-05-23T04:15:04.063501Z,-0.22561599999999998,-0.640126,-1.119118
2019-05-23T04:15:04.100501Z,0.024884,-0.15168900000000002,-1.0235049999999999
2019-05-23T04:15:04.141501Z,0.438087,0.033339999999999995,-0.10877200000000001
2019-05-23T04:15:04.181501Z,0.5244270000000001,0.051984,-0.124374
2019-05-23T04:15:04.222501Z,0.138094,0.547817,0.48485500000000004
2019-05-23T04:15:04.261501Z,-0.499015,0.842249,0.376857
2019-05-23T04:15:04.302501Z,-0.42326099999999994,0.787694,0.391953
2019-05-23T04:15:04.376501Z,-0.49181400000000003,0.601445,1.2401790000000001
2019-05-23T04:15:04.382501Z,0.102657,0.609503,0.611009
2019-05-23T04:15:04.421501Z,0.053530999999999995,0.590201,0.6082529999999999
2019-05-23T04:15:04.462501Z,0.10493399999999999,0.143067,0.09930800000000001
2019-05-23T04:15:04.502501Z,-0.190476,-1.199216,1.993775
2019-05-23T04:15:04.542501Z,-0.148789,-1.236799,1.992819
2019-05-23T04:15:04.582501Z,-0.24775300000000003,-1.681646,1.114498
2019-05-23T04:15:04.622501Z,0.351216,-1.655055,0.209885
2019-05-23T04:15:04.662501Z,0.397861,-1.7425419999999998,0.27560500000000004
2019-05-23T04:15:04.702501Z,1.024549,-1.5054319999999999,-0.260263
2019-05-23T04:15:04.742501Z,1.205691,-1.198933,-1.192988
2019-05-23T04:15:04.783501Z,1.371145,-1.196633,-1.162777
2019-05-23T04:15:04.823501Z,0.926472,-0.952097,-1.1692049999999998
2019-05-23T04:15:04.864501Z,0.397854,-0.5164449999999999,-0.595665
2019-05-23T04:15:04.900501Z,0.509633,-0.444445,-0.6193029999999999
2019-05-23T04:15:04.992501Z,0.24688400000000002,0.243444,0.650454
2019-05-23T04:15:04.993501Z,1.474138,0.5825560000000001,1.477085
2019-05-23T04:15:05.025501Z,1.205098,0.5028560000000001,1.4891889999999999
2019-05-23T04:15:05.061501Z,3.4911730000000003,-0.17341099999999998,3.459378
2019-05-23T04:15:05.101501Z,3.552,-1.861044,2.493855
2019-05-23T04:15:05.142501Z,3.6750629999999997,-1.8066740000000001,2.43961
2019-05-23T04:15:05.182501Z,2.498775,-3.3692949999999997,3.2002479999999998
2019-05-23T04:15:05.222501Z,3.3314559999999998,-4.717489,3.380258
2019-05-23T04:15:05.262501Z,3.126734,-4.6808879999999995,3.3535809999999997
2019-05-23T04:15:05.303501Z,3.401012,-5.460926000000001,1.910353
2019-05-23T04:15:05.376501Z,2.610775,-5.500817,1.474545
2019-05-23T04:15:05.383501Z,2.4264,-5.421259,1.469997
2019-05-23T04:15:05.422501Z,1.897777,-4.519475,1.663505
2019-05-23T04:15:05.464501Z,1.064184,-3.093152,1.181505
2019-05-23T04:15:05.503501Z,1.115637,-2.996554,1.1289719999999999
2019-05-23T04:15:05.543501Z,-0.10358800000000001,-2.49245,1.2626979999999999
2019-05-23T04:15:05.583501Z,-0.107438,-1.362183,0.580974
2019-05-23T04:15:05.623501Z,-0.109877,-1.29274,0.547096
2019-05-23T04:15:05.663501Z,1.835533,-0.475387,0.043588
2019-05-23T04:15:05.703501Z,2.448198,-0.918665,0.717435
2019-05-23T04:15:05.743501Z,2.428236,-0.8706,0.6879460000000001
2019-05-23T04:15:05.784501Z,1.062235,-1.582482,2.215777
2019-05-23T04:15:05.824501Z,-0.619291,-1.488156,1.704452
2019-05-23T04:15:05.883501Z,-0.722262,-1.605399,1.7637060000000002
2019-05-23T04:15:05.902501Z,-0.787846,-1.406072,1.340302
2019-05-23T04:15:05.945501Z,-1.145171,-1.9363689999999998,1.325149
2019-05-23T04:15:05.983501Z,-1.012032,-1.983097,1.336184
2019-05-23T04:15:06.023501Z,-1.06184,-2.0237279999999997,0.638165
2019-05-23T04:15:06.063501Z,-0.263264,-1.677963,-1.106643
2019-05-23T04:15:06.103501Z,-0.072154,-1.7021279999999999,-1.062535
2019-05-23T04:15:06.142501Z,-0.129578,-0.965525,-1.706273
2019-05-23T04:15:06.182501Z,-0.234116,-0.460143,-0.245459
2019-05-23T04:15:06.246501Z,-0.150175,-0.451977,-0.24079
2019-05-23T04:15:06.276501Z,0.07624700000000001,-0.101417,0.932989
2019-05-23T04:15:06.302501Z,-0.23449699999999998,0.3875,0.801441
2019-05-23T04:15:06.342501Z,-0.286348,0.348817,0.804866
2019-05-23T04:15:06.383501Z,-0.435354,0.10865699999999999,1.381035
2019-05-23T04:15:06.423501Z,0.78441,-0.736132,1.510118
2019-05-23T04:15:06.463501Z,0.77382,-0.665407,1.4526700000000001
2019-05-23T04:15:06.503501Z,0.392246,-1.92498,2.56542
2019-05-23T04:15:06.544501Z,0.306464,-1.9381509999999997,0.67309
2019-05-23T04:15:06.606501Z,0.29585700000000004,-1.892167,0.654307
2019-05-23T04:15:06.623501Z,0.142375,-2.11475,-0.245504
2019-05-23T04:15:06.663501Z,0.284509,-1.920122,-1.296576
2019-05-23T04:15:06.703501Z,0.324491,-1.828326,-1.305133
2019-05-23T04:15:06.744501Z,0.285723,-1.417141,-0.8256620000000001
2019-05-23T04:15:06.784501Z,-0.05906,-0.8178810000000001,-0.348871
2019-05-23T04:15:06.823501Z,-0.12150699999999999,-0.6976720000000001,-0.397737
2019-05-23T04:15:06.864501Z,-0.122802,-0.577642,0.607649
2019-05-23T04:15:06.904501Z,-0.28097300000000003,-0.305061,0.6732130000000001
2019-05-23T04:15:06.943501Z,-0.330959,-0.229336,0.628727
2019-05-23T04:15:06.983501Z,0.103375,-0.08921,1.213806
2019-05-23T04:15:07.025501Z,0.28875100000000004,0.055412,1.320344
2019-05-23T04:15:07.065501Z,0.33978200000000003,-0.045569,1.345444
2019-05-23T04:15:07.105501Z,-0.349172,0.521518,0.150381
2019-05-23T04:15:07.145501Z,-0.8174100000000001,-0.026402999999999996,0.692973
2019-05-23T04:15:07.184501Z,-0.902552,0.13478099999999998,0.614585
2019-05-23T04:15:07.225501Z,-0.682591,-1.1082670000000001,1.107157
2019-05-23T04:15:07.265501Z,-0.5329550000000001,-1.193494,-0.490701
2019-05-23T04:15:07.305501Z,-0.554355,-1.3201399999999999,-0.41839899999999997
2019-05-23T04:15:07.346501Z,-0.287448,-0.91745,-1.589337
2019-05-23T04:15:07.385501Z,-0.01255,-0.5645479999999999,-0.700191
2019-05-23T04:15:07.423501Z,0.07862899999999999,-0.491175,-0.7157979999999999
2019-05-23T04:15:07.464501Z,0.690721,-0.27411399999999997,-0.6948529999999999
2019-05-23T04:15:07.543501Z,0.6198060000000001,-0.034009,0.66484
2019-05-23T04:15:07.543501Z,0.6316729999999999,-0.12048199999999999,0.690913
2019-05-23T04:15:07.586501Z,0.9392659999999999,0.216821,0.149608
2019-05-23T04:15:07.623501Z,0.514192,0.31947600000000004,1.463694
2019-05-23T04:15:07.664501Z,0.41808500000000004,0.32145,1.436566
2019-05-23T04:15:07.704501Z,1.6070309999999999,0.166221,1.3446559999999999
2019-05-23T04:15:07.745501Z,1.29928,-1.30072,3.4685669999999997
2019-05-23T04:15:07.784501Z,1.266441,-1.42579,3.4705160000000004
2019-05-23T04:15:07.823501Z,1.998749,-1.383636,0.047228
2019-05-23T04:15:07.865501Z,1.549411,-1.191712,-1.340483
2019-05-23T04:15:07.904501Z,1.565749,-1.1596819999999999,-1.324196
2019-05-23T04:15:07.944501Z,1.389053,-1.353667,-0.382856
2019-05-23T04:15:07.984501Z,1.2890190000000001,-0.796115,-1.015617
2019-05-23T04:15:08.024501Z,1.346819,-0.82245,-0.982243
2019-05-23T04:15:08.067501Z,0.819451,-0.130917,-0.463037
2019-05-23T04:15:08.104501Z,0.795718,-0.054176,0.444984
2019-05-23T04:15:08.144501Z,0.919791,-0.088887,0.454848
2019-05-23T04:15:08.187501Z,0.441583,0.260206,0.474729
2019-05-23T04:15:08.224501Z,0.048156,0.305897,-0.608514
2019-05-23T04:15:08.264501Z,0.021172,0.413627,-0.648115
2019-05-23T04:15:08.305501Z,0.536732,0.028373000000000002,1.242628
2019-05-23T04:15:08.344501Z,0.282224,0.222775,0.5610229999999999
2019-05-23T04:15:08.385501Z,0.254186,0.211236,0.554542
2019-05-23T04:15:08.425501Z,-0.887173,-0.650617,0.337967
2019-05-23T04:15:08.467501Z,0.143763,-1.563296,1.6746330000000003
2019-05-23T04:15:08.506501Z,0.216758,-1.5074530000000002,1.634665
2019-05-23T04:15:08.547501Z,0.13769800000000001,-1.556625,0.794189
2019-05-23T04:15:08.586501Z,0.535713,-1.267527,-0.565819
2019-05-23T04:15:08.625501Z,0.684995,-1.287167,-0.536606
2019-05-23T04:15:08.667501Z,0.44226800000000005,-0.921319,-1.562423
2019-05-23T04:15:08.707501Z,0.172703,-0.262447,-1.491588
2019-05-23T04:15:08.745501Z,0.12005199999999999,-0.129181,-1.521124
2019-05-23T04:15:08.786501Z,-0.33660300000000004,0.42187600000000003,-1.544209
2019-05-23T04:15:08.857501Z,0.584899,0.38081,1.220802
2019-05-23T04:15:08.878501Z,0.6040260000000001,0.440909,1.1771260000000001
2019-05-23T04:15:08.909501Z,-0.49477299999999996,0.712713,0.449093
2019-05-23T04:15:08.945501Z,-0.07964700000000001,0.283557,1.775525
2019-05-23T04:15:08.985501Z,-0.11000499999999999,0.29332199999999997,1.74115
2019-05-23T04:15:09.025501Z,0.5108050000000001,0.28270700000000004,0.46012700000000006
2019-05-23T04:15:09.065501Z,0.492908,-1.406561,3.037371
2019-05-23T04:15:09.106501Z,0.577394,-1.681484,3.085276
2019-05-23T04:15:09.147501Z,0.290269,-1.4009719999999999,-0.825349
2019-05-23T04:15:09.198501Z,0.363342,-1.1942190000000001,-0.620933
2019-05-23T04:15:09.225501Z,0.304035,-1.178312,-0.6097090000000001
2019-05-23T04:15:09.268501Z,0.224475,-1.111781,0.36691999999999997
2019-05-23T04:15:09.305501Z,0.9358200000000001,-0.962802,-1.452134
2019-05-23T04:15:09.345501Z,1.039124,-0.9945209999999999,-1.408299
2019-05-23T04:15:09.387501Z,0.26932399999999995,-0.34032399999999996,-1.9233630000000002
2019-05-23T04:15:09.425501Z,-0.024117,0.27799,-0.656745
2019-05-23T04:15:09.465501Z,-0.06514299999999999,0.35620999999999997,-0.678017
2019-05-23T04:15:09.506501Z,-0.395084,0.8645450000000001,-0.144746
2019-05-23T04:15:09.547501Z,-0.171768,0.6944229999999999,1.6572
2019-05-23T04:15:09.586501Z,-0.24666300000000002,0.7392350000000001,1.612617
2019-05-23T04:15:09.626501Z,0.08979,0.549779,2.766285
2019-05-23T04:15:09.667501Z,-0.229859,0.6201979999999999,0.595322
2019-05-23T04:15:09.708501Z,-0.25340799999999997,0.572857,0.599928
2019-05-23T04:15:09.747501Z,-0.23035,-0.48673999999999995,0.350609
2019-05-23T04:15:09.788501Z,-0.42411000000000004,-1.715771,1.374292
2019-05-23T04:15:09.828501Z,-0.319361,-1.82358,1.40062
2019-05-23T04:15:09.867501Z,-0.242902,-1.3448309999999999,-1.2954370000000002
2019-05-23T04:15:09.908501Z,0.136177,-0.9979629999999999,-1.2129590000000001
2019-05-23T04:15:09.946501Z,0.044886,-0.8252860000000001,-1.247072
2019-05-23T04:15:10.045501Z,0.139732,-0.42140500000000003,-1.478444
2019-05-23T04:15:10.047501Z,0.063831,0.006957,-0.701489
2019-05-23T04:15:10.079501Z,0.038406,0.065261,-0.707403
2019-05-23T04:15:10.106501Z,-0.110001,0.394447,-0.20902300000000001
2019-05-23T04:15:10.146501Z,0.6166739999999999,0.7461479999999999,-0.150365
2019-05-23T04:15:10.188501Z,0.724348,0.727128,-0.14773
2019-05-23T04:15:10.227501Z,0.418979,0.747871,0.12074800000000001
2019-05-23T04:15:10.266501Z,0.006206000000000001,0.368658,1.5099870000000002
2019-05-23T04:15:10.307501Z,-0.010511,0.23166399999999998,1.527472
2019-05-23T04:15:10.346501Z,0.544612,0.503339,0.19991099999999998
2019-05-23T04:15:10.402501Z,-0.17002,-0.686392,2.360725
2019-05-23T04:15:10.428501Z,0.03915,-0.932797,2.418187
2019-05-23T04:15:10.466501Z,0.356777,-1.145545,0.009712
2019-05-23T04:15:10.506501Z,-0.36335100000000004,-0.751276,-1.0801530000000001
2019-05-23T04:15:10.546501Z,-0.469711,-0.595891,-1.121785
2019-05-23T04:15:10.587501Z,0.26658200000000004,-1.4045159999999999,0.415522
2019-05-23T04:15:10.626501Z,0.7643979999999999,-1.2862280000000001,-0.451128
2019-05-23T04:15:10.667501Z,0.722709,-1.220326,-0.460821
2019-05-23T04:15:10.708501Z,0.46041000000000004,-0.223636,-2.265186
2019-05-23T04:15:10.747501Z,0.414091,0.139434,-0.7843479999999999
2019-05-23T04:15:10.787501Z,0.319601,0.235832,-0.804316
2019-05-23T04:15:10.827501Z,0.077402,0.385878,0.747217
2019-05-23T04:15:10.870501Z,0.403807,0.684502,0.792241
2019-05-23T04:15:10.908501Z,0.31440300000000004,0.589596,0.804623
2019-05-23T04:15:10.948501Z,0.716743,0.627989,1.177355
2019-05-23T04:15:10.988501Z,0.212736,0.326896,2.104355
2019-05-23T04:15:11.029501Z,0.263393,0.06161900000000001,2.16709
2019-05-23T04:15:11.068501Z,-0.48272,0.659875,0.09686399999999999
2019-05-23T04:15:11.108501Z,-0.722953,-0.409469,1.328457
2019-05-23T04:15:11.148501Z,-0.5893109999999999,-0.528886,1.356614
2019-05-23T04:15:11.231501Z,-0.8966729999999999,-1.6580110000000001,0.556954
2019-05-23T04:15:11.232501Z,-0.676409,-1.582478,-1.0285549999999999
2019-05-23T04:15:11.267501Z,-0.674139,-1.6215,-0.9814149999999999
2019-05-23T04:15:11.307501Z,0.04515,-1.125836,-1.1748809999999998
2019-05-23T04:15:11.347501Z,0.26616799999999996,-0.690752,-1.5954780000000002
2019-05-23T04:15:11.415501Z,0.299322,-0.62667,-1.592295
2019-05-23T04:15:11.429501Z,0.29936999999999997,-0.045311000000000004,-1.008509
2019-05-23T04:15:11.467501Z,-0.055778999999999995,0.6166729999999999,-0.46116599999999996
2019-05-23T04:15:11.507501Z,-0.10597899999999999,0.623645,-0.460434
2019-05-23T04:15:11.548501Z,0.049943,0.805517,0.157497
2019-05-23T04:15:11.593501Z,0.320318,0.945749,-0.14357899999999998
2019-05-23T04:15:11.628501Z,0.286621,0.9318709999999999,-0.141742
2019-05-23T04:15:11.668501Z,0.43459899999999996,0.677343,1.098759
2019-05-23T04:15:11.709501Z,0.38271,0.8508610000000001,0.647511
2019-05-23T04:15:11.749501Z,0.397433,0.9076620000000001,0.6044649999999999
2019-05-23T04:15:11.787501Z,0.061315999999999996,-0.441963,1.276493
2019-05-23T04:15:11.828501Z,0.281777,-1.320162,0.706437
2019-05-23T04:15:11.868501Z,0.281147,-1.3363180000000001,0.7118720000000001
2019-05-23T04:15:11.911501Z,-0.058212,-1.112814,-0.6652319999999999
2019-05-23T04:15:11.948501Z,0.161047,-1.186498,-0.331065
2019-05-23T04:15:11.988501Z,0.193683,-1.143091,-0.335885
2019-05-23T04:15:12.027501Z,0.20056600000000002,-0.676127,-0.964901
2019-05-23T04:15:12.068501Z,0.107118,-0.148259,-2.394833
2019-05-23T04:15:12.163501Z,0.171239,0.03827,-2.427035
2019-05-23T04:15:12.163501Z,0.162355,0.178488,-0.528482
2019-05-23T04:15:12.192501Z,-0.081023,0.485393,0.067415
2019-05-23T04:15:12.228501Z,-0.152712,0.496192,0.05894
2019-05-23T04:15:12.268501Z,0.104199,0.63917,0.490766
2019-05-23T04:15:12.308501Z,0.274729,0.780284,0.42070100000000005
2019-05-23T04:15:12.349501Z,0.266797,0.776875,0.41018999999999994
2019-05-23T04:15:12.389501Z,0.170173,0.8872700000000001,1.1770120000000002
2019-05-23T04:15:12.430501Z,0.07798300000000001,0.695214,0.8362
2019-05-23T04:15:12.469501Z,0.08107400000000001,0.7541899999999999,0.796327
2019-05-23T04:15:12.521501Z,-0.7674479999999999,-0.783592,2.7542150000000003
2019-05-23T04:15:12.549501Z,-0.872714,-1.305532,-0.077155
2019-05-23T04:15:12.589501Z,-0.9724520000000001,-1.321767,-0.060588
2019-05-23T04:15:12.629501Z,-1.0413629999999998,-0.899993,-1.5070219999999999
2019-05-23T04:15:12.669501Z,-0.11126199999999999,-1.004801,-0.632125
2019-05-23T04:15:12.713501Z,-0.185452,-0.8297049999999999,-0.671887
2019-05-23T04:15:12.749501Z,0.22946399999999997,-0.551708,-0.055804999999999993
2019-05-23T04:15:12.789501Z,0.222284,-0.17468499999999998,-0.749141
2019-05-23T04:15:12.828501Z,0.212062,-0.156839,-0.741114
2019-05-23T04:15:12.916501Z,-0.321861,0.104826,-0.8858940000000001
2019-05-23T04:15:12.916501Z,-0.606955,0.41448199999999996,0.200602
2019-05-23T04:15:12.951501Z,-0.673145,0.301781,0.23893699999999998
2019-05-23T04:15:12.988501Z,-0.750422,0.723911,0.573533
2019-05-23T04:15:13.029501Z,-0.476113,1.024247,0.563627
2019-05-23T04:15:13.071501Z,-0.5421560000000001,0.96214,0.577433
2019-05-23T04:15:13.109501Z,-0.6073649999999999,0.64722,1.7288860000000001
2019-05-23T04:15:13.150501Z,-1.059623,-0.585681,1.7072060000000002
2019-05-23T04:15:13.189501Z,-1.097658,-0.68834,1.730864
2019-05-23T04:15:13.230501Z,-1.34144,-1.9550990000000001,1.10008
2019-05-23T04:15:13.269501Z,-1.475241,-1.332591,-1.5493350000000001
2019-05-23T04:15:13.310501Z,-1.482502,-1.206808,-1.566522
2019-05-23T04:15:13.350501Z,-1.1090659999999999,-1.9190900000000002,-0.013693
2019-05-23T04:15:13.388501Z,-1.258143,-1.462018,0.173952
2019-05-23T04:15:13.430501Z,-1.059303,-1.403727,0.152274
2019-05-23T04:15:13.469501Z,-0.661067,-0.674646,-0.606615
2019-05-23T04:15:13.510501Z,-0.751158,-0.422304,-0.798484
2019-05-23T04:15:13.550501Z,-0.6394529999999999,-0.250241,-0.843427
2019-05-23T04:15:13.589501Z,-0.023021,-0.285192,-0.033775
2019-05-23T04:15:13.630501Z,0.313892,-0.090177,0.923578
2019-05-23T04:15:13.670501Z,0.36071,-0.08396100000000001,0.9091370000000001
2019-05-23T04:15:13.714501Z,0.531438,0.23337199999999997,0.6031529999999999
2019-05-23T04:15:13.751501Z,0.8299989999999999,0.131368,0.7891199999999999
2019-05-23T04:15:13.790501Z,0.8446459999999999,0.032789,0.809946
2019-05-23T04:15:13.832501Z,1.246936,-0.192991,1.159742
2019-05-23T04:15:13.870501Z,0.890683,-0.217467,0.461552
2019-05-23T04:15:13.909501Z,0.96283,-0.162082,0.44039399999999995
2019-05-23T04:15:13.949501Z,0.665552,-0.865992,1.635506
2019-05-23T04:15:13.990501Z,0.48481899999999994,-0.992145,0.5380189999999999
2019-05-23T04:15:14.032501Z,0.6294029999999999,-1.072095,0.5855630000000001
2019-05-23T04:15:14.069501Z,0.36491999999999997,-0.9111379999999999,-1.126215
2019-05-23T04:15:14.110501Z,0.912974,-0.628564,-0.971447
2019-05-23T04:15:14.154501Z,0.905925,-0.582893,-0.96731
2019-05-23T04:15:14.190501Z,1.130887,-0.13280799999999998,-0.361011
2019-05-23T04:15:14.230501Z,1.179149,0.254387,-0.325894
2019-05-23T04:15:14.269501Z,1.190539,0.20094,-0.297408
2019-05-23T04:15:14.310501Z,0.760724,0.509885,-0.601538
2019-05-23T04:15:14.350501Z,1.09913,0.973626,-0.467559
2019-05-23T04:15:14.392501Z,1.042846,0.9636049999999999,-0.466534
2019-05-23T04:15:14.432501Z,1.703511,1.12716,0.30401
2019-05-23T04:15:14.470501Z,1.211582,1.06457,-0.815625
2019-05-23T04:15:14.549501Z,1.183753,1.059891,-0.808057
2019-05-23T04:15:14.551501Z,0.7797029999999999,0.746859,0.49266499999999996
2019-05-23T04:15:14.589501Z,0.27163899999999996,1.007847,0.635843
2019-05-23T04:15:14.630501Z,0.079318,0.9925370000000001,0.6096659999999999
2019-05-23T04:15:14.670501Z,0.556143,0.30486199999999997,0.839558
2019-05-23T04:15:14.711501Z,0.888645,-1.079164,2.191596
2019-05-23T04:15:14.751501Z,0.9066549999999999,-1.0762770000000002,2.161502
2019-05-23T04:15:14.792501Z,1.128375,-0.988244,-0.097548
2019-05-23T04:15:14.834501Z,0.779971,-1.159208,-0.072245
2019-05-23T04:15:14.871501Z,0.7493890000000001,-1.140914,-0.071074
2019-05-23T04:15:14.911501Z,1.042065,-1.1840709999999999,-0.036278
2019-05-23T04:15:14.950501Z,1.38846,-0.641694,-1.043739
2019-05-23T04:15:14.991501Z,1.432061,-0.625872,-1.0270920000000001
2019-05-23T04:15:15.030501Z,1.243846,-0.074646,-1.279039
2019-05-23T04:15:15.079501Z,1.183274,0.313819,-0.96204
2019-05-23T04:15:15.110501Z,1.301375,0.457531,-0.9889129999999999
2019-05-23T04:15:15.154501Z,0.94475,0.569225,-0.532086
2019-05-23T04:15:15.190501Z,0.83834,1.064642,0.039064
2019-05-23T04:15:15.233501Z,0.788447,1.062346,0.032145
2019-05-23T04:15:15.270501Z,1.010333,1.0900219999999998,0.558883
2019-05-23T04:15:15.311501Z,1.0695780000000001,1.113913,0.9912139999999999
2019-05-23T04:15:15.351501Z,0.9597950000000001,0.9848459999999999,1.008722
2019-05-23T04:15:15.392501Z,1.074232,0.537945,1.989171
2019-05-23T04:15:15.431501Z,0.427126,-0.274855,1.9847689999999998
2019-05-23T04:15:15.471501Z,0.395468,-0.46698900000000004,2.027468
2019-05-23T04:15:15.511501Z,0.14893699999999999,-0.745436,1.025772
2019-05-23T04:15:15.552501Z,0.161028,-1.269893,0.077311
2019-05-23T04:15:15.593501Z,0.24141999999999997,-1.446742,0.166047
2019-05-23T04:15:15.633501Z,0.04775,-1.5383,-0.479188
2019-05-23T04:15:15.673501Z,0.591797,-1.0911549999999999,-1.635658
2019-05-23T04:15:15.711501Z,0.744069,-0.948556,-1.6635779999999998
2019-05-23T04:15:15.805501Z,-0.35328000000000004,-0.079625,-1.5250629999999998
2019-05-23T04:15:15.807501Z,0.63568,-0.284056,-0.184944
2019-05-23T04:15:15.846501Z,0.612066,-0.17995899999999998,-0.225863
2019-05-23T04:15:15.871501Z,0.214229,0.358528,-0.808832
2019-05-23T04:15:15.911501Z,-0.002075,0.595407,-0.44283900000000004
2019-05-23T04:15:15.952501Z,0.081051,0.7009989999999999,-0.477274
2019-05-23T04:15:15.992501Z,-0.144218,0.816732,0.48845500000000003
2019-05-23T04:15:16.032501Z,0.400411,0.575106,0.9594020000000001
2019-05-23T04:15:16.071501Z,0.323417,0.593488,0.9305969999999999
2019-05-23T04:15:16.111501Z,0.885525,0.49222200000000005,0.981606
2019-05-23T04:15:16.163501Z,0.7978069999999999,0.48693100000000006,0.9626459999999999
2019-05-23T04:15:16.191501Z,1.1751280000000002,0.094071,0.556376
2019-05-23T04:15:16.231501Z,0.9161229999999999,-0.924002,1.4507649999999999
2019-05-23T04:15:16.273501Z,0.8822629999999999,-1.0358100000000001,1.4760389999999999
2019-05-23T04:15:16.312501Z,0.663313,-0.728015,-0.464499
2019-05-23T04:15:16.354501Z,0.6702600000000001,-0.9362309999999999,-0.12548399999999998
2019-05-23T04:15:16.392501Z,0.690336,-0.953297,-0.110794
2019-05-23T04:15:16.432501Z,0.682825,-0.781596,-0.240154
2019-05-23T04:15:16.473501Z,0.5217149999999999,-0.252106,-1.532352
2019-05-23T04:15:16.513501Z,0.496147,-0.214083,-1.5197129999999999
2019-05-23T04:15:16.553501Z,0.257883,0.046345,-1.012697
2019-05-23T04:15:16.594501Z,0.680312,-0.071404,-0.554279
2019-05-23T04:15:16.634501Z,0.677873,-0.076196,-0.542776
2019-05-23T04:15:16.674501Z,0.040857,0.417549,-0.185081
2019-05-23T04:15:16.713501Z,0.379808,0.919852,0.27704
2019-05-23T04:15:16.752501Z,0.41600600000000004,0.839151,0.299207
2019-05-23T04:15:16.793501Z,0.22351300000000002,1.431921,-0.011333
2019-05-23T04:15:16.869501Z,0.402138,1.135691,0.722903
2019-05-23T04:15:16.883501Z,0.46875500000000003,0.97591,0.771656
2019-05-23T04:15:16.912501Z,0.673808,0.739566,1.081783
2019-05-23T04:15:16.954501Z,-0.543246,0.21015100000000003,0.164297
2019-05-23T04:15:16.993501Z,-0.631315,0.213152,0.160821
2019-05-23T04:15:17.033501Z,-0.067299,-1.506427,1.9181860000000002
2019-05-23T04:15:17.073501Z,-0.182747,-1.273297,-0.967126
2019-05-23T04:15:17.113501Z,-0.271751,-1.146951,-0.993592
2019-05-23T04:15:17.154501Z,-0.045627,-0.834311,-1.188635
2019-05-23T04:15:17.193501Z,0.193641,-0.9136040000000001,-0.46861099999999994
2019-05-23T04:15:17.247501Z,0.256341,-0.8195790000000001,-0.49205699999999997
2019-05-23T04:15:17.273501Z,0.320781,-0.363224,-0.129545
2019-05-23T04:15:17.312501Z,0.16356500000000002,0.04651,-0.998498
2019-05-23T04:15:17.357501Z,0.113528,0.150256,-1.014947
2019-05-23T04:15:17.394501Z,0.115725,0.12696500000000002,-0.241173
2019-05-23T04:15:17.432501Z,0.219941,0.29030300000000003,0.71833
2019-05-23T04:15:17.472501Z,0.341375,0.278831,0.705583
2019-05-23T04:15:17.513501Z,0.48127299999999995,0.6272800000000001,-0.062583
2019-05-23T04:15:17.554501Z,0.421939,0.691983,1.1724430000000001
2019-05-23T04:15:17.593501Z,0.422818,0.509732,1.2124110000000001
2019-05-23T04:15:17.633501Z,0.30441599999999996,0.796933,0.974899
2019-05-23T04:15:17.673501Z,0.362099,0.44592,0.7499899999999999
2019-05-23T04:15:17.713501Z,0.35103,0.386972,0.757343
2019-05-23T04:15:17.755501Z,-0.46854399999999996,-1.175801,2.211989
2019-05-23T04:15:17.795501Z,0.723167,-1.184139,-0.107985
2019-05-23T04:15:17.835501Z,0.767097,-1.1193629999999999,-0.124596
2019-05-23T04:15:17.875501Z,0.404735,-1.269204,-0.051939
2019-05-23T04:15:17.913501Z,0.6031380000000001,-1.365521,0.156541
2019-05-23T04:15:18.009501Z,0.6624770000000001,-1.350747,0.16001400000000002
2019-05-23T04:15:18.011501Z,0.396513,-0.301125,-1.829796
2019-05-23T04:15:18.039501Z,0.565059,0.012631,-1.8662
2019-05-23T04:15:18.073501Z,0.534053,0.128457,-1.881199
2019-05-23T04:15:18.113501Z,0.194969,0.326031,-0.7093229999999999
2019-05-23T04:15:18.154501Z,-0.010928,0.51699,-0.515533
2019-05-23T04:15:18.194501Z,-0.043706,0.574503,-0.531337
2019-05-23T04:15:18.234501Z,0.0155,0.730741,0.253641
2019-05-23T04:15:18.273501Z,0.173769,1.192288,0.015246000000000001
2019-05-23T04:15:18.314501Z,0.180874,1.16309,0.018593000000000002
2019-05-23T04:15:18.354501Z,-0.019163,1.155765,0.188173
2019-05-23T04:15:18.393501Z,-0.47735299999999997,1.007847,0.997725
2019-05-23T04:15:18.435501Z,-0.503023,0.95655,0.9933770000000001
2019-05-23T04:15:18.474501Z,0.0045509999999999995,0.677515,0.139544
2019-05-23T04:15:18.514501Z,-0.49202700000000005,-0.596431,2.7889150000000003
2019-05-23T04:15:18.554501Z,-0.492126,-0.770487,2.810197
2019-05-23T04:15:18.594501Z,-0.16811199999999998,-1.537434,1.10076
2019-05-23T04:15:18.634501Z,-0.222931,-1.375643,-1.070411
2019-05-23T04:15:18.674501Z,-0.292958,-1.421365,-1.019807
2019-05-23T04:15:18.714501Z,0.059660000000000005,-1.143181,-1.111335
2019-05-23T04:15:18.755501Z,0.213302,-0.527319,-0.577956
2019-05-23T04:15:18.795501Z,0.30220199999999997,-0.50243,-0.5799479999999999
2019-05-23T04:15:18.836501Z,0.10448299999999999,0.025112,-0.42031499999999994
2019-05-23T04:15:18.877501Z,-0.058299000000000004,0.211387,-0.852107
2019-05-23T04:15:18.914501Z,0.026583,0.219702,-0.8447690000000001
2019-05-23T04:15:18.955501Z,-0.059940999999999994,0.41501899999999997,-1.117449
2019-05-23T04:15:19.049501Z,-0.201574,0.776014,-0.012373
2019-05-23T04:15:19.051501Z,-0.218056,0.774355,-0.016513
2019-05-23T04:15:19.080501Z,0.413631,0.865749,-0.067616
2019-05-23T04:15:19.114501Z,0.17771099999999998,0.652349,1.2300229999999999
2019-05-23T04:15:19.154501Z,0.132149,0.6088180000000001,1.224713
2019-05-23T04:15:19.195501Z,0.44667799999999996,0.9047149999999999,0.14765599999999998
2019-05-23T04:15:19.235501Z,0.630016,-0.028494,1.429175
2019-05-23T04:15:19.274501Z,0.7467689999999999,-0.059664,1.410567
2019-05-23T04:15:19.315501Z,0.887632,-0.581555,1.6025040000000002
2019-05-23T04:15:19.355501Z,0.797004,-0.513369,-0.656451
2019-05-23T04:15:19.410501Z,0.818394,-0.519877,-0.640929
2019-05-23T04:15:19.435501Z,0.709507,-1.1602139999999999,0.005116
2019-05-23T04:15:19.479501Z,0.619827,-0.9601129999999999,-0.494017
2019-05-23T04:15:19.514501Z,0.610846,-0.9478139999999999,-0.484308
2019-05-23T04:15:19.556501Z,0.441679,-0.190625,-1.890363
2019-05-23T04:15:19.595501Z,0.17963900000000002,0.164537,-0.956564
2019-05-23T04:15:19.634501Z,0.040894,0.24394200000000002,-0.96406
2019-05-23T04:15:19.678501Z,0.401839,0.332356,-0.358732
2019-05-23T04:15:19.715501Z,0.393691,0.776894,-0.21050500000000003
2019-05-23T04:15:19.755501Z,0.45703599999999994,0.7261569999999999,-0.19836600000000001
2019-05-23T04:15:19.795501Z,0.527978,0.728068,0.5301130000000001
2019-05-23T04:15:19.836501Z,-0.069234,0.933601,0.118208
2019-05-23T04:15:19.877501Z,0.003356,0.798559,0.15703599999999998
2019-05-23T04:15:19.915501Z,0.44363500000000006,0.739791,1.114399
2019-05-23T04:15:19.956501Z,-0.032583999999999995,-0.008036,0.860087
2019-05-23T04:15:19.997501Z,0.083017,-0.034628,0.8542620000000001
2019-05-23T04:15:20.036501Z,-0.204882,-1.230621,2.352824
2019-05-23T04:15:20.080501Z,-0.256873,-1.098438,-0.5547489999999999
2019-05-23T04:15:20.116501Z,-0.24766300000000002,-1.0623790000000002,-0.552702
2019-05-23T04:15:20.155501Z,0.027425,-0.768896,-0.642582
2019-05-23T04:15:20.196501Z,0.096738,-0.748808,-0.210248
2019-05-23T04:15:20.295501Z,0.153825,-0.7135729999999999,-0.213154
2019-05-23T04:15:20.297501Z,0.130999,-0.120368,-1.294615
2019-05-23T04:15:20.315501Z,-0.368645,0.250731,-1.7621419999999999
2019-05-23T04:15:20.357501Z,-0.557394,0.43518100000000004,-1.807378
2019-05-23T04:15:20.395501Z,-0.722968,0.749927,-0.791806
2019-05-23T04:15:20.436501Z,-0.121072,0.394122,0.307051
2019-05-23T04:15:20.476501Z,-0.146057,0.392061,0.300572
2019-05-23T04:15:20.516501Z,0.16012300000000002,0.06578099999999999,0.6044039999999999
2019-05-23T04:15:20.557501Z,0.316515,0.49509,0.8223590000000001
2019-05-23T04:15:20.596501Z,0.20976999999999998,0.472268,0.817809
2019-05-23T04:15:20.655501Z,1.207515,0.5423,0.29041999999999996
2019-05-23T04:15:20.675501Z,0.611262,-0.6162810000000001,2.8275810000000003
2019-05-23T04:15:20.716501Z,0.888496,-0.774712,2.831773
2019-05-23T04:15:20.757501Z,0.650551,-1.044842,0.95463
2019-05-23T04:15:20.797501Z,-0.272561,-0.8293950000000001,-0.780153
2019-05-23T04:15:20.835501Z,-0.22249699999999997,-0.8632620000000001,-0.747833
2019-05-23T04:15:20.877501Z,-0.095934,-1.060349,-0.283607
2019-05-23T04:15:20.917501Z,0.005613,-0.790437,-0.896976
2019-05-23T04:15:20.956501Z,0.014261000000000001,-0.8248489999999999,-0.86239
2019-05-23T04:15:20.997501Z,-0.473995,-0.135407,-1.6546610000000002
2019-05-23T04:15:21.036501Z,0.06471,-0.020378999999999998,-0.652514
2019-05-23T04:15:21.077501Z,0.051511,-0.035817,-0.635783
2019-05-23T04:15:21.117501Z,-0.018585,0.354761,-0.182068
2019-05-23T04:15:21.156501Z,-0.12526400000000001,0.642648,0.19073199999999998
2019-05-23T04:15:21.198501Z,-0.217023,0.606248,0.195704
2019-05-23T04:15:21.237501Z,-0.329789,0.638213,0.273968
2019-05-23T04:15:21.278501Z,-0.399471,0.671266,0.987926
2019-05-23T04:15:21.318501Z,-0.364707,0.532157,1.029311
2019-05-23T04:15:21.358501Z,-0.819114,0.292376,0.7895909999999999
2019-05-23T04:15:21.397501Z,-1.9913759999999998,-0.541094,1.7627669999999998
2019-05-23T04:15:21.437501Z,-1.8493009999999999,-0.640142,1.7840580000000001
2019-05-23T04:15:21.478501Z,-1.255858,-1.308458,0.446366
2019-05-23T04:15:21.516501Z,-1.143608,-1.447735,-1.276082
2019-05-23T04:15:21.557501Z,-0.9948549999999999,-1.2959319999999999,-1.3115219999999999
2019-05-23T04:15:21.644501Z,-1.542932,-1.1124209999999999,-0.9325469999999999
2019-05-23T04:15:21.645501Z,-0.743876,-0.894493,-0.330271
2019-05-23T04:15:21.678501Z,-0.526721,-0.7305520000000001,-0.366668
2019-05-23T04:15:21.716501Z,-0.874484,-0.41688800000000004,-1.193181
2019-05-23T04:15:21.756501Z,-0.790503,-0.059208000000000004,-0.725759
2019-05-23T04:15:21.797501Z,-0.721308,0.043817,-0.744089
2019-05-23T04:15:21.837501Z,0.142751,0.103775,0.268748
2019-05-23T04:15:21.877501Z,0.6239640000000001,0.368682,0.8500709999999999
2019-05-23T04:15:21.917501Z,0.681476,0.347609,0.853707
2019-05-23T04:15:21.958501Z,0.95962,0.680296,0.05472899999999999
2019-05-23T04:15:22.007501Z,0.973569,0.894086,-0.01764
2019-05-23T04:15:22.037501Z,1.018489,0.814195,0.019328
2019-05-23T04:15:22.077501Z,1.1951889999999998,0.698497,0.49699499999999996
2019-05-23T04:15:22.117501Z,0.629095,0.524489,0.764386
2019-05-23T04:15:22.158501Z,0.836775,0.49224399999999996,0.812438
2019-05-23T04:15:22.198501Z,-0.29143800000000003,-1.289784,2.03987
2019-05-23T04:15:22.238501Z,-0.09488200000000001,-1.2209459999999999,0.023522
2019-05-23T04:15:22.277501Z,-0.11726700000000001,-1.2851700000000001,0.053889
2019-05-23T04:15:22.317501Z,0.557267,-1.3250469999999999,-0.431939
2019-05-23T04:15:22.395501Z,0.780417,-0.48858999999999997,-0.563141
2019-05-23T04:15:22.407501Z,0.819441,-0.379467,-0.582531
2019-05-23T04:15:22.438501Z,1.196006,-0.249176,-0.869835
2019-05-23T04:15:22.477501Z,0.5552819999999999,0.034033,-0.631387
2019-05-23T04:15:22.517501Z,0.400659,0.087386,-0.679509
2019-05-23T04:15:22.558501Z,0.724421,0.668666,-0.8898510000000001
2019-05-23T04:15:22.597501Z,1.225749,1.005032,-0.995151
2019-05-23T04:15:22.639501Z,1.1674790000000002,1.070972,-1.016241
2019-05-23T04:15:22.678501Z,1.692409,1.077545,0.29984099999999997
2019-05-23T04:15:22.734501Z,1.960247,1.112643,1.038861
2019-05-23T04:15:22.757501Z,2.228748,1.004792,1.130971
2019-05-23T04:15:22.798501Z,1.620768,0.680344,1.075567
2019-05-23T04:15:22.839501Z,1.1308,0.8810040000000001,1.3262260000000001
2019-05-23T04:15:22.877501Z,1.1788969999999999,0.811605,1.346871
2019-05-23T04:15:22.960501Z,0.631648,1.438499,-0.104422
2019-05-23T04:15:22.961501Z,-0.21918,0.58008,1.453743
2019-05-23T04:15:22.997501Z,-0.245344,0.542071,1.43292
2019-05-23T04:15:23.037501Z,-0.450114,-1.1614229999999999,1.142151
2019-05-23T04:15:23.079501Z,-0.269392,-1.415466,-0.970675
2019-05-23T04:15:23.119501Z,-0.34238,-1.363253,-0.9843379999999999
2019-05-23T04:15:23.158501Z,0.138509,-1.007788,-1.3945299999999998
2019-05-23T04:15:23.199501Z,0.543379,-0.393737,-0.5976020000000001
2019-05-23T04:15:23.238501Z,0.48484700000000003,-0.312565,-0.625257
2019-05-23T04:15:23.280501Z,1.029871,-0.24079699999999998,-0.445575
2019-05-23T04:15:23.318501Z,0.123697,0.014662,-0.775825
2019-05-23T04:15:23.361501Z,-0.125769,0.07896,-0.826109
2019-05-23T04:15:23.399501Z,-0.448601,0.6847949999999999,-1.343874
2019-05-23T04:15:23.438501Z,0.681412,0.658431,0.396005
2019-05-23T04:15:23.477501Z,0.571746,0.599993,0.396646
2019-05-23T04:15:23.518501Z,0.416022,0.766334,1.087609
2019-05-23T04:15:23.558501Z,1.008566,0.558341,1.08186
2019-05-23T04:15:23.598501Z,1.021654,0.44070699999999996,1.104579
2019-05-23T04:15:23.639501Z,1.689354,0.727767,-0.014006999999999999
2019-05-23T04:15:23.679501Z,0.539706,-0.420637,1.661032
2019-05-23T04:15:23.720501Z,0.651252,-0.599665,1.7045759999999999
2019-05-23T04:15:23.761501Z,1.019725,-1.26641,1.257623
2019-05-23T04:15:23.801501Z,0.984875,-1.176882,-0.300061
2019-05-23T04:15:23.840501Z,1.138598,-1.2258149999999999,-0.250814
2019-05-23T04:15:23.881501Z,1.231004,-1.133652,-0.5031100000000001
2019-05-23T04:15:23.920501Z,1.075421,-0.701447,-0.743185
2019-05-23T04:15:23.958501Z,1.193235,-0.718643,-0.694901
2019-05-23T04:15:24.055501Z,0.42298500000000006,0.10968900000000001,-1.890883
2019-05-23T04:15:24.056501Z,0.584879,0.44653100000000007,-0.14876199999999998
2019-05-23T04:15:24.086501Z,0.47877299999999995,0.46852,-0.174653
2019-05-23T04:15:24.119501Z,0.08028400000000001,0.827995,-0.40033
2019-05-23T04:15:24.159501Z,0.421443,1.1412790000000002,-0.674675
2019-05-23T04:15:24.199501Z,0.321996,1.201091,-0.702691
2019-05-23T04:15:24.239501Z,1.302965,0.700814,1.1996149999999999
2019-05-23T04:15:24.278501Z,0.45974499999999996,1.07188,2.425544
2019-05-23T04:15:24.318501Z,0.303971,1.053531,2.3732330000000004
2019-05-23T04:15:24.361501Z,-0.069316,0.566547,0.108623
2019-05-23T04:15:24.399501Z,-0.44407700000000006,-1.135225,1.982259
2019-05-23T04:15:24.439501Z,-0.42027,-1.214553,1.987888
2019-05-23T04:15:24.513501Z,-0.702209,-1.956869,-0.146738
2019-05-23T04:15:24.522501Z,-0.9526120000000001,-1.324527,-1.39959
2019-05-23T04:15:24.559501Z,-1.224172,-1.319644,-1.3578139999999999
2019-05-23T04:15:24.599501Z,-0.188132,-1.074059,-0.283425
2019-05-23T04:15:24.639501Z,0.21156999999999998,-0.9994649999999999,0.476221
2019-05-23T04:15:24.680501Z,0.27832399999999996,-0.993712,0.467884
2019-05-23T04:15:24.720501Z,0.233828,-0.000729,-1.6606889999999999
2019-05-23T04:15:24.760501Z,0.337394,0.5766640000000001,-1.4092120000000001
2019-05-23T04:15:24.800501Z,0.43455600000000005,0.62361,-1.41394
2019-05-23T04:15:24.840501Z,0.702925,1.007299,-0.6798930000000001
2019-05-23T04:15:24.880501Z,1.331059,1.155721,-0.406805
2019-05-23T04:15:24.921501Z,1.446317,1.199316,-0.42381199999999997
2019-05-23T04:15:24.961501Z,0.9004459999999999,0.9260079999999999,1.043156
2019-05-23T04:15:25.001501Z,0.798229,0.665008,1.6197030000000001
2019-05-23T04:15:25.041501Z,0.7736460000000001,0.62854,1.602291
2019-05-23T04:15:25.082501Z,0.058724,-0.028017,1.944663
2019-05-23T04:15:25.120501Z,0.829184,-1.6326370000000001,1.409125
2019-05-23T04:15:25.164501Z,0.9808379999999999,-1.70655,1.4371180000000001
2019-05-23T04:15:25.200501Z,1.275188,-1.212971,-0.44863500000000006
2019-05-23T04:15:25.243501Z,0.103147,-0.786536,-0.30546100000000004
2019-05-23T04:15:25.279501Z,0.166159,-0.7136,-0.318875
2019-05-23T04:15:25.365501Z,0.12773900000000002,-0.6947760000000001,-1.021676
2019-05-23T04:15:25.367501Z,0.7513,-0.217081,-1.0147059999999999
2019-05-23T04:15:25.406501Z,0.637564,-0.154271,-1.030222
2019-05-23T04:15:25.440501Z,0.209878,0.276617,-1.268312
2019-05-23T04:15:25.480501Z,0.864468,0.320929,-0.052684
2019-05-23T04:15:25.521501Z,0.8761059999999999,0.28171799999999997,-0.037643
2019-05-23T04:15:25.561501Z,1.242008,0.612255,0.036918
2019-05-23T04:15:25.601501Z,0.47929499999999997,1.330652,-0.10391800000000001
2019-05-23T04:15:25.639501Z,0.511642,1.356192,-0.117675
2019-05-23T04:15:25.686501Z,-0.647515,1.30234,0.468555
2019-05-23T04:15:25.722501Z,-0.715605,1.23265,1.222891
2019-05-23T04:15:25.760501Z,-0.934357,1.300016,1.167764
2019-05-23T04:15:25.800501Z,0.061911,0.321844,-0.47693199999999997
2019-05-23T04:15:25.844501Z,0.024165,-1.0925479999999999,2.0532169999999996
2019-05-23T04:15:25.880501Z,0.077488,-1.1978950000000002,2.057624
2019-05-23T04:15:25.920501Z,0.47216099999999994,-1.4894379999999998,0.575384
2019-05-23T04:15:25.960501Z,0.36017899999999997,-0.96465,-1.586488
2019-05-23T04:15:26.001501Z,0.254292,-0.9690049999999999,-1.547425
2019-05-23T04:15:26.040501Z,0.20036400000000001,-0.938358,-0.130457
2019-05-23T04:15:26.081501Z,0.649683,-0.496112,-0.677367
2019-05-23T04:15:26.122501Z,0.7021270000000001,-0.487734,-0.6687029999999999
2019-05-23T04:15:26.162501Z,0.112251,0.095719,-1.153075
2019-05-23T04:15:26.201501Z,0.21811999999999998,0.199966,-0.627211
2019-05-23T04:15:26.243501Z,0.34483,0.14044500000000001,-0.5997399999999999
2019-05-23T04:15:26.282501Z,0.159145,0.598236,0.19879000000000002
2019-05-23T04:15:26.323501Z,0.0868,0.635663,0.7242529999999999
2019-05-23T04:15:26.362501Z,0.058536000000000005,0.6010840000000001,0.72178
2019-05-23T04:15:26.403501Z,0.332839,0.6236689999999999,1.631185
2019-05-23T04:15:26.443501Z,0.589721,0.5598810000000001,0.742524
2019-05-23T04:15:26.482501Z,0.590527,0.6344810000000001,0.699707
2019-05-23T04:15:26.522501Z,0.420519,-0.8573040000000001,1.8582599999999998
2019-05-23T04:15:26.562501Z,0.419853,-0.8824569999999999,-0.484358
2019-05-23T04:15:26.602501Z,0.462279,-0.8663489999999999,-0.47670100000000004
2019-05-23T04:15:26.643501Z,-0.029202999999999996,-1.06039,-0.418605
2019-05-23T04:15:26.685501Z,-0.053578999999999995,-1.03646,-0.6138100000000001
2019-05-23T04:15:26.724501Z,0.047704,-1.0266600000000001,-0.598001
2019-05-23T04:15:26.761501Z,-0.235339,-0.49071000000000004,-1.429678
2019-05-23T04:15:26.847501Z,-0.568607,-0.1314,-1.553001
2019-05-23T04:15:26.849501Z,-0.648029,-0.032632,-1.563891
2019-05-23T04:15:26.883501Z,-1.355564,0.252855,-0.288908
2019-05-23T04:15:26.921501Z,-1.330508,0.23861100000000002,0.951916
2019-05-23T04:15:26.961501Z,-1.444734,0.190999,0.9516959999999999
2019-05-23T04:15:27.001501Z,-1.116061,-0.512316,1.48104
2019-05-23T04:15:27.042501Z,-0.785266,-0.44691800000000004,-0.21010500000000001
2019-05-23T04:15:27.082501Z,-0.868741,-0.240852,-0.26860300000000004
2019-05-23T04:15:27.122501Z,-1.5435370000000002,-1.123517,1.290162
2019-05-23T04:15:27.162501Z,-1.295309,-1.559398,1.3313760000000001
2019-05-23T04:15:27.204501Z,-1.094594,-1.569697,1.320937
2019-05-23T04:15:27.242501Z,-1.57531,-0.997983,-0.421597
2019-05-23T04:15:27.284501Z,-1.295859,-1.028748,-0.34799800000000003
2019-05-23T04:15:27.322501Z,-1.1244370000000001,-0.952069,-0.354653
2019-05-23T04:15:27.362501Z,-0.159467,-1.126384,0.38296399999999997
2019-05-23T04:15:27.403501Z,-0.374023,-0.391999,-0.124207
2019-05-23T04:15:27.442501Z,-0.255644,-0.369504,-0.117226
2019-05-23T04:15:27.483501Z,0.19784100000000002,-0.128684,0.130903
2019-05-23T04:15:27.523501Z,0.581052,0.27468400000000004,0.09701
2019-05-23T04:15:27.562501Z,0.631374,0.382258,0.073573
2019-05-23T04:15:27.602501Z,0.635829,1.084834,-0.038894
2019-05-23T04:15:27.643501Z,1.136695,0.785922,1.297631
2019-05-23T04:15:27.685501Z,1.206401,0.65717,1.314808
2019-05-23T04:15:27.724501Z,1.1747530000000002,0.60121,0.691004
2019-05-23T04:15:27.764501Z,0.950443,0.405729,0.60624
2019-05-23T04:15:27.804501Z,1.019678,0.424548,0.599797
2019-05-23T04:15:27.844501Z,1.384916,-0.8783139999999999,1.896684
2019-05-23T04:15:27.884501Z,1.687338,-1.328662,0.53766
2019-05-23T04:15:27.924501Z,1.657432,-1.412917,0.558705
2019-05-23T04:15:27.963501Z,1.418605,-1.05818,-0.893439
2019-05-23T04:15:28.004501Z,1.279552,-0.7281880000000001,-1.452739
2019-05-23T04:15:28.043501Z,1.261127,-0.667149,-1.442121
2019-05-23T04:15:28.082501Z,1.500982,-0.056061,-1.790631
2019-05-23T04:15:28.182501Z,1.341766,0.46564399999999995,-1.7381900000000001
2019-05-23T04:15:28.183501Z,1.3343399999999999,0.557044,-1.7306860000000002
2019-05-23T04:15:28.203501Z,1.017336,0.34547,0.8577809999999999
2019-05-23T04:15:28.243501Z,0.5036189999999999,0.68998,0.810261
2019-05-23T04:15:28.283501Z,0.332673,0.537187,0.817803
2019-05-23T04:15:28.323501Z,0.8468200000000001,0.729506,0.071427
2019-05-23T04:15:28.364501Z,1.308685,0.8815280000000001,0.34875700000000004
2019-05-23T04:15:28.403501Z,1.316538,0.742771,0.379789
2019-05-23T04:15:28.444501Z,1.228927,0.570293,1.2713079999999999
2019-05-23T04:15:28.482501Z,0.364626,0.335635,0.417519
2019-05-23T04:15:28.544501Z,0.303989,0.259187,0.431087
2019-05-23T04:15:28.562501Z,0.255961,-0.932952,2.984139
2019-05-23T04:15:28.603501Z,0.489663,-1.2247860000000002,0.5142680000000001
2019-05-23T04:15:28.643501Z,0.538499,-1.20146,0.508624
2019-05-23T04:15:28.684501Z,0.161609,-1.320997,-0.613853
2019-05-23T04:15:28.722501Z,0.146652,-1.012465,-0.980742
2019-05-23T04:15:28.763501Z,0.10968599999999999,-0.945543,-0.9837959999999999
2019-05-23T04:15:28.803501Z,0.252979,-0.622146,-0.646351
2019-05-23T04:15:28.843501Z,0.48546000000000006,-0.44191199999999997,-0.20219
2019-05-23T04:15:28.885501Z,0.37237800000000004,-0.465236,-0.1933
2019-05-23T04:15:28.923501Z,0.773533,-0.45125699999999996,-0.327513
2019-05-23T04:15:28.965501Z,0.45594300000000004,0.236157,-0.391198
2019-05-23T04:15:29.005501Z,0.38311799999999996,0.232629,-0.38613000000000003
2019-05-23T04:15:29.044501Z,0.364742,0.651825,-0.082399
2019-05-23T04:15:29.085501Z,0.44738900000000004,0.8138,-0.337967
2019-05-23T04:15:29.124501Z,0.386088,0.832052,-0.34283
2019-05-23T04:15:29.166501Z,0.454769,0.76437,0.18466400000000002
2019-05-23T04:15:29.205501Z,0.732941,0.535596,0.884459
2019-05-23T04:15:29.245501Z,0.628229,0.561234,0.859964
2019-05-23T04:15:29.287501Z,1.030676,-0.053083000000000005,0.310714
2019-05-23T04:15:29.326501Z,0.395786,-1.2845389999999999,2.6701200000000003
2019-05-23T04:15:29.366501Z,0.46154799999999996,-1.426648,2.676733
2019-05-23T04:15:29.404501Z,0.195854,-1.188058,-0.199045
2019-05-23T04:15:29.444501Z,-0.310526,-1.1889370000000001,-0.48286999999999997
2019-05-23T04:15:29.533501Z,-0.184123,-1.127222,-0.48865200000000003
2019-05-23T04:15:29.534501Z,-0.458095,-1.150001,-0.216523
2019-05-23T04:15:29.566501Z,-0.720418,-0.640077,-0.52366
2019-05-23T04:15:29.603501Z,-0.718336,-0.5750770000000001,-0.5316350000000001
2019-05-23T04:15:29.643501Z,-0.659424,-0.281362,-0.927639
2019-05-23T04:15:29.683501Z,-0.759065,-0.48343400000000003,-0.06603099999999999
2019-05-23T04:15:29.725501Z,-0.7133109999999999,-0.407331,-0.08304600000000001
2019-05-23T04:15:29.765501Z,-0.445607,-0.931739,0.921364
2019-05-23T04:15:29.804501Z,-0.40636300000000003,-1.169119,0.9952489999999999
2019-05-23T04:15:29.844501Z,-0.31319600000000003,-1.168585,0.987883
2019-05-23T04:15:29.915501Z,-0.663138,-0.912407,-0.154385
2019-05-23T04:15:29.924501Z,-0.703811,-1.8209549999999999,1.591381
2019-05-23T04:15:29.965501Z,-0.667841,-1.853639,1.582143
2019-05-23T04:15:30.004501Z,0.043617,-1.501162,0.546545
2019-05-23T04:15:30.044501Z,0.8696950000000001,-0.7340760000000001,-0.677297
2019-05-23T04:15:30.083501Z,1.0080870000000002,-0.649745,-0.672523
2019-05-23T04:15:30.125501Z,1.235855,-0.652172,-0.031226999999999998
2019-05-23T04:15:30.165501Z,0.575871,-0.120342,-0.156851
2019-05-23T04:15:30.204501Z,0.659275,-0.15531199999999998,-0.136249
2019-05-23T04:15:30.244501Z,1.1012899999999999,0.185584,-0.161726
2019-05-23T04:15:30.287501Z,1.158933,0.135463,1.5360200000000002
2019-05-23T04:15:30.325501Z,1.227797,-0.260852,1.648111
2019-05-23T04:15:30.364501Z,1.349478,0.40596,-0.49314300000000005
2019-05-23T04:15:30.404501Z,1.07847,1.289666,-0.631817
2019-05-23T04:15:30.444501Z,1.115265,1.2096,-0.594155
2019-05-23T04:15:30.485501Z,1.501458,0.912687,1.337908
2019-05-23T04:15:30.525501Z,1.208779,1.069461,-0.18148599999999998
2019-05-23T04:15:30.565501Z,1.090982,1.2172120000000002,-0.247813
2019-05-23T04:15:30.606501Z,0.517875,0.299091,0.745741
2019-05-23T04:15:30.646501Z,0.247538,-1.218125,2.228177
2019-05-23T04:15:30.686501Z,0.159597,-1.33338,2.229285
2019-05-23T04:15:30.726501Z,0.672636,-1.6711619999999998,0.142997
2019-05-23T04:15:30.767501Z,0.30482600000000004,-1.894439,-0.5348930000000001
2019-05-23T04:15:30.807501Z,0.20855300000000002,-1.908323,-0.5142260000000001
2019-05-23T04:15:30.847501Z,0.695607,-1.6650509999999998,-0.585176
2019-05-23T04:15:30.886501Z,0.962527,-0.698152,-1.495032
2019-05-23T04:15:30.927501Z,1.0055690000000002,-0.587978,-1.4995889999999998
2019-05-23T04:15:30.967501Z,1.0421,-0.18739,-1.224012
2019-05-23T04:15:31.007501Z,0.8742409999999999,-0.180917,0.355862
2019-05-23T04:15:31.048501Z,0.842449,-0.239765,0.36828099999999997
2019-05-23T04:15:31.088501Z,0.174252,-0.177608,1.013254
2019-05-23T04:15:31.125501Z,-0.346853,0.115578,0.112176
2019-05-23T04:15:31.215501Z,-0.38336,0.054341999999999994,0.12958599999999998
2019-05-23T04:15:31.217501Z,-0.19247,0.180596,0.077024
2019-05-23T04:15:31.264501Z,-0.127925,0.066735,0.6280439999999999
2019-05-23T04:15:31.285501Z,-0.133911,-0.040606,0.655148
2019-05-23T04:15:31.325501Z,-0.45361599999999996,-0.136184,0.5759340000000001
2019-05-23T04:15:31.366501Z,-0.187471,-0.9249940000000001,0.459891
2019-05-23T04:15:31.406501Z,-0.017846,-0.8373209999999999,0.42928999999999995
2019-05-23T04:15:31.447501Z,-1.129553,-2.381541,3.2808339999999996
2019-05-23T04:15:31.488501Z,-1.311453,-2.448409,-0.8689540000000001
2019-05-23T04:15:31.526501Z,-1.253949,-2.34057,-0.875717
2019-05-23T04:15:31.588501Z,-1.1113629999999999,-2.091119,-0.9339649999999999
2019-05-23T04:15:31.606501Z,-0.328754,-2.019011,0.23971199999999998
2019-05-23T04:15:31.647501Z,-0.204468,-2.011749,0.255486
2019-05-23T04:15:31.688501Z,0.26988,-1.105966,-0.092237
2019-05-23T04:15:31.726501Z,0.43968500000000005,-0.25748000000000004,-0.1691
2019-05-23T04:15:31.767501Z,0.503875,-0.32609,-0.13356800000000002
2019-05-23T04:15:31.810501Z,1.048258,-0.07838200000000001,0.332156
2019-05-23T04:15:31.847501Z,0.912125,0.24546700000000002,0.32524000000000003
2019-05-23T04:15:31.889501Z,0.8314790000000001,0.129421,0.352427
2019-05-23T04:15:31.926501Z,0.439116,0.39871,0.484634
2019-05-23T04:15:31.966501Z,1.038068,0.217552,1.105084
2019-05-23T04:15:32.008501Z,0.9415680000000001,0.059085000000000006,1.142591
2019-05-23T04:15:32.048501Z,0.87623,0.04007,0.689389
2019-05-23T04:15:32.089501Z,0.271446,-0.226318,0.10564200000000001
2019-05-23T04:15:32.128501Z,0.333092,-0.20503200000000002,0.100984
2019-05-23T04:15:32.167501Z,0.34024899999999997,-0.929364,1.1745860000000001
2019-05-23T04:15:32.208501Z,0.872273,-1.164668,-0.177476
2019-05-23T04:15:32.248501Z,0.995584,-1.154179,-0.154433
2019-05-23T04:15:32.288501Z,0.7959930000000001,-1.1704649999999999,-0.704489
2019-05-23T04:15:32.330501Z,0.436391,-1.053245,-0.324294
2019-05-23T04:15:32.368501Z,0.455583,-1.021671,-0.321548
2019-05-23T04:15:32.410501Z,0.783201,-0.53291,-0.477236
2019-05-23T04:15:32.446501Z,0.26663400000000004,0.070701,-0.02069
2019-05-23T04:15:32.486501Z,0.191935,0.091846,-0.040291
2019-05-23T04:15:32.556501Z,0.23010100000000003,0.278961,-0.528971
2019-05-23T04:15:32.570501Z,0.641938,0.593693,-0.322334
2019-05-23T04:15:32.606501Z,0.473538,0.587232,-0.33267800000000003
2019-05-23T04:15:32.646501Z,1.134487,0.764207,0.26917800000000003
2019-05-23T04:15:32.686501Z,1.4691809999999998,0.782363,0.28548
2019-05-23T04:15:32.728501Z,1.40505,0.724208,0.298684
2019-05-23T04:15:32.768501Z,0.89243,0.4861,0.969558
2019-05-23T04:15:32.807501Z,0.514583,0.211684,0.081169
2019-05-23T04:15:32.848501Z,0.436734,0.349835,0.014469
2019-05-23T04:15:32.906501Z,0.33662800000000004,-1.076669,2.1026119999999997
2019-05-23T04:15:32.927501Z,1.5697370000000002,-2.08745,0.5805239999999999
2019-05-23T04:15:32.967501Z,1.507331,-2.049363,0.567789
2019-05-23T04:15:33.007501Z,0.9122040000000001,-1.138317,-1.108271
2019-05-23T04:15:33.048501Z,1.40903,-0.831419,0.166052
2019-05-23T04:15:33.087501Z,1.499969,-0.852618,0.182221
2019-05-23T04:15:33.127501Z,1.584233,-0.416451,0.029467
2019-05-23T04:15:33.167501Z,1.3567559999999999,-0.35238,-0.40618699999999996
2019-05-23T04:15:33.207501Z,1.525688,-0.44328900000000004,-0.342654
2019-05-23T04:15:33.247501Z,1.346235,-0.410329,-0.296702
2019-05-23T04:15:33.287501Z,0.7468779999999999,-0.059892999999999995,0.081117
2019-05-23T04:15:33.329501Z,0.8683360000000001,-0.20516500000000001,0.16899
2019-05-23T04:15:33.369501Z,0.814929,0.10333900000000001,0.5478270000000001
2019-05-23T04:15:33.409501Z,1.100466,0.46461800000000003,0.186172
2019-05-23T04:15:33.447501Z,1.148684,0.401627,0.225304
