Datetime,accx,accy,accz
2019-03-28T04:35:39.746651Z,0.0,0.0,0.0
2019-03-28T04:35:39.947651Z,0.035459,0.199757,0.006823999999999999
2019-03-28T04:35:40.149651Z,0.281375,0.273348,-0.023197
2019-03-28T04:35:40.351651Z,-0.45168400000000003,0.496791,-0.093086
2019-03-28T04:35:40.583651Z,-0.9094389999999999,0.298902,-0.44959499999999997
2019-03-28T04:35:40.785651Z,-0.8787379999999999,0.06953200000000001,0.035963
2019-03-28T04:35:40.987651Z,-0.607288,0.206118,-0.331013
2019-03-28T04:35:41.189651Z,-0.43206700000000003,0.13782,-0.101405
2019-03-28T04:35:41.392651Z,-0.26066999999999996,-1.093603,0.9753219999999999
2019-03-28T04:35:41.593651Z,0.379625,-1.004911,0.242062
2019-03-28T04:35:41.795651Z,0.18901199999999999,-0.410796,-0.215405
2019-03-28T04:35:41.997651Z,0.118985,0.013805000000000001,0.20515999999999998
2019-03-28T04:35:42.198651Z,0.617746,0.461588,0.19353299999999998
2019-03-28T04:35:42.401651Z,0.222221,-0.46893999999999997,0.209329
2019-03-28T04:35:42.603651Z,-0.9923049999999999,-1.203569,0.49156000000000005
2019-03-28T04:35:42.816651Z,-0.804022,-1.336722,0.743599
2019-03-28T04:35:43.019651Z,-0.8432219999999999,-1.400725,-0.124226
2019-03-28T04:35:43.231651Z,-0.6915359999999999,-0.792838,0.155193
2019-03-28T04:35:43.426651Z,-0.581183,-0.357078,-0.191694
2019-03-28T04:35:43.612651Z,-1.220815,0.362171,0.569063
2019-03-28T04:35:43.815651Z,-1.733228,-0.03642,0.214025
2019-03-28T04:35:44.016651Z,-1.4958879999999999,-0.9348139999999999,-0.497698
2019-03-28T04:35:44.218651Z,-0.996475,-0.966082,-0.360126
2019-03-28T04:35:44.421651Z,-1.1503139999999998,-0.241236,-0.161188
2019-03-28T04:35:44.621651Z,-0.893639,0.38258200000000003,0.199812
2019-03-28T04:35:44.823651Z,-1.454895,-0.280792,0.262939
2019-03-28T04:35:45.026651Z,-1.16987,0.03808,-0.231987
2019-03-28T04:35:45.227651Z,-0.707458,0.141599,0.115899
2019-03-28T04:35:45.429651Z,-0.25296399999999997,0.103255,-0.010451
2019-03-28T04:35:45.632651Z,-0.149775,0.209353,-0.26242600000000005
2019-03-28T04:35:45.833651Z,0.198877,0.058551,-0.110765
2019-03-28T04:35:46.035651Z,-0.084752,-0.008787,0.31049499999999997
2019-03-28T04:35:46.237651Z,-0.033092,-0.329967,0.141929
2019-03-28T04:35:46.439651Z,-0.800293,-0.4612,0.27066399999999996
2019-03-28T04:35:46.640651Z,-0.5536939999999999,-0.210115,-0.105618
2019-03-28T04:35:46.843651Z,-0.870712,0.117528,-0.079309
2019-03-28T04:35:47.044651Z,-0.8299340000000001,0.43021800000000004,0.30036599999999997
2019-03-28T04:35:47.246651Z,-0.393961,-0.102744,0.392315
2019-03-28T04:35:47.449651Z,-0.599742,-1.0679299999999998,0.583879
2019-03-28T04:35:47.650651Z,-0.248585,-0.378909,0.189692
2019-03-28T04:35:47.852651Z,-0.387287,-0.22999499999999998,-0.395735
2019-03-28T04:35:48.054651Z,-0.418671,0.078604,0.48190500000000003
2019-03-28T04:35:48.256651Z,-0.303798,-0.200562,0.288465
2019-03-28T04:35:48.457651Z,-0.651591,-0.355796,0.002052
2019-03-28T04:35:48.660651Z,-0.553814,-0.222108,-0.383705
2019-03-28T04:35:48.880651Z,-0.830325,-0.256249,0.496321
2019-03-28T04:35:49.064651Z,-0.12046199999999999,0.44239700000000004,0.05678
2019-03-28T04:35:49.267651Z,-0.211851,0.261281,-0.541683
2019-03-28T04:35:49.468651Z,0.039824,0.409479,-0.263372
2019-03-28T04:35:49.670651Z,-0.182118,0.291919,-0.41910200000000003
2019-03-28T04:35:49.872651Z,-0.010498,0.508411,0.011179999999999999
2019-03-28T04:35:50.073651Z,-0.600082,0.8381540000000001,0.32711999999999997
2019-03-28T04:35:50.275651Z,-0.95806,0.329997,0.44659899999999997
2019-03-28T04:35:50.477651Z,0.220937,0.066675,-0.132952
2019-03-28T04:35:50.678651Z,-0.145772,-0.000231,-0.07925499999999999
2019-03-28T04:35:50.882651Z,-0.453167,0.338621,-0.255893
2019-03-28T04:35:51.083651Z,-0.580334,0.8606450000000001,0.153167
2019-03-28T04:35:51.284651Z,-0.270491,0.166596,-0.25601199999999996
2019-03-28T04:35:51.486651Z,-0.799622,-0.036487,-0.085263
2019-03-28T04:35:51.688651Z,-0.666859,0.350115,-0.129643
2019-03-28T04:35:51.929651Z,-0.730503,0.536042,0.35367600000000005
2019-03-28T04:35:52.091651Z,-1.016943,0.372229,-0.950759
2019-03-28T04:35:52.294651Z,-0.6990390000000001,0.256998,-0.174454
2019-03-28T04:35:52.495651Z,-0.817723,0.354572,-0.372725
2019-03-28T04:35:52.698651Z,-0.716097,0.621967,-0.087101
2019-03-28T04:35:52.899651Z,-0.547479,0.39219499999999996,-0.027017000000000003
2019-03-28T04:35:53.101651Z,-0.48898500000000006,0.42595900000000003,0.0858
2019-03-28T04:35:53.303651Z,-0.20810399999999998,0.37055,-0.306588
2019-03-28T04:35:53.505651Z,-0.303129,0.424781,0.233388
2019-03-28T04:35:53.707651Z,-0.195773,-0.22609,-0.048162
2019-03-28T04:35:53.909651Z,0.193543,-0.777042,-0.401998
2019-03-28T04:35:54.111651Z,0.322205,-0.048889,-0.6288560000000001
2019-03-28T04:35:54.313651Z,0.184833,0.009127,-0.088805
2019-03-28T04:35:54.514651Z,0.388333,-0.040685,0.095581
2019-03-28T04:35:54.716651Z,0.223531,-0.521674,0.226287
2019-03-28T04:35:54.918651Z,0.113678,-0.449321,0.646075
2019-03-28T04:35:55.120651Z,0.122092,-0.188681,0.44733599999999996
2019-03-28T04:35:55.323651Z,-0.085899,-0.053547000000000004,-0.175008
2019-03-28T04:35:55.523651Z,-0.047894,-0.002578,0.210839
2019-03-28T04:35:55.725651Z,0.275382,-0.192356,-0.087167
2019-03-28T04:35:55.927651Z,0.546189,-0.166479,-0.426126
2019-03-28T04:35:56.130651Z,0.09036,-0.381735,-0.319324
2019-03-28T04:35:56.331651Z,0.30569,0.14573699999999998,0.06938899999999999
2019-03-28T04:35:56.533651Z,-0.22665,-0.055192,0.306803
2019-03-28T04:35:56.735651Z,0.159485,0.39774299999999996,-0.41517
2019-03-28T04:35:56.936651Z,-0.176835,0.170263,0.6369
2019-03-28T04:35:57.139651Z,-0.535058,-0.34556,0.275108
2019-03-28T04:35:57.341651Z,-0.534288,-0.315946,-0.304169
2019-03-28T04:35:57.542651Z,-0.8369549999999999,0.24566999999999997,-0.339444
2019-03-28T04:35:57.744651Z,-1.029815,0.795028,-0.09931799999999999
2019-03-28T04:35:57.946651Z,-0.712635,0.601392,-0.342803
2019-03-28T04:35:58.148651Z,-0.262508,-0.786241,0.145623
2019-03-28T04:35:58.351651Z,0.052849,-0.247811,-0.673049
2019-03-28T04:35:58.552651Z,0.588302,0.401361,-0.55386
2019-03-28T04:35:58.754651Z,0.09879500000000001,0.6624720000000001,0.251221
2019-03-28T04:35:58.956651Z,0.7192390000000001,0.445525,-0.384602
2019-03-28T04:35:59.158651Z,-0.319868,-0.6240939999999999,0.35041700000000003
2019-03-28T04:35:59.360651Z,-0.052890999999999994,-0.247457,-0.38865500000000003
2019-03-28T04:35:59.563651Z,0.23555900000000002,-0.157583,-0.095349
2019-03-28T04:35:59.763651Z,0.483311,0.411206,0.241094
2019-03-28T04:35:59.965651Z,0.043404000000000005,0.150016,0.292468
2019-03-28T04:36:00.167651Z,0.08426499999999999,0.27976799999999996,-0.202754
2019-03-28T04:36:00.369651Z,-0.042725,0.24549200000000002,0.078805
2019-03-28T04:36:00.571651Z,0.166049,0.301261,-0.191605
2019-03-28T04:36:00.773651Z,-0.153581,0.273411,-0.10465999999999999
2019-03-28T04:36:00.974651Z,-0.35749200000000003,0.371345,0.143619
2019-03-28T04:36:01.176651Z,-0.035274,-0.007712,0.12056900000000001
2019-03-28T04:36:01.379651Z,0.225715,-1.145484,-0.047161
2019-03-28T04:36:01.580651Z,0.833909,-0.496721,-0.017125
2019-03-28T04:36:01.782651Z,0.535475,-0.206252,-0.186685
2019-03-28T04:36:01.984651Z,0.538231,0.180754,-0.249319
2019-03-28T04:36:02.186651Z,0.391598,0.171191,0.132883
2019-03-28T04:36:02.388651Z,0.250607,-0.221065,-0.139903
2019-03-28T04:36:02.590651Z,-0.709222,-0.84249,0.580797
2019-03-28T04:36:02.791651Z,-1.033765,-0.45262399999999997,-0.095862
2019-03-28T04:36:02.993651Z,-0.7571359999999999,0.047539,0.567355
2019-03-28T04:36:03.196651Z,-0.755893,0.378471,-0.0032869999999999996
2019-03-28T04:36:03.397651Z,-1.217655,0.360579,0.20951999999999998
2019-03-28T04:36:03.599651Z,-0.545077,0.070875,0.11971
2019-03-28T04:36:03.801651Z,-0.129421,-0.50979,-0.022704
2019-03-28T04:36:04.003651Z,-0.502789,-0.153928,0.493992
2019-03-28T04:36:04.237651Z,-1.050602,0.083432,-0.439069
2019-03-28T04:36:04.407651Z,-1.035333,0.25065,0.408802
2019-03-28T04:36:04.608651Z,-1.218599,0.6029180000000001,-0.298815
2019-03-28T04:36:04.810651Z,-1.0697450000000002,0.42573900000000003,-0.177781
2019-03-28T04:36:05.012651Z,-0.559459,0.901725,-0.156472
2019-03-28T04:36:05.214651Z,-0.436853,0.995713,-0.433979
2019-03-28T04:36:05.416651Z,-0.33968200000000004,0.794891,-0.101268
2019-03-28T04:36:05.618651Z,-0.09252,0.523727,0.103439
2019-03-28T04:36:05.820651Z,-0.17888800000000002,0.015531,0.263182
2019-03-28T04:36:06.022651Z,-1.240306,-0.961717,0.392936
2019-03-28T04:36:06.225651Z,-1.3130700000000002,-0.474782,-0.36733299999999997
2019-03-28T04:36:06.425651Z,-0.509634,-0.030721,-0.316992
2019-03-28T04:36:06.627651Z,-0.983651,0.11925999999999999,-0.468883
2019-03-28T04:36:06.829651Z,-0.830594,0.614851,-0.180302
2019-03-28T04:36:07.031651Z,-0.8908870000000001,0.8582049999999999,-0.167543
2019-03-28T04:36:07.233651Z,-0.262382,-0.21297800000000003,0.119118
2019-03-28T04:36:07.435651Z,0.507654,-1.226788,0.176174
2019-03-28T04:36:07.637651Z,0.38806399999999996,-0.561884,-0.24904
2019-03-28T04:36:07.838651Z,-0.307975,-0.436913,0.169917
2019-03-28T04:36:08.040651Z,-0.021154,-0.16923,-0.297132
2019-03-28T04:36:08.242651Z,-0.070756,-0.14663900000000002,-0.417994
2019-03-28T04:36:08.443651Z,-0.070457,0.047032,0.032712
2019-03-28T04:36:08.647651Z,-0.058645,0.049612,-0.062246
2019-03-28T04:36:08.848651Z,-0.084079,-0.058245000000000005,-0.071514
2019-03-28T04:36:09.050651Z,0.07346799999999999,0.064286,-0.097179
2019-03-28T04:36:09.252651Z,-0.043727999999999996,-0.10064,0.094023
2019-03-28T04:36:09.453651Z,-0.14986300000000002,0.056040999999999994,0.09562999999999999
2019-03-28T04:36:09.655651Z,-0.270964,-0.130762,-0.207527
2019-03-28T04:36:09.857651Z,-0.11362799999999999,0.24205500000000002,0.154224
2019-03-28T04:36:10.059651Z,-0.12433699999999999,0.862567,-0.351952
2019-03-28T04:36:10.261651Z,0.143905,0.087162,0.073046
2019-03-28T04:36:10.463651Z,0.162078,-1.163909,0.509391
2019-03-28T04:36:10.664651Z,0.21095300000000003,-0.307386,-0.23017600000000002
2019-03-28T04:36:10.866651Z,0.107449,0.37719400000000003,0.0072180000000000005
2019-03-28T04:36:11.068651Z,0.24464899999999998,0.434812,-0.745242
2019-03-28T04:36:11.270651Z,0.679763,0.208533,-0.193833
2019-03-28T04:36:11.472651Z,-0.350436,-0.20980900000000002,0.018476
2019-03-28T04:36:11.674651Z,0.027942,-0.7762859999999999,-0.144932
2019-03-28T04:36:11.876651Z,-0.19758299999999998,-0.360309,0.603238
2019-03-28T04:36:12.113651Z,0.186095,-0.140618,-0.176182
2019-03-28T04:36:12.280651Z,0.064912,-0.08924299999999999,-0.01253
2019-03-28T04:36:12.481651Z,0.038154,-0.053319000000000005,0.17516800000000002
2019-03-28T04:36:12.683651Z,-0.032757,-0.163473,-0.20310799999999998
2019-03-28T04:36:12.885651Z,0.08820800000000001,0.13374,0.025237
2019-03-28T04:36:13.087651Z,-0.210168,0.077019,0.11491099999999999
2019-03-28T04:36:13.288651Z,-0.185229,0.348614,-0.22371999999999997
2019-03-28T04:36:13.491651Z,-0.303433,0.440068,0.708883
2019-03-28T04:36:13.692651Z,0.566144,-0.23698000000000002,-0.344168
2019-03-28T04:36:13.894651Z,1.145964,-0.265086,-0.6778569999999999
2019-03-28T04:36:14.096651Z,0.645746,0.170548,-0.082527
2019-03-28T04:36:14.298651Z,0.724544,0.45742700000000003,-0.287602
2019-03-28T04:36:14.499651Z,1.166607,0.47909799999999997,-0.336
2019-03-28T04:36:14.701651Z,1.125652,-1.103127,1.056111
2019-03-28T04:36:14.903651Z,0.31859299999999996,-0.802404,0.7358100000000001
2019-03-28T04:36:15.105651Z,0.10500699999999999,-0.433216,-1.241435
2019-03-28T04:36:15.307651Z,0.479279,-0.084311,0.492364
2019-03-28T04:36:15.509651Z,0.734973,0.019021,0.307158
2019-03-28T04:36:15.710651Z,0.919293,-0.675505,-0.020921000000000002
2019-03-28T04:36:15.913651Z,1.327518,-1.070483,0.023318000000000002
2019-03-28T04:36:16.115651Z,1.365159,-0.09264800000000001,0.831559
2019-03-28T04:36:16.356651Z,0.364512,-0.8317450000000001,0.36448
2019-03-28T04:36:16.518651Z,0.45683999999999997,-0.796676,0.48370799999999997
2019-03-28T04:36:16.720651Z,-0.156256,-0.6832520000000001,0.257209
2019-03-28T04:36:16.922651Z,-0.138653,-0.610421,0.049514999999999997
2019-03-28T04:36:17.124651Z,0.175306,-0.32389,0.399562
2019-03-28T04:36:17.325651Z,0.619978,-0.081954,-0.398041
2019-03-28T04:36:17.527651Z,-0.06641699999999999,-0.06482,-0.072285
2019-03-28T04:36:17.729651Z,-0.108903,-0.187359,0.7168329999999999
2019-03-28T04:36:17.931651Z,-0.06902,-0.960575,-0.21650999999999998
2019-03-28T04:36:18.133651Z,-0.789407,-0.6616770000000001,-0.24642199999999997
2019-03-28T04:36:18.335651Z,-0.829091,-0.45282700000000004,0.06528400000000001
2019-03-28T04:36:18.536651Z,-0.707296,0.260795,0.150901
2019-03-28T04:36:18.738651Z,-0.8672559999999999,-0.126961,0.562161
2019-03-28T04:36:18.940651Z,0.016952000000000002,-1.025523,-0.102154
2019-03-28T04:36:19.142651Z,-0.176741,-0.540736,0.17513
2019-03-28T04:36:19.343651Z,-0.215592,-0.688365,-0.38859899999999997
2019-03-28T04:36:19.546651Z,-0.30948200000000003,-0.34210999999999997,0.040055
2019-03-28T04:36:19.747651Z,-0.188781,-0.966499,-0.218525
2019-03-28T04:36:19.949651Z,-0.476092,-1.1542139999999999,0.135495
2019-03-28T04:36:20.159651Z,-0.992295,-1.048734,-0.281886
2019-03-28T04:36:20.353651Z,-0.8802760000000001,-0.985615,0.027219
2019-03-28T04:36:20.555651Z,-0.590441,-0.40921399999999997,0.223577
2019-03-28T04:36:20.757651Z,-0.46353500000000003,-0.20038499999999998,-0.140673
2019-03-28T04:36:20.959651Z,-0.498529,-0.189307,0.054741
2019-03-28T04:36:21.161651Z,0.06727000000000001,0.24191999999999997,-0.153705
2019-03-28T04:36:21.362651Z,-0.331818,-0.00366,0.14439000000000002
2019-03-28T04:36:21.564651Z,-0.7396,0.312112,0.33729699999999996
2019-03-28T04:36:21.766651Z,-0.5400659999999999,0.5760029999999999,-0.18668099999999999
2019-03-28T04:36:21.969651Z,0.137906,-0.152066,0.398775
2019-03-28T04:36:22.170651Z,0.45514099999999996,-0.7730520000000001,-0.516088
2019-03-28T04:36:22.371651Z,0.090129,-0.164866,0.044018
2019-03-28T04:36:22.574651Z,0.07093200000000001,0.35077600000000003,0.137215
2019-03-28T04:36:22.775651Z,0.320866,0.6114390000000001,-0.19774
2019-03-28T04:36:22.977651Z,0.403042,0.6264569999999999,0.209497
2019-03-28T04:36:23.179651Z,0.139725,-0.659277,0.465308
2019-03-28T04:36:23.380651Z,-0.06886,-0.772786,-0.34880900000000004
2019-03-28T04:36:23.582651Z,-0.381809,-0.55423,-0.172297
2019-03-28T04:36:23.785651Z,-0.006357,0.22510700000000003,-0.062099
2019-03-28T04:36:23.991651Z,-0.530341,0.562655,0.289907
2019-03-28T04:36:24.188651Z,-0.327887,-0.074463,0.183687
2019-03-28T04:36:24.390651Z,-0.035411,-0.25401599999999996,-0.330049
2019-03-28T04:36:24.592651Z,-0.036982,0.5322600000000001,-0.070018
2019-03-28T04:36:24.793651Z,-0.510284,-0.041557,0.380175
2019-03-28T04:36:24.996651Z,-0.192026,-0.139629,-0.44963400000000003
2019-03-28T04:36:25.197651Z,0.02256,-0.191527,0.080997
2019-03-28T04:36:25.398651Z,0.7156239999999999,-0.05873099999999999,-0.551569
2019-03-28T04:36:25.601651Z,0.107044,0.41172700000000007,0.402983
2019-03-28T04:36:25.802651Z,-0.58008,0.41095,-0.396402
2019-03-28T04:36:26.004651Z,-0.972709,0.9512879999999999,-0.07169400000000001
2019-03-28T04:36:26.206651Z,0.021357,0.597709,-0.435242
2019-03-28T04:36:26.407651Z,0.045913999999999996,0.14128,0.044598
2019-03-28T04:36:26.609651Z,-0.8379209999999999,-0.07786900000000001,-0.273047
2019-03-28T04:36:26.812651Z,-1.499911,0.35661,0.262602
2019-03-28T04:36:27.013651Z,-1.7906419999999998,0.731477,0.24684499999999998
2019-03-28T04:36:27.215651Z,-1.366307,0.413969,-0.304884
2019-03-28T04:36:27.417651Z,-0.6296609999999999,-0.550276,-0.307714
2019-03-28T04:36:27.618651Z,-0.39276500000000003,-0.493496,-0.29890700000000003
2019-03-28T04:36:27.820651Z,0.029605000000000003,0.04384,0.10859400000000001
2019-03-28T04:36:28.024651Z,-0.152006,0.453985,0.27109099999999997
2019-03-28T04:36:28.224651Z,-0.097233,0.595391,-0.043522000000000005
2019-03-28T04:36:28.426651Z,-0.11276900000000001,0.07598099999999999,0.328909
2019-03-28T04:36:28.628651Z,-0.14128800000000002,-0.135147,0.100788
2019-03-28T04:36:28.829651Z,-0.154222,-0.553902,0.071781
2019-03-28T04:36:29.031651Z,-0.169337,-0.40153,-0.38145999999999997
2019-03-28T04:36:29.233651Z,-0.18146099999999998,-0.202623,0.295275
2019-03-28T04:36:29.434651Z,0.21663200000000002,-0.143109,-0.139377
2019-03-28T04:36:29.636651Z,-0.271047,-0.263885,0.003989
2019-03-28T04:36:29.838651Z,-0.023148,0.295148,-0.0151
2019-03-28T04:36:30.040651Z,-0.646512,0.340328,0.293491
2019-03-28T04:36:30.241651Z,-0.608245,0.618034,-0.141594
2019-03-28T04:36:30.444651Z,-0.738475,0.204963,0.282475
2019-03-28T04:36:30.645651Z,-0.027598,-0.394013,-0.42048500000000005
2019-03-28T04:36:30.847651Z,0.32104099999999997,-0.11322,0.065858
2019-03-28T04:36:31.049651Z,0.070346,-0.068557,0.170903
2019-03-28T04:36:31.251651Z,-0.028658999999999997,0.391435,-0.267893
2019-03-28T04:36:31.452651Z,0.208774,1.053847,-0.56852
2019-03-28T04:36:31.655651Z,-0.217142,0.194645,-0.172869
2019-03-28T04:36:31.856651Z,-0.301788,-0.740478,0.24161100000000002
2019-03-28T04:36:32.058651Z,-0.430097,-0.732947,-0.23190700000000003
2019-03-28T04:36:32.260651Z,-0.575711,-0.358306,0.350627
2019-03-28T04:36:32.461651Z,0.076714,0.627554,-0.731671
2019-03-28T04:36:32.691651Z,-0.009009,0.754905,0.325406
2019-03-28T04:36:32.865651Z,-0.381696,0.477811,-0.019096000000000002
2019-03-28T04:36:33.067651Z,-0.313321,0.678951,-0.211848
2019-03-28T04:36:33.269651Z,-0.192588,0.72016,-0.280121
2019-03-28T04:36:33.471651Z,0.022183,0.5370689999999999,-0.096064
2019-03-28T04:36:33.672651Z,0.168482,0.346679,0.005233
2019-03-28T04:36:33.874651Z,0.08217999999999999,0.294232,-0.147779
2019-03-28T04:36:34.076651Z,-0.419367,0.172189,0.366386
2019-03-28T04:36:34.277651Z,-0.23526999999999998,0.24530300000000002,-0.15290499999999999
2019-03-28T04:36:34.479651Z,-0.37898200000000004,0.169869,-0.161205
2019-03-28T04:36:34.682651Z,-0.472749,0.0021920000000000004,-0.209544
2019-03-28T04:36:34.883651Z,0.719234,-0.43737,0.19709000000000002
2019-03-28T04:36:35.085651Z,0.43017,0.050769,-0.208961
2019-03-28T04:36:35.287651Z,-0.13053299999999998,0.254725,-0.123509
2019-03-28T04:36:35.488651Z,0.06018300000000001,0.643243,0.14898699999999998
2019-03-28T04:36:35.690651Z,0.452068,1.615492,0.49871099999999996
2019-03-28T04:36:35.892651Z,-0.166659,0.312228,-0.574913
2019-03-28T04:36:36.094651Z,-0.353116,-0.393096,0.701959
2019-03-28T04:36:36.295651Z,-0.129328,-0.33054,-0.722654
2019-03-28T04:36:36.497651Z,-0.35443600000000003,0.441748,-0.264691
2019-03-28T04:36:36.699651Z,-0.5141180000000001,0.553304,0.20209100000000002
2019-03-28T04:36:36.901651Z,-0.08240399999999999,0.5806279999999999,-0.10072300000000001
2019-03-28T04:36:37.103651Z,0.406029,-0.28686500000000004,-0.188382
2019-03-28T04:36:37.317651Z,0.320781,-0.24671500000000002,0.314867
2019-03-28T04:36:37.506651Z,-0.546212,-0.337987,-0.11346800000000001
2019-03-28T04:36:37.708651Z,-0.557912,-0.178582,0.43283999999999995
2019-03-28T04:36:37.910651Z,0.10918800000000001,-0.35804899999999995,-0.061001
2019-03-28T04:36:38.111651Z,0.240355,-0.2332,-0.069811
2019-03-28T04:36:38.313651Z,-0.078885,-0.108418,0.071603
2019-03-28T04:36:38.515651Z,-0.393402,-0.187282,-0.228256
2019-03-28T04:36:38.717651Z,-0.193619,0.289707,0.140601
2019-03-28T04:36:38.919651Z,-0.031544,-0.340396,-0.058892999999999994
2019-03-28T04:36:39.120651Z,-0.688619,-0.5672649999999999,0.260949
2019-03-28T04:36:39.322651Z,-0.799618,-0.830528,-0.029377999999999998
2019-03-28T04:36:39.524651Z,-0.501953,-0.129106,-0.22649499999999997
2019-03-28T04:36:39.725651Z,-0.9450930000000001,0.28034899999999996,0.183948
2019-03-28T04:36:39.927651Z,-0.575327,0.126893,-0.044201
2019-03-28T04:36:40.129651Z,-0.412815,-0.546921,0.203876
2019-03-28T04:36:40.331651Z,0.301268,-0.343305,-0.376827
2019-03-28T04:36:40.533651Z,-0.46914700000000004,0.033178,-0.13573
2019-03-28T04:36:40.735651Z,-0.301225,0.659029,0.135516
2019-03-28T04:36:40.936651Z,0.08896799999999999,-0.031208999999999997,0.236475
2019-03-28T04:36:41.138651Z,-0.408056,-0.5760689999999999,-0.24958899999999998
2019-03-28T04:36:41.340651Z,-0.851659,-0.299082,0.07812999999999999
2019-03-28T04:36:41.541651Z,-0.8595860000000001,-0.070675,0.051761
2019-03-28T04:36:41.744651Z,-0.7025319999999999,0.041683,0.047901
2019-03-28T04:36:41.946651Z,-0.528791,-0.033927,-0.028661000000000002
2019-03-28T04:36:42.148651Z,-0.065001,0.18146800000000002,-0.136295
2019-03-28T04:36:42.348651Z,-0.020339,-0.000384,0.212736
2019-03-28T04:36:42.551651Z,-0.042982,0.062295,-0.066455
2019-03-28T04:36:42.752651Z,-0.263181,-0.11570699999999999,0.0021030000000000003
2019-03-28T04:36:42.954651Z,-0.195183,0.035535000000000004,-0.344538
2019-03-28T04:36:43.156651Z,-0.070895,-0.070673,0.5968140000000001
2019-03-28T04:36:43.357651Z,0.191886,0.136803,-0.362553
2019-03-28T04:36:43.559651Z,-0.048588,0.042773,-0.076878
2019-03-28T04:36:43.761651Z,0.309098,-0.496979,0.378542
2019-03-28T04:36:43.963651Z,1.0525520000000002,-1.083339,0.09354900000000001
2019-03-28T04:36:44.164651Z,1.02692,-0.684363,-0.16020299999999998
2019-03-28T04:36:44.366651Z,0.998626,-0.400372,0.611769
2019-03-28T04:36:44.568651Z,0.701667,-0.277821,0.015453
2019-03-28T04:36:44.770651Z,0.8260709999999999,-0.437341,0.572818
2019-03-28T04:36:44.972651Z,0.150427,-1.19125,0.14431
2019-03-28T04:36:45.173651Z,-0.043098000000000004,-1.162609,0.41480100000000003
2019-03-28T04:36:45.375651Z,-0.230816,-0.72346,0.280812
2019-03-28T04:36:45.577651Z,0.24794499999999997,-0.2257,0.015430000000000001
2019-03-28T04:36:45.779651Z,-0.42858599999999997,0.202398,-0.152108
2019-03-28T04:36:45.981651Z,-0.138914,-0.216288,0.345434
2019-03-28T04:36:46.182651Z,-0.094947,-0.12798800000000002,-0.16752
2019-03-28T04:36:46.384651Z,-0.022475,0.033242,-0.024494
2019-03-28T04:36:46.585651Z,-0.402199,-0.056134,-0.417109
2019-03-28T04:36:46.789651Z,-0.200126,0.132027,0.13239700000000001
2019-03-28T04:36:46.990651Z,0.024646,-0.11462,0.004444
2019-03-28T04:36:47.191651Z,0.222345,-0.10866300000000001,-0.156898
2019-03-28T04:36:47.393651Z,0.626529,-0.010648000000000001,-0.30417
2019-03-28T04:36:47.594651Z,-0.22842600000000002,0.06415599999999999,0.179488
2019-03-28T04:36:47.796651Z,-0.38860700000000004,0.193226,0.326815
2019-03-28T04:36:47.998651Z,0.316579,0.148543,0.109923
2019-03-28T04:36:48.200651Z,-0.553512,-0.6497729999999999,0.5027010000000001
2019-03-28T04:36:48.401651Z,-0.49083000000000004,-0.344004,-0.341231
2019-03-28T04:36:48.603651Z,-0.607716,-0.007393,0.330904
2019-03-28T04:36:48.805651Z,0.14398,0.839327,-0.306994
2019-03-28T04:36:49.007651Z,-0.9524879999999999,-0.2089,0.48824799999999996
2019-03-28T04:36:49.209651Z,0.662532,-0.002105,0.279485
2019-03-28T04:36:49.410651Z,0.45466000000000006,0.711495,-0.445047
2019-03-28T04:36:49.612651Z,0.15348599999999998,0.8532299999999999,-0.265901
2019-03-28T04:36:49.814651Z,0.034095,1.057733,0.252625
2019-03-28T04:36:50.016651Z,-0.27935,0.029771,0.021578
2019-03-28T04:36:50.217651Z,-0.175896,0.393557,0.04143
2019-03-28T04:36:50.419651Z,-0.259195,0.5273359999999999,0.181508
2019-03-28T04:36:50.622651Z,0.186057,0.711444,-0.078414
2019-03-28T04:36:50.823651Z,0.095139,0.48199200000000003,-0.209927
2019-03-28T04:36:51.025651Z,-0.030226999999999997,0.334475,0.036863
2019-03-28T04:36:51.226651Z,0.012234,0.312253,-0.30120399999999997
2019-03-28T04:36:51.428651Z,-0.126366,0.453838,0.117184
2019-03-28T04:36:51.630651Z,-0.214887,0.287908,-0.056930999999999995
2019-03-28T04:36:51.832651Z,-0.501901,0.6864180000000001,-0.11152000000000001
2019-03-28T04:36:52.033651Z,0.32922399999999996,-0.078162,0.201007
2019-03-28T04:36:52.235651Z,0.385691,-0.8784139999999999,-0.25406
2019-03-28T04:36:52.437651Z,0.319126,0.409533,-0.098023
2019-03-28T04:36:52.638651Z,0.135419,0.689071,0.30889099999999997
2019-03-28T04:36:52.841651Z,0.325388,0.080042,0.306437
2019-03-28T04:36:53.042651Z,-0.187181,-0.845239,0.32264699999999996
2019-03-28T04:36:53.243651Z,-0.292327,-0.490117,-0.115577
2019-03-28T04:36:53.446651Z,0.023103,-0.44583199999999995,0.078434
2019-03-28T04:36:53.647651Z,0.5087520000000001,-0.224954,-0.054136000000000004
2019-03-28T04:36:53.849651Z,0.317684,-0.019403999999999998,0.022303
2019-03-28T04:36:54.051651Z,-0.149593,-0.084586,0.158187
2019-03-28T04:36:54.252651Z,-0.331934,-0.009979,-0.16077
2019-03-28T04:36:54.454651Z,-0.378425,0.228998,0.164402
2019-03-28T04:36:54.656651Z,0.129901,0.044708,-0.066175
2019-03-28T04:36:54.858651Z,-0.20212,0.253784,-0.165569
2019-03-28T04:36:55.059651Z,0.153942,-0.039379000000000004,0.275836
2019-03-28T04:36:55.261651Z,1.221402,-0.924319,0.32113
2019-03-28T04:36:55.463651Z,0.8761190000000001,-0.173224,-0.455867
2019-03-28T04:36:55.664651Z,0.613481,0.496754,0.42964600000000003
2019-03-28T04:36:55.867651Z,0.516645,0.24420100000000003,0.017013
2019-03-28T04:36:56.068651Z,0.677361,-0.450416,-0.017200999999999998
2019-03-28T04:36:56.270651Z,0.169638,-1.832236,0.42035600000000006
2019-03-28T04:36:56.472651Z,0.536776,-1.050751,-0.0027
2019-03-28T04:36:56.673651Z,0.5723689999999999,-0.658612,0.448442
2019-03-28T04:36:56.875651Z,0.338388,-0.545488,0.167687
2019-03-28T04:36:57.077651Z,-0.046529,-0.431987,0.287785
2019-03-28T04:36:57.278651Z,0.135443,-0.21601900000000002,0.155756
2019-03-28T04:36:57.480651Z,0.164276,-0.214653,0.091416
2019-03-28T04:36:57.682651Z,-0.112871,-0.166151,-0.128635
2019-03-28T04:36:57.884651Z,-0.482529,-0.180973,-0.11033599999999999
2019-03-28T04:36:58.085651Z,-0.08603999999999999,0.22543000000000002,0.017281
2019-03-28T04:36:58.287651Z,-0.010034,-0.069021,-0.098061
2019-03-28T04:36:58.489651Z,-0.370173,0.026652999999999996,-0.008784
2019-03-28T04:36:58.691651Z,-0.348635,0.077797,0.673693
2019-03-28T04:36:58.893651Z,0.58821,0.500242,0.052833000000000005
2019-03-28T04:36:59.094651Z,0.7064050000000001,0.20226,0.26393
2019-03-28T04:36:59.296651Z,1.0194290000000001,0.617132,-0.248627
2019-03-28T04:36:59.499651Z,0.515256,0.837276,-0.379808
2019-03-28T04:36:59.700651Z,0.418704,0.991158,-0.058482000000000006
2019-03-28T04:36:59.901651Z,0.755798,-0.190348,-0.14238599999999998
2019-03-28T04:37:00.103651Z,0.5044270000000001,-0.566823,0.197399
2019-03-28T04:37:00.306651Z,0.20346199999999998,-0.152187,-0.361061
2019-03-28T04:37:00.506651Z,0.012516,0.16652899999999998,0.15649000000000002
2019-03-28T04:37:00.709651Z,-0.21635700000000002,0.539297,-0.243144
2019-03-28T04:37:00.910651Z,-0.659574,0.583128,0.18776800000000002
2019-03-28T04:37:01.112651Z,-0.243939,0.566149,-0.113331
2019-03-28T04:37:01.314651Z,-0.12046,0.25642800000000004,-0.129684
2019-03-28T04:37:01.515651Z,-0.021632,0.22418400000000002,-0.00028700000000000004
2019-03-28T04:37:01.717651Z,0.032351,0.011292,0.133437
2019-03-28T04:37:01.919651Z,0.284907,0.6427430000000001,-0.43675
2019-03-28T04:37:02.120651Z,0.09723899999999999,0.583245,-0.299983
2019-03-28T04:37:02.322651Z,-0.018868,1.003214,-0.450205
2019-03-28T04:37:02.524651Z,-0.209052,0.6231979999999999,-0.072988
2019-03-28T04:37:02.726651Z,-0.44969899999999996,-0.146546,0.257445
2019-03-28T04:37:02.927651Z,-0.562971,-0.494882,-0.062469000000000004
2019-03-28T04:37:03.129651Z,-0.8717090000000001,-0.609819,-0.22371999999999997
2019-03-28T04:37:03.331651Z,-0.215869,0.203821,-0.647721
2019-03-28T04:37:03.532651Z,-0.9370440000000001,0.199012,0.32650999999999997
2019-03-28T04:37:03.734651Z,-0.8281350000000001,0.919919,-0.174274
2019-03-28T04:37:03.936651Z,-0.458106,0.618162,0.156211
2019-03-28T04:37:04.137651Z,0.311646,-0.30867,-0.06729
2019-03-28T04:37:04.339651Z,0.14465999999999998,0.179545,-0.215006
2019-03-28T04:37:04.541651Z,-0.135648,0.919242,0.053020000000000005
2019-03-28T04:37:04.743651Z,-0.14301,0.374434,-0.181873
2019-03-28T04:37:04.945651Z,-0.200823,0.17196199999999998,0.145919
2019-03-28T04:37:05.146651Z,-0.39055700000000004,0.164106,-0.117896
2019-03-28T04:37:05.348651Z,-0.5136189999999999,0.173172,-0.343002
2019-03-28T04:37:05.551651Z,-0.9384959999999999,0.677207,-0.710791
2019-03-28T04:37:05.753651Z,-0.7586390000000001,0.453992,-0.719188
2019-03-28T04:37:05.953651Z,-0.301163,0.702551,-0.117128
2019-03-28T04:37:06.155651Z,-0.519965,0.382396,-0.079762
2019-03-28T04:37:06.356651Z,-0.660396,0.33029200000000003,0.426608
2019-03-28T04:37:06.558651Z,-0.48038800000000004,0.167409,-0.15376099999999998
2019-03-28T04:37:06.760651Z,-0.23949099999999998,0.051778,-0.116752
2019-03-28T04:37:06.961651Z,-0.393877,0.134536,0.074576
2019-03-28T04:37:07.163651Z,-0.202032,0.1982,0.099619
2019-03-28T04:37:07.365651Z,-0.266696,0.33973000000000003,-0.1122
2019-03-28T04:37:07.566651Z,-0.476775,0.250632,-0.44377700000000003
2019-03-28T04:37:07.769651Z,-0.227873,-0.032458,0.089597
2019-03-28T04:37:07.970651Z,0.706569,-0.667845,0.23869400000000002
2019-03-28T04:37:08.171651Z,0.474079,-0.617637,0.24210500000000001
2019-03-28T04:37:08.373651Z,0.504533,-0.045466,-0.263836
2019-03-28T04:37:08.575651Z,0.5156029999999999,0.205409,-0.090913
2019-03-28T04:37:08.777651Z,0.23869200000000002,-0.174624,0.490649
2019-03-28T04:37:08.978651Z,0.225465,-1.034678,0.487617
2019-03-28T04:37:09.180651Z,-0.490766,-1.8143259999999999,0.712933
2019-03-28T04:37:09.382651Z,-0.508362,-1.170345,-0.013880000000000002
2019-03-28T04:37:09.583651Z,-0.5417,-0.664834,0.456909
2019-03-28T04:37:09.786651Z,-0.100753,-0.580076,0.201274
2019-03-28T04:37:10.009651Z,-0.221212,-0.769267,0.154782
2019-03-28T04:37:10.189651Z,-0.11584000000000001,-0.506363,0.07120800000000001
2019-03-28T04:37:10.391651Z,-0.155325,-0.410303,0.097541
2019-03-28T04:37:10.592651Z,0.020047,-0.138294,-0.049666
2019-03-28T04:37:10.794651Z,-0.151403,0.063622,0.074507
2019-03-28T04:37:10.996651Z,-0.217545,0.038025,0.100257
2019-03-28T04:37:11.197651Z,-0.142539,0.068627,0.019665000000000002
2019-03-28T04:37:11.398651Z,-0.295266,0.272356,-0.055305999999999994
2019-03-28T04:37:11.601651Z,0.140699,-0.33634899999999995,0.27064499999999997
2019-03-28T04:37:11.803651Z,0.7251380000000001,-1.284856,-0.09765800000000001
2019-03-28T04:37:12.004651Z,0.90481,-0.777472,-0.562964
2019-03-28T04:37:12.206651Z,0.691087,-0.408193,0.286414
2019-03-28T04:37:12.407651Z,0.6466810000000001,0.129051,-0.333584
2019-03-28T04:37:12.609651Z,0.506017,0.399252,0.41465
2019-03-28T04:37:12.812651Z,0.639955,-0.553127,0.102079
2019-03-28T04:37:13.013651Z,0.764573,-0.9364180000000001,0.224504
2019-03-28T04:37:13.214651Z,0.397932,-0.79219,0.941766
2019-03-28T04:37:13.416651Z,0.711286,-0.511412,-0.356066
2019-03-28T04:37:13.618651Z,1.05503,-0.577533,-0.37350500000000003
2019-03-28T04:37:13.820651Z,1.516749,-0.391729,0.768788
2019-03-28T04:37:14.022651Z,1.9005889999999999,-0.293466,0.671675
2019-03-28T04:37:14.223651Z,1.682275,-0.287988,0.33069699999999996
2019-03-28T04:37:14.425651Z,1.501141,-0.396425,0.23546399999999998
2019-03-28T04:37:14.627651Z,1.182044,-0.26211999999999996,0.082789
2019-03-28T04:37:14.828651Z,0.481652,-0.278116,0.39561599999999997
2019-03-28T04:37:15.030651Z,0.397057,0.13084500000000002,-0.159815
2019-03-28T04:37:15.232651Z,-0.125737,0.017031,0.145983
2019-03-28T04:37:15.433651Z,0.084314,0.447723,0.033389
2019-03-28T04:37:15.635651Z,0.147057,-0.625358,-0.152266
2019-03-28T04:37:15.837651Z,0.8590959999999999,-0.997575,0.21956399999999998
2019-03-28T04:37:16.038651Z,0.728233,-0.42311000000000004,-0.443018
2019-03-28T04:37:16.240651Z,0.6609659999999999,0.060736,0.570013
2019-03-28T04:37:16.442651Z,0.953023,0.16176500000000002,0.177291
2019-03-28T04:37:16.643651Z,0.945953,-0.127676,-0.12592799999999998
2019-03-28T04:37:16.845651Z,0.6148140000000001,-0.545879,0.210842
2019-03-28T04:37:17.047651Z,0.20650300000000002,-0.447342,0.054233
2019-03-28T04:37:17.248651Z,-0.21345799999999998,0.28724099999999997,0.189316
2019-03-28T04:37:17.450651Z,-0.266318,0.150981,0.673851
2019-03-28T04:37:17.652651Z,-0.009165000000000001,0.720545,-0.550606
2019-03-28T04:37:17.854651Z,-0.165258,0.45485699999999996,0.401063
2019-03-28T04:37:18.055651Z,0.327474,-1.0229409999999999,0.14388800000000002
2019-03-28T04:37:18.257651Z,0.677554,-0.504087,-0.262671
2019-03-28T04:37:18.459651Z,0.5807399999999999,0.16206199999999998,0.216148
2019-03-28T04:37:18.662651Z,0.792972,-0.12440699999999999,0.155872
2019-03-28T04:37:18.863651Z,0.711361,-0.182733,-0.073908
2019-03-28T04:37:19.064651Z,0.042765,-0.513387,0.13104000000000002
2019-03-28T04:37:19.265651Z,0.24117399999999997,0.0038350000000000003,0.098593
2019-03-28T04:37:19.468651Z,0.038925,-0.019522,-0.166689
2019-03-28T04:37:19.669651Z,0.186657,0.179587,0.129005
2019-03-28T04:37:19.871651Z,0.167324,0.068838,-0.174853
2019-03-28T04:37:20.073651Z,0.031744999999999995,0.24433600000000003,0.115712
2019-03-28T04:37:20.274651Z,-0.182703,0.220527,-0.153819
2019-03-28T04:37:20.476651Z,0.10381199999999999,0.228967,-0.234882
2019-03-28T04:37:20.679651Z,-0.26866100000000004,0.274769,0.135225
2019-03-28T04:37:20.879651Z,0.34437399999999996,0.273125,-0.801733
2019-03-28T04:37:21.081651Z,0.786907,-1.481439,1.356681
2019-03-28T04:37:21.283651Z,1.312586,-1.5440530000000001,-0.090214
2019-03-28T04:37:21.484651Z,1.425555,-0.21531199999999998,-0.07237400000000001
2019-03-28T04:37:21.686651Z,1.1056489999999999,-0.284109,-0.11473900000000001
2019-03-28T04:37:21.888651Z,0.6261220000000001,0.384765,0.4858
2019-03-28T04:37:22.089651Z,0.9953620000000001,-0.705105,-0.0050810000000000004
2019-03-28T04:37:22.291651Z,-0.234488,-0.986117,0.43887
2019-03-28T04:37:22.494651Z,0.326692,-0.696332,-0.30497199999999997
2019-03-28T04:37:22.695651Z,0.58745,-0.559445,0.793255
2019-03-28T04:37:22.896651Z,0.522087,-0.214705,-0.270949
2019-03-28T04:37:23.098651Z,0.641908,-0.155146,0.340096
2019-03-28T04:37:23.300651Z,0.12984300000000001,-0.029878,0.195021
2019-03-28T04:37:23.502651Z,0.132857,-0.20101,0.008657
2019-03-28T04:37:23.704651Z,0.11928299999999999,0.070035,-0.19858599999999998
2019-03-28T04:37:23.905651Z,-0.224894,-0.020229,0.636738
2019-03-28T04:37:24.107651Z,0.140228,0.188085,-0.090075
2019-03-28T04:37:24.309651Z,-0.41467,0.376446,0.5326770000000001
2019-03-28T04:37:24.510651Z,-0.401546,0.109974,-0.161945
2019-03-28T04:37:24.712651Z,-0.08697300000000001,-0.060042,0.036922
2019-03-28T04:37:24.914651Z,0.5844600000000001,-0.10431300000000002,0.271642
2019-03-28T04:37:25.115651Z,0.9863700000000001,-0.163645,0.115979
2019-03-28T04:37:25.317651Z,0.976281,0.206992,-0.37326
2019-03-28T04:37:25.519651Z,1.090466,0.7161850000000001,0.097633
2019-03-28T04:37:25.721651Z,0.833362,0.7573810000000001,0.35880500000000004
2019-03-28T04:37:25.922651Z,1.486517,-0.176252,0.383152
2019-03-28T04:37:26.125651Z,0.110801,-0.605007,0.491016
2019-03-28T04:37:26.326651Z,0.47717,0.037645,-0.41572700000000007
2019-03-28T04:37:26.527651Z,-0.035149,0.378485,0.25455
2019-03-28T04:37:26.730651Z,-0.161004,0.547279,0.101257
2019-03-28T04:37:26.931651Z,-0.49996999999999997,-0.11329000000000002,-0.543622
2019-03-28T04:37:27.133651Z,1.30584,-0.15668900000000002,-0.207848
2019-03-28T04:37:27.335651Z,0.448028,-0.067235,-0.24425
2019-03-28T04:37:27.537651Z,0.062953,0.508271,0.17941600000000002
2019-03-28T04:37:27.739651Z,0.21930700000000003,0.735409,-0.15342
2019-03-28T04:37:27.940651Z,0.20847399999999996,0.028558999999999998,0.417422
2019-03-28T04:37:28.141651Z,-0.291935,0.292275,0.037899
2019-03-28T04:37:28.343651Z,-0.614975,-0.256257,-0.777134
2019-03-28T04:37:28.546651Z,-0.729887,-0.180832,-0.30444299999999996
2019-03-28T04:37:28.747651Z,-0.36248400000000003,0.029917000000000003,-0.115952
2019-03-28T04:37:28.949651Z,-0.368741,0.01677,0.057664
2019-03-28T04:37:29.152651Z,-0.447184,-0.298076,0.199268
2019-03-28T04:37:29.352651Z,0.034493,-0.18808,0.156637
2019-03-28T04:37:29.553651Z,0.193732,-0.167123,0.061377999999999995
2019-03-28T04:37:29.755651Z,0.321631,-0.193649,0.27581500000000003
2019-03-28T04:37:29.956651Z,0.199403,0.197152,-0.443561
2019-03-28T04:37:30.158651Z,-0.658746,-0.045708,0.372066
2019-03-28T04:37:30.360651Z,0.1991,0.39711799999999997,-0.23775500000000002
2019-03-28T04:37:30.562651Z,-0.126202,0.878491,0.169132
2019-03-28T04:37:30.764651Z,0.30180100000000004,-0.062655,-0.35088
2019-03-28T04:37:30.965651Z,-0.000269,-0.726108,0.43774399999999997
2019-03-28T04:37:31.167651Z,-0.24020999999999998,-0.8934840000000001,0.13941900000000002
2019-03-28T04:37:31.369651Z,-0.288633,-0.827667,-0.399335
2019-03-28T04:37:31.571651Z,-0.315848,0.25887,-0.024416999999999998
2019-03-28T04:37:31.772651Z,-0.666234,0.5157510000000001,-0.349017
2019-03-28T04:37:31.974651Z,-0.786972,0.18220899999999998,0.251093
2019-03-28T04:37:32.176651Z,0.246833,-1.0807129999999998,-0.137079
2019-03-28T04:37:32.377651Z,0.5311939999999999,-0.902954,-0.138004
2019-03-28T04:37:32.580651Z,0.23166599999999998,-0.423046,-0.030525999999999998
2019-03-28T04:37:32.781651Z,-0.334054,-0.21363000000000001,0.234127
2019-03-28T04:37:32.983651Z,0.10956500000000001,0.575888,0.025472
2019-03-28T04:37:33.184651Z,-0.06577899999999999,0.769038,-0.44207799999999997
2019-03-28T04:37:33.386651Z,0.411366,0.068151,0.125736
2019-03-28T04:37:33.589651Z,-0.500309,-0.731538,1.132058
2019-03-28T04:37:33.790651Z,-0.079391,-0.445524,-0.198962
2019-03-28T04:37:33.992651Z,0.054584,-0.149172,0.138416
2019-03-28T04:37:34.193651Z,-0.6192350000000001,0.076168,-0.051713999999999996
2019-03-28T04:37:34.394651Z,-0.46006800000000003,-0.165779,-0.7774260000000001
