Datetime,accx,accy,accz
2019-03-21T22:07:21.679125Z,0.0,0.0,0.0
2019-03-21T22:07:21.878125Z,-0.072906,0.214267,0.175577
2019-03-21T22:07:22.080125Z,-0.174378,0.584597,0.244089
2019-03-21T22:07:22.281125Z,-0.411351,0.558271,-0.146612
2019-03-21T22:07:22.482125Z,-0.557304,-0.8695430000000001,0.06911
2019-03-21T22:07:22.715125Z,-0.393246,-0.508961,0.013943
2019-03-21T22:07:22.916125Z,-2.2771169999999996,-1.062516,2.72724
2019-03-21T22:07:23.117125Z,-1.191798,0.35787199999999997,0.23293200000000003
2019-03-21T22:07:23.318125Z,-1.349941,0.808081,-2.586163
2019-03-21T22:07:23.520125Z,-1.331594,1.226243,-0.8973040000000001
2019-03-21T22:07:23.721125Z,-1.347049,0.9192170000000001,-0.274104
2019-03-21T22:07:23.922125Z,-1.057328,0.16258,1.667772
2019-03-21T22:07:24.123125Z,-0.35804600000000003,0.67104,1.6883259999999998
2019-03-21T22:07:24.324125Z,-0.34528600000000004,1.081084,-0.9829030000000001
2019-03-21T22:07:24.526125Z,-1.944407,0.90679,0.535159
2019-03-21T22:07:24.731125Z,-1.175865,1.7670689999999998,0.23936100000000002
2019-03-21T22:07:24.928125Z,0.366023,1.9977740000000002,-1.4809620000000001
2019-03-21T22:07:25.129125Z,-0.975758,0.9242450000000001,-1.197916
2019-03-21T22:07:25.331125Z,-0.029788,1.40687,-0.39764499999999997
2019-03-21T22:07:25.531125Z,0.284994,1.297984,-0.387221
2019-03-21T22:07:25.733125Z,-1.161667,0.24033400000000002,0.8499120000000001
2019-03-21T22:07:25.934125Z,-1.071404,-0.444884,-0.9287270000000001
2019-03-21T22:07:26.136125Z,-1.4798799999999999,-0.423195,-1.7807939999999998
2019-03-21T22:07:26.337125Z,-1.396709,0.022122,-1.192516
2019-03-21T22:07:26.538125Z,-0.90059,0.499514,0.9517969999999999
2019-03-21T22:07:26.739125Z,-1.191315,-2.087457,0.41109799999999996
2019-03-21T22:07:26.941125Z,0.254269,-1.697185,-0.728729
2019-03-21T22:07:27.142125Z,0.45271999999999996,-0.172181,-0.662567
2019-03-21T22:07:27.343125Z,0.119674,-0.171132,0.6757920000000001
2019-03-21T22:07:27.545125Z,0.186271,-1.055459,-0.141825
2019-03-21T22:07:27.745125Z,0.277858,-1.131321,-0.273713
2019-03-21T22:07:27.947125Z,-0.387966,-1.140779,0.229823
2019-03-21T22:07:28.148125Z,-0.84299,-0.705565,-0.598942
2019-03-21T22:07:28.349125Z,-0.679686,-0.786158,-0.379397
2019-03-21T22:07:28.551125Z,0.26364899999999997,-1.282356,0.501124
2019-03-21T22:07:28.752125Z,1.750384,-0.291312,0.82855
2019-03-21T22:07:28.953125Z,1.0693190000000001,-0.30949099999999996,-0.03436
2019-03-21T22:07:29.154125Z,1.295579,0.149792,0.6415
2019-03-21T22:07:29.355125Z,0.5877,-1.886275,0.22168400000000002
2019-03-21T22:07:29.557125Z,1.111907,-0.21405300000000002,0.40220300000000003
2019-03-21T22:07:29.758125Z,-0.130349,-0.20995300000000003,-0.184275
2019-03-21T22:07:29.959125Z,-0.285681,1.403774,0.288939
2019-03-21T22:07:30.160125Z,0.44738500000000003,1.3065639999999998,2.137553
2019-03-21T22:07:30.361125Z,0.5459069999999999,0.361336,-1.54255
2019-03-21T22:07:30.563125Z,0.759833,1.880471,-0.529391
2019-03-21T22:07:30.764125Z,1.243484,2.665669,0.16276500000000002
2019-03-21T22:07:30.965125Z,-0.746287,0.8616719999999999,0.955313
2019-03-21T22:07:31.166125Z,0.13326300000000002,0.22500900000000001,0.420299
2019-03-21T22:07:31.368125Z,0.218698,1.048606,-1.231861
2019-03-21T22:07:31.569125Z,0.33322199999999996,1.6675060000000002,-0.6349670000000001
2019-03-21T22:07:31.771125Z,1.002018,0.746146,-1.439353
2019-03-21T22:07:31.971125Z,0.8310219999999999,1.1579,-0.331969
2019-03-21T22:07:32.172125Z,1.929541,0.33366799999999996,1.649261
2019-03-21T22:07:32.374125Z,1.195977,1.068353,-1.377212
2019-03-21T22:07:32.575125Z,2.0858659999999998,2.395714,-0.69707
2019-03-21T22:07:32.776125Z,1.325265,1.924418,-0.18654400000000002
2019-03-21T22:07:32.977125Z,2.656002,0.773714,1.6216030000000001
2019-03-21T22:07:33.178125Z,1.485027,0.5115930000000001,-1.612251
2019-03-21T22:07:33.379125Z,1.379484,1.838096,-2.0015419999999997
2019-03-21T22:07:33.581125Z,1.759155,2.243011,-0.12372999999999999
2019-03-21T22:07:33.782125Z,2.8992009999999997,-0.31996399999999997,0.501781
2019-03-21T22:07:33.983125Z,0.790354,-1.128347,0.111974
2019-03-21T22:07:34.184125Z,3.638776,2.406343,-0.190154
2019-03-21T22:07:34.385125Z,1.4093360000000001,0.457809,4.358539
2019-03-21T22:07:34.587125Z,2.637674,-1.7926790000000001,1.146591
2019-03-21T22:07:34.788125Z,2.773466,-3.6754300000000004,0.49930399999999997
2019-03-21T22:07:34.989125Z,2.886491,-1.2415530000000001,0.308205
2019-03-21T22:07:35.190125Z,2.516088,-1.618283,1.261579
2019-03-21T22:07:35.391125Z,2.7177689999999997,-1.854168,3.728528
2019-03-21T22:07:35.593125Z,2.479612,-1.9164150000000002,1.485531
2019-03-21T22:07:35.793125Z,3.213202,-1.8893529999999998,1.6828330000000002
2019-03-21T22:07:35.995125Z,4.322734,-1.0322959999999999,2.406788
2019-03-21T22:07:36.196125Z,3.001892,-0.453383,1.848061
2019-03-21T22:07:36.397125Z,2.581995,0.064063,1.6158700000000001
2019-03-21T22:07:36.598125Z,2.138068,-0.27670700000000004,0.309382
2019-03-21T22:07:36.799125Z,2.438364,-0.144688,2.100547
2019-03-21T22:07:37.000125Z,3.035172,0.58528,0.734529
2019-03-21T22:07:37.201125Z,2.532973,0.267325,2.704143
2019-03-21T22:07:37.403125Z,3.227945,-1.183678,1.966462
2019-03-21T22:07:37.604125Z,3.168674,-1.962594,0.9733149999999999
2019-03-21T22:07:37.805125Z,2.247745,-0.739021,0.23186500000000002
2019-03-21T22:07:38.006125Z,2.0713220000000003,-0.7145100000000001,1.977489
2019-03-21T22:07:38.207125Z,1.4124079999999999,-1.50394,2.1170240000000002
2019-03-21T22:07:38.409125Z,3.0928150000000003,0.12272000000000001,0.268836
2019-03-21T22:07:38.610125Z,-0.362027,-1.414005,0.8115939999999999
2019-03-21T22:07:38.811125Z,1.60069,0.385061,1.0370979999999999
2019-03-21T22:07:39.012125Z,1.002183,-0.178111,1.180755
2019-03-21T22:07:39.213125Z,1.8006490000000002,-0.20413599999999998,-0.035768
2019-03-21T22:07:39.415125Z,1.528071,-0.284317,0.34613
2019-03-21T22:07:39.616125Z,2.309289,-0.874966,0.218879
2019-03-21T22:07:39.816125Z,0.618957,-0.563435,2.207655
2019-03-21T22:07:40.018125Z,0.710512,-0.05443099999999999,1.2156049999999998
2019-03-21T22:07:40.219125Z,-0.48952700000000005,-0.372417,0.266926
2019-03-21T22:07:40.420125Z,-2.78638,-0.309639,-0.121709
2019-03-21T22:07:40.621125Z,-1.596783,-1.273548,-0.137404
2019-03-21T22:07:40.823125Z,-2.135305,-0.615633,-1.4479090000000001
2019-03-21T22:07:41.024125Z,-1.821375,-0.062946,0.622834
2019-03-21T22:07:41.225125Z,-1.123673,-2.592017,0.20908600000000002
2019-03-21T22:07:41.426125Z,-0.000605,-0.407368,0.180228
2019-03-21T22:07:41.627125Z,-0.398875,-0.102851,0.9743290000000001
2019-03-21T22:07:41.828125Z,-1.0356530000000002,-0.124491,0.288272
2019-03-21T22:07:42.030125Z,-0.08490700000000001,-0.5091220000000001,0.678346
2019-03-21T22:07:42.231125Z,-0.822657,-0.43922700000000003,0.295412
2019-03-21T22:07:42.432125Z,-0.516353,-0.233848,0.468504
2019-03-21T22:07:42.633125Z,-1.298411,-0.515242,1.527806
2019-03-21T22:07:42.847125Z,-0.608386,0.044726,0.706198
2019-03-21T22:07:43.036125Z,-0.280378,-0.073788,0.197138
2019-03-21T22:07:43.236125Z,-2.304255,-0.279158,-0.090304
2019-03-21T22:07:43.438125Z,-2.346094,-0.040042,0.596009
2019-03-21T22:07:43.639125Z,-1.2596040000000002,0.49590100000000004,0.714283
2019-03-21T22:07:43.840125Z,-0.106299,-1.712335,1.24315
2019-03-21T22:07:44.041125Z,-0.395554,-2.302166,1.285884
2019-03-21T22:07:44.242125Z,-0.785043,-1.368973,2.275738
2019-03-21T22:07:44.444125Z,-0.598453,-0.611306,0.954839
2019-03-21T22:07:44.645125Z,-1.012148,-1.15873,0.586277
2019-03-21T22:07:44.846125Z,-0.863859,-0.828942,0.793035
2019-03-21T22:07:45.048125Z,0.386685,-0.887178,0.765219
2019-03-21T22:07:45.248125Z,0.399938,-0.8736709999999999,0.883158
2019-03-21T22:07:45.470125Z,-1.160935,-0.9327709999999999,-1.4571479999999999
2019-03-21T22:07:45.651125Z,-1.152352,-0.9744809999999999,0.360823
2019-03-21T22:07:45.852125Z,0.513718,-0.96552,1.103421
2019-03-21T22:07:46.053125Z,0.320834,-0.778662,2.140513
2019-03-21T22:07:46.254125Z,0.318658,-0.320563,-0.347612
2019-03-21T22:07:46.456125Z,-0.233465,0.273279,-0.045552999999999996
2019-03-21T22:07:46.656125Z,-0.036706,1.165133,-0.039802
2019-03-21T22:07:46.858125Z,1.638082,-0.7203390000000001,0.65842
2019-03-21T22:07:47.059125Z,0.398016,-1.263822,0.401898
2019-03-21T22:07:47.260125Z,-0.956573,0.256089,-0.12879100000000002
2019-03-21T22:07:47.462125Z,-0.907998,0.610329,-0.45155
2019-03-21T22:07:47.663125Z,-0.012004,-1.0521790000000002,0.722796
2019-03-21T22:07:47.864125Z,-0.101539,-0.9257049999999999,0.660614
2019-03-21T22:07:48.065125Z,0.06654600000000001,0.28652,-0.342401
2019-03-21T22:07:48.266125Z,0.735941,0.8829110000000001,0.30755
2019-03-21T22:07:48.467125Z,0.7390479999999999,0.071975,0.190315
2019-03-21T22:07:48.668125Z,0.956003,0.200061,-0.233004
2019-03-21T22:07:48.870125Z,1.052945,0.427346,-0.335348
2019-03-21T22:07:49.070125Z,0.549161,0.133498,-0.784537
2019-03-21T22:07:49.272125Z,1.295632,0.024415,0.426521
2019-03-21T22:07:49.473125Z,0.472379,-0.152048,0.289988
2019-03-21T22:07:49.674125Z,0.178797,0.103155,0.855151
2019-03-21T22:07:49.876125Z,-0.13956400000000002,0.020225,0.334483
2019-03-21T22:07:50.077125Z,-0.409817,-0.12389700000000001,0.471792
2019-03-21T22:07:50.278125Z,0.174156,0.023948,-0.6010979999999999
2019-03-21T22:07:50.480125Z,0.145979,-0.187829,0.015739
2019-03-21T22:07:50.680125Z,-1.041824,-0.16736800000000002,-1.327349
2019-03-21T22:07:50.881125Z,-0.458917,0.5162979999999999,0.368097
2019-03-21T22:07:51.082125Z,-1.303077,-0.332287,-0.543134
2019-03-21T22:07:51.283125Z,-1.49129,-2.118935,2.214898
2019-03-21T22:07:51.485125Z,-0.9339799999999999,-1.922759,0.16506700000000002
2019-03-21T22:07:51.686125Z,-0.159826,-0.356649,-0.794265
2019-03-21T22:07:51.886125Z,-0.27715100000000004,0.074722,-1.0753489999999999
2019-03-21T22:07:52.087125Z,0.20481100000000002,0.582296,0.334782
2019-03-21T22:07:52.289125Z,-0.9669280000000001,-0.768281,1.338177
2019-03-21T22:07:52.490125Z,-0.025906000000000002,-0.665802,-0.476166
2019-03-21T22:07:52.691125Z,0.43059200000000003,0.156685,0.017577000000000002
2019-03-21T22:07:52.893125Z,-0.230769,-0.412448,-0.041526
2019-03-21T22:07:53.093125Z,-0.052466,0.263328,0.222887
2019-03-21T22:07:53.294125Z,-0.269972,0.011138,1.086168
2019-03-21T22:07:53.495125Z,-0.420196,0.640837,-0.10608599999999999
2019-03-21T22:07:53.697125Z,-0.32566300000000004,1.3653,-0.24696500000000002
2019-03-21T22:07:53.917125Z,-0.545639,1.7037849999999999,-0.8752219999999999
2019-03-21T22:07:54.099125Z,-0.729346,2.162586,-0.8878950000000001
2019-03-21T22:07:54.300125Z,-1.58051,1.970837,-1.518001
2019-03-21T22:07:54.501125Z,-0.218204,1.9412049999999998,1.268358
2019-03-21T22:07:54.702125Z,1.493267,1.657531,-1.075046
2019-03-21T22:07:54.904125Z,1.136884,0.875431,0.746528
2019-03-21T22:07:55.250125Z,2.045266,-0.379741,-0.389653
2019-03-21T22:07:55.451125Z,1.939548,0.342884,-0.579021
2019-03-21T22:07:55.652125Z,1.4286299999999998,0.164942,0.34006
2019-03-21T22:07:55.853125Z,0.19128199999999998,0.247491,0.209188
2019-03-21T22:07:56.055125Z,0.21583000000000002,0.165279,0.321415
2019-03-21T22:07:56.256125Z,0.473944,1.324365,-0.573196
2019-03-21T22:07:56.457125Z,-0.33113899999999996,1.825655,-0.818863
2019-03-21T22:07:56.658125Z,-0.100225,2.417638,-0.20859899999999998
2019-03-21T22:07:56.859125Z,-0.11529400000000001,1.840398,-0.417799
2019-03-21T22:07:57.060125Z,0.15977,2.063944,-0.890971
2019-03-21T22:07:57.261125Z,-0.129443,1.8679569999999999,-0.953699
2019-03-21T22:07:57.462125Z,-0.028527999999999998,1.278689,-0.773474
2019-03-21T22:07:57.663125Z,1.3045959999999999,1.908466,-0.8362360000000001
2019-03-21T22:07:57.864125Z,1.859452,3.6175010000000003,-0.091361
2019-03-21T22:07:58.065125Z,1.051608,1.576681,0.22882199999999997
2019-03-21T22:07:58.266125Z,-0.44815900000000003,0.8171619999999999,-0.23349699999999998
2019-03-21T22:07:58.754125Z,-2.2095740000000004,0.8765459999999999,1.097733
2019-03-21T22:07:58.955125Z,-2.9162630000000003,-1.1507479999999999,1.995555
2019-03-21T22:07:59.156125Z,-1.75842,-0.931393,0.715716
2019-03-21T22:07:59.357125Z,-1.653417,-1.01039,1.918061
2019-03-21T22:07:59.558125Z,-1.061588,-0.707313,0.965209
2019-03-21T22:07:59.759125Z,-1.275508,-0.8221440000000001,0.6125189999999999
2019-03-21T22:07:59.960125Z,-1.119985,-0.9679620000000001,0.756812
2019-03-21T22:08:00.161125Z,-1.267552,-1.013627,0.475182
2019-03-21T22:08:00.363125Z,-0.699838,-0.831259,0.787321
2019-03-21T22:08:00.564125Z,-0.31399099999999996,-1.579191,0.31469600000000003
2019-03-21T22:08:00.765125Z,1.345479,-0.815806,1.214583
2019-03-21T22:08:00.966125Z,0.126615,0.8365090000000001,0.287846
2019-03-21T22:08:01.167125Z,-0.156297,-1.266175,0.873674
2019-03-21T22:08:01.368125Z,-0.394137,-1.162267,-0.307142
2019-03-21T22:08:01.569125Z,-0.382243,-0.25057399999999996,-0.307525
2019-03-21T22:08:01.770125Z,-0.6344,0.246461,0.887339
2019-03-21T22:08:01.972125Z,-0.20083399999999998,0.032679,-0.130301
2019-03-21T22:08:02.172125Z,0.308829,-0.9413389999999999,2.523902
2019-03-21T22:08:02.374125Z,1.219926,-1.4526709999999998,0.165696
2019-03-21T22:08:02.575125Z,0.8515799999999999,-0.784468,-0.43537
2019-03-21T22:08:02.776125Z,0.699667,-0.49150299999999997,1.005191
2019-03-21T22:08:02.977125Z,0.488799,-0.531806,0.686793
2019-03-21T22:08:03.179125Z,-0.22278699999999999,-2.051109,-1.034561
2019-03-21T22:08:03.379125Z,-0.27462800000000004,-1.986262,1.3873739999999999
2019-03-21T22:08:03.782125Z,-0.096702,-1.730938,1.5933620000000002
2019-03-21T22:08:03.999125Z,-0.558652,-1.718492,0.55116
2019-03-21T22:08:04.184125Z,-0.433849,-1.395785,1.413901
2019-03-21T22:08:04.385125Z,-0.051625,-1.012704,0.599489
2019-03-21T22:08:04.586125Z,-0.463254,-0.48525100000000004,0.478822
2019-03-21T22:08:04.788125Z,-0.674426,-0.366977,0.719738
2019-03-21T22:08:04.988125Z,-0.39316799999999996,-1.555028,2.270883
2019-03-21T22:08:05.189125Z,-0.5557350000000001,-2.505145,0.778317
2019-03-21T22:08:05.391125Z,-0.44933500000000004,-0.996799,-0.5323939999999999
2019-03-21T22:08:05.591125Z,-1.163541,-0.03979,0.598353
2019-03-21T22:08:05.792125Z,-0.8927350000000001,-0.11921,0.21585700000000002
2019-03-21T22:08:05.994125Z,-0.317292,-1.8608919999999998,2.149841
2019-03-21T22:08:06.194125Z,0.041864,-3.333672,1.373893
2019-03-21T22:08:06.395125Z,0.203242,-2.052766,1.310094
2019-03-21T22:08:06.597125Z,0.080997,-1.855435,1.6924240000000002
2019-03-21T22:08:06.797125Z,-0.309813,-1.932857,1.652325
2019-03-21T22:08:07.508125Z,0.0,0.0,0.0
2019-03-21T22:08:07.708125Z,0.054738999999999996,0.309212,-0.14846700000000002
2019-03-21T22:08:07.910125Z,-0.0301,0.443193,-0.765041
2019-03-21T22:08:08.110125Z,-0.67006,-1.311883,0.008154
2019-03-21T22:08:08.311125Z,0.001267,-1.4292209999999999,-0.073389
2019-03-21T22:08:08.512125Z,0.992869,-0.348747,1.372586
2019-03-21T22:08:08.714125Z,0.36882,0.451615,0.389342
2019-03-21T22:08:08.915125Z,0.031975,-0.098477,-0.672385
2019-03-21T22:08:09.116125Z,-1.234278,-1.8532,0.20558800000000002
2019-03-21T22:08:09.317125Z,-0.608092,-1.1672040000000001,2.647238
2019-03-21T22:08:09.518125Z,-0.022195,-0.425967,0.690429
2019-03-21T22:08:09.719125Z,-0.369153,-0.24791799999999997,0.385411
2019-03-21T22:08:09.921125Z,-1.065669,-0.32971999999999996,0.276258
2019-03-21T22:08:10.121125Z,-1.125951,-0.368208,1.109019
2019-03-21T22:08:10.323125Z,-0.356267,0.196597,-0.306843
2019-03-21T22:08:10.524125Z,-0.730971,1.0676700000000001,-0.939901
2019-03-21T22:08:10.725125Z,-0.580986,1.2651729999999999,-1.207789
2019-03-21T22:08:10.926125Z,-0.254006,0.554027,-0.710082
2019-03-21T22:08:11.127125Z,-0.990721,-1.999797,0.759224
2019-03-21T22:08:11.328125Z,-0.6395890000000001,-1.83067,0.463751
2019-03-21T22:08:11.529125Z,-0.10316600000000001,-0.5142770000000001,-0.254786
2019-03-21T22:08:11.730125Z,-0.318604,0.434276,-0.8680709999999999
2019-03-21T22:08:11.932125Z,-1.06977,-0.855039,2.177304
2019-03-21T22:08:12.343125Z,-1.35172,-0.316418,1.8429939999999998
2019-03-21T22:08:12.543125Z,0.0,0.0,0.0
2019-03-21T22:08:12.745125Z,0.143367,-0.202775,-0.42921499999999996
2019-03-21T22:08:12.946125Z,-0.254037,-0.27468000000000004,-0.0052899999999999996
2019-03-21T22:08:13.172125Z,-0.952909,0.624269,-0.956714
2019-03-21T22:08:13.347125Z,-0.164826,1.311801,-0.409516
2019-03-21T22:08:13.549125Z,-0.304971,0.898252,-0.770551
2019-03-21T22:08:13.749125Z,-0.229147,0.778668,0.653079
2019-03-21T22:08:13.950125Z,-0.54925,-0.295467,-0.326885
2019-03-21T22:08:14.152125Z,-0.5206350000000001,0.818766,-0.41729399999999994
2019-03-21T22:08:14.352125Z,0.19855899999999999,1.466377,-0.528844
2019-03-21T22:08:14.553125Z,-0.958349,-0.131328,1.242104
2019-03-21T22:08:14.754125Z,-1.086811,-0.897784,-0.388824
2019-03-21T22:08:14.955125Z,-0.851151,-0.376112,0.291698
2019-03-21T22:08:15.156125Z,-0.550452,-0.158905,-0.39105999999999996
2019-03-21T22:08:15.357125Z,-0.42258599999999996,0.06508,0.146797
2019-03-21T22:08:15.845125Z,0.161848,0.035949,0.610345
2019-03-21T22:08:16.046125Z,0.577939,0.817836,-0.893116
2019-03-21T22:08:16.247125Z,0.161339,-0.177599,0.257698
2019-03-21T22:08:16.448125Z,0.695653,0.310132,0.311933
2019-03-21T22:08:16.649125Z,0.5755020000000001,0.313531,-0.713028
2019-03-21T22:08:16.850125Z,-0.52017,0.6897449999999999,-0.310449
2019-03-21T22:08:17.051125Z,-0.528036,1.893177,-0.377635
2019-03-21T22:08:17.251125Z,-0.174778,2.002047,-0.3114
2019-03-21T22:08:17.452125Z,0.56547,0.768794,0.436467
2019-03-21T22:08:17.653125Z,-0.057370000000000004,-0.935158,-2.145308
2019-03-21T22:08:17.855125Z,0.17738800000000002,-0.33962800000000004,-1.305273
2019-03-21T22:08:18.056125Z,0.736225,0.30999299999999996,0.292695
2019-03-21T22:08:18.257125Z,0.520584,-0.005966,-0.70338
2019-03-21T22:08:18.458125Z,0.143457,-1.391683,0.739314
2019-03-21T22:08:18.659125Z,-0.7652479999999999,-0.143454,-0.625947
2019-03-21T22:08:18.860125Z,0.14706,-0.067924,-0.861526
2019-03-21T22:08:19.061125Z,-0.050142,0.128544,1.7330009999999998
2019-03-21T22:08:19.262125Z,0.7080960000000001,-0.655095,1.410175
2019-03-21T22:08:19.463125Z,0.456342,-0.603967,0.26217199999999996
2019-03-21T22:08:19.664125Z,-0.43144799999999994,0.666801,-0.115105
2019-03-21T22:08:19.866125Z,-0.8390489999999999,0.526742,0.052976999999999996
2019-03-21T22:08:20.066125Z,0.9659639999999999,-0.059173,0.111719
2019-03-21T22:08:20.267125Z,-0.17816500000000002,-1.121521,1.26833
2019-03-21T22:08:20.468125Z,-0.57538,-0.863718,-0.406147
2019-03-21T22:08:20.669125Z,-1.124093,-0.772463,1.2165139999999999
2019-03-21T22:08:20.870125Z,-0.853886,-0.176761,0.631524
2019-03-21T22:08:21.071125Z,-0.813157,-0.35479299999999997,-0.12013099999999999
2019-03-21T22:08:21.272125Z,-0.258483,-1.006186,1.682893
2019-03-21T22:08:21.480125Z,-0.41240200000000005,0.208581,-0.9353790000000001
2019-03-21T22:08:21.674125Z,-0.670515,0.795172,-0.22304899999999997
2019-03-21T22:08:21.876125Z,-1.455916,0.858658,0.346129
2019-03-21T22:08:22.077125Z,-1.5069569999999999,0.386862,-0.26748299999999997
2019-03-21T22:08:22.278125Z,-1.379071,-1.499971,0.95034
2019-03-21T22:08:22.479125Z,-0.640467,-0.925083,0.7740229999999999
2019-03-21T22:08:22.680125Z,-0.8152010000000001,0.761533,0.017273
2019-03-21T22:08:22.881125Z,-0.428392,0.597059,-0.232196
2019-03-21T22:08:23.082125Z,-0.916881,-0.0009660000000000001,1.779527
2019-03-21T22:08:23.283125Z,-0.520357,0.299435,-0.9889399999999999
2019-03-21T22:08:23.484125Z,-0.6278699999999999,-1.25443,1.077867
2019-03-21T22:08:23.686125Z,0.115183,-0.78101,-0.555516
2019-03-21T22:08:23.886125Z,-0.169551,-0.038917,0.38745599999999997
2019-03-21T22:08:24.087125Z,-1.387402,-1.166636,1.232005
2019-03-21T22:08:24.288125Z,-0.95247,-0.989865,0.972907
2019-03-21T22:08:24.489125Z,-0.7183039999999999,0.42589899999999997,-1.313251
2019-03-21T22:08:24.691125Z,-0.835757,0.339149,-1.487117
2019-03-21T22:08:24.892125Z,-0.614768,0.117998,0.480335
2019-03-21T22:08:25.092125Z,-1.554798,-0.884042,-1.7694
2019-03-21T22:08:25.295125Z,-1.10048,-0.67423,-0.703719
2019-03-21T22:08:25.495125Z,-0.157637,-0.694479,1.105204
2019-03-21T22:08:25.696125Z,-0.376512,-0.537984,0.500607
2019-03-21T22:08:25.897125Z,-2.110491,0.581367,0.36495900000000003
2019-03-21T22:08:26.097125Z,-1.9971139999999998,1.163049,0.9810909999999999
2019-03-21T22:08:26.298125Z,-0.7200489999999999,0.180128,-0.308043
2019-03-21T22:08:26.499125Z,-1.335348,0.114078,0.49667700000000004
2019-03-21T22:08:26.700125Z,-2.495136,0.565354,-0.44297600000000004
2019-03-21T22:08:26.901125Z,-1.715514,1.425951,-1.110801
2019-03-21T22:08:27.102125Z,-1.992737,1.459525,-0.111489
2019-03-21T22:08:27.303125Z,-1.604382,0.562021,0.918027
2019-03-21T22:08:27.504125Z,0.006764,-0.559921,-0.05979500000000001
2019-03-21T22:08:27.705125Z,-1.587641,0.499013,-0.582708
2019-03-21T22:08:27.905125Z,-1.0686360000000001,0.876022,-0.77288
2019-03-21T22:08:28.106125Z,-0.742428,1.357177,0.16276600000000002
2019-03-21T22:08:28.307125Z,0.43091199999999996,0.36144699999999996,0.335171
2019-03-21T22:08:28.509125Z,-0.625923,-0.557949,-0.079912
2019-03-21T22:08:28.710125Z,0.523935,0.988133,-1.253247
2019-03-21T22:08:28.911125Z,0.540953,1.9699240000000002,-1.1663620000000001
2019-03-21T22:08:29.112125Z,0.559491,0.214962,0.43005299999999996
2019-03-21T22:08:29.312125Z,0.949818,-0.700024,1.995999
2019-03-21T22:08:29.513125Z,0.317281,0.044724,-0.040119999999999996
2019-03-21T22:08:29.720125Z,0.9463360000000001,0.591317,0.086698
2019-03-21T22:08:29.915125Z,0.7780590000000001,1.343425,-0.090175
2019-03-21T22:08:30.116125Z,1.245476,0.666091,1.333252
2019-03-21T22:08:30.317125Z,0.660618,-0.687013,0.5548569999999999
2019-03-21T22:08:30.518125Z,0.28828899999999996,0.36771,-0.350078
2019-03-21T22:08:30.719125Z,2.348187,1.487363,-0.8591059999999999
2019-03-21T22:08:30.920125Z,-1.663159,0.22732800000000003,-0.08035700000000001
2019-03-21T22:08:31.121125Z,0.021541,1.448521,-0.36144899999999996
2019-03-21T22:08:31.322125Z,-0.197982,-0.27379899999999996,0.524682
2019-03-21T22:08:31.523125Z,1.009582,-0.859741,0.070101
2019-03-21T22:08:31.724125Z,0.8874219999999999,0.24909,-1.302545
2019-03-21T22:08:31.926125Z,0.282526,0.658543,-1.315619
2019-03-21T22:08:32.147125Z,-0.678321,0.268851,-0.692285
2019-03-21T22:08:32.327125Z,-0.20809699999999998,0.388469,-1.710277
2019-03-21T22:08:32.528125Z,1.2538200000000002,1.8516259999999998,0.858191
2019-03-21T22:08:32.729125Z,-0.705759,2.967176,-1.460718
2019-03-21T22:08:32.930125Z,-1.565898,2.884064,-1.517513
2019-03-21T22:08:33.130125Z,0.299576,1.771779,0.396212
2019-03-21T22:08:33.332125Z,-0.265368,0.049367,-1.494426
2019-03-21T22:08:33.533125Z,0.075111,1.191614,-1.2443899999999999
2019-03-21T22:08:33.734125Z,0.538407,3.000731,-0.9228139999999999
2019-03-21T22:08:33.934125Z,0.129143,2.799704,-0.8132520000000001
2019-03-21T22:08:34.136125Z,0.512263,2.922835,-0.758009
2019-03-21T22:08:34.337125Z,1.676232,4.347034,-3.5046910000000002
2019-03-21T22:08:34.538125Z,0.496983,2.693197,-0.43539799999999995
2019-03-21T22:08:34.765125Z,0.622214,3.364576,1.4563709999999999
2019-03-21T22:08:34.940125Z,2.2581279999999997,3.4149519999999995,-1.393091
2019-03-21T22:08:35.141125Z,2.318206,1.951561,-0.682535
2019-03-21T22:08:35.342125Z,-3.159241,1.083372,-0.5454289999999999
2019-03-21T22:08:35.543125Z,-3.7917739999999998,2.612694,-0.41855600000000004
2019-03-21T22:08:35.744125Z,-2.496841,0.8471350000000001,-0.61422
2019-03-21T22:08:35.945125Z,-2.754887,-0.046174,1.4954889999999998
2019-03-21T22:08:36.146125Z,-2.54028,0.962471,-1.366547
2019-03-21T22:08:36.347125Z,-1.812677,1.2100549999999999,-1.026985
2019-03-21T22:08:36.548125Z,-2.900903,1.333492,1.05009
2019-03-21T22:08:36.749125Z,-2.7056009999999997,-0.45188500000000004,3.057034
2019-03-21T22:08:36.950125Z,-0.6489090000000001,-0.878848,0.964841
2019-03-21T22:08:37.151125Z,-0.74757,-0.21519000000000002,-0.07585
2019-03-21T22:08:37.352125Z,-0.5063949999999999,-0.044904,0.223413
2019-03-21T22:08:37.553125Z,-0.559415,0.09536,1.9547729999999999
2019-03-21T22:08:37.754125Z,-0.42464700000000005,-0.290877,0.233582
2019-03-21T22:08:37.955125Z,-0.43444099999999997,-0.378984,0.334549
2019-03-21T22:08:38.158125Z,-0.53146,-0.414008,1.101572
2019-03-21T22:08:38.357125Z,-0.415412,-0.047662,-0.61803
2019-03-21T22:08:38.558125Z,-1.1367530000000001,-1.574026,0.269822
2019-03-21T22:08:38.759125Z,-0.236222,-0.332285,0.299973
2019-03-21T22:08:38.960125Z,0.4861,-1.392025,0.405442
2019-03-21T22:08:39.161125Z,-2.509599,-1.758736,0.741302
2019-03-21T22:08:39.362125Z,0.388308,0.40660599999999997,-0.365203
2019-03-21T22:08:39.563125Z,0.7653220000000001,0.956145,1.9087740000000002
2019-03-21T22:08:39.764125Z,-0.213983,0.145853,-1.2415530000000001
2019-03-21T22:08:39.965125Z,0.702472,-1.2894860000000001,2.087898
2019-03-21T22:08:40.166125Z,0.9816879999999999,-0.305224,0.54459
2019-03-21T22:08:40.367125Z,0.537492,0.804617,0.015416
2019-03-21T22:08:40.568125Z,0.041475,-0.8493940000000001,-0.190448
2019-03-21T22:08:40.769125Z,1.01258,0.078625,0.004321
2019-03-21T22:08:40.970125Z,2.115606,1.0046620000000002,-0.801991
2019-03-21T22:08:41.171125Z,1.056236,1.477892,0.238105
2019-03-21T22:08:41.372125Z,0.5353680000000001,-0.385295,2.847309
2019-03-21T22:08:41.573125Z,1.485334,-0.687634,0.130123
2019-03-21T22:08:41.774125Z,1.5848879999999999,0.360734,-0.565788
2019-03-21T22:08:41.976125Z,0.924248,0.412724,0.019683000000000003
2019-03-21T22:08:42.176125Z,0.811555,-0.44726099999999996,1.3640709999999998
2019-03-21T22:08:42.377125Z,1.39353,-1.400691,1.0383
2019-03-21T22:08:42.578125Z,1.7855330000000003,-0.59003,0.180064
2019-03-21T22:08:42.779125Z,1.4006049999999999,-0.642947,0.868253
2019-03-21T22:08:42.980125Z,1.400408,-0.10004500000000001,-0.071505
2019-03-21T22:08:43.182125Z,0.21491,-0.892595,0.034575
2019-03-21T22:08:43.383125Z,-1.2137120000000001,-1.564812,1.265413
2019-03-21T22:08:43.584125Z,-1.0687799999999998,-0.8723559999999999,0.63694
2019-03-21T22:08:43.784125Z,0.380877,0.090949,-0.354621
2019-03-21T22:08:43.985125Z,-0.556601,-1.214474,2.428303
2019-03-21T22:08:44.187125Z,-0.916198,-2.154766,0.8358709999999999
2019-03-21T22:08:44.387125Z,-0.580495,-0.43799099999999996,-0.16558399999999998
2019-03-21T22:08:44.590125Z,-0.833885,0.164442,-0.8576440000000001
2019-03-21T22:08:44.790125Z,-1.094854,0.560397,0.399081
2019-03-21T22:08:44.990125Z,-1.07043,-0.316195,-1.193258
2019-03-21T22:08:45.191125Z,-2.024307,-0.296127,1.53146
2019-03-21T22:08:45.392125Z,-1.9563419999999998,0.8796700000000001,-1.51355
2019-03-21T22:08:45.593125Z,-1.9626560000000002,-0.35972800000000005,1.9492740000000002
2019-03-21T22:08:45.794125Z,-0.81313,-0.831885,-0.458215
2019-03-21T22:08:46.012125Z,-0.300254,-0.044611000000000005,-0.454401
2019-03-21T22:08:46.196125Z,-0.600621,0.10847799999999999,-0.222777
2019-03-21T22:08:46.397125Z,-0.130045,0.408983,1.5023360000000001
2019-03-21T22:08:46.599125Z,-1.019562,-1.702473,0.080389
2019-03-21T22:08:46.799125Z,-1.0678530000000002,-1.126845,1.171707
2019-03-21T22:08:47.000125Z,-0.936852,-0.064573,0.032038
2019-03-21T22:08:47.201125Z,-0.956141,0.314252,0.629458
2019-03-21T22:08:47.402125Z,-0.9470350000000001,-1.0056200000000002,-0.635682
2019-03-21T22:08:47.603125Z,-0.23201300000000002,-0.703271,0.100411
2019-03-21T22:08:47.804125Z,-0.5895560000000001,-0.10328,-0.9379270000000001
2019-03-21T22:08:48.005125Z,-0.195349,0.561298,0.680423
2019-03-21T22:08:48.206125Z,-1.287406,-0.982714,-1.20354
2019-03-21T22:08:48.424125Z,-1.8845349999999998,-2.328908,1.280284
2019-03-21T22:08:48.614125Z,-1.212641,-0.8264389999999999,0.8403370000000001
2019-03-21T22:08:48.809125Z,-1.280888,0.156693,-0.071791
2019-03-21T22:08:49.010125Z,-0.24612699999999998,-0.258223,0.8633149999999999
2019-03-21T22:08:49.225125Z,-0.015028,-1.227183,1.034198
2019-03-21T22:08:49.411125Z,-0.582604,-0.593121,-0.39913699999999996
2019-03-21T22:08:49.613125Z,-0.47781599999999996,0.46886300000000003,-1.131989
2019-03-21T22:08:49.813125Z,-0.657876,0.151478,0.355229
2019-03-21T22:08:50.014125Z,-0.8977120000000001,-1.019938,-0.376079
2019-03-21T22:08:50.215125Z,-0.8176220000000001,0.076887,-0.718707
2019-03-21T22:08:50.429125Z,0.213429,0.17366700000000002,0.052861
2019-03-21T22:08:50.618125Z,-0.870144,0.25788099999999997,0.69688
2019-03-21T22:08:50.818125Z,0.024061000000000003,-0.5703090000000001,0.223309
2019-03-21T22:08:51.019125Z,0.055906,-0.358003,-0.182822
2019-03-21T22:08:51.222125Z,-0.5708979999999999,0.147999,-0.839311
2019-03-21T22:08:51.421125Z,0.082985,1.384882,-1.295406
2019-03-21T22:08:51.622125Z,-1.338335,-0.482554,-0.203601
2019-03-21T22:08:51.823125Z,-1.505784,-0.5484180000000001,0.8797450000000001
2019-03-21T22:08:52.024125Z,-0.756534,0.468107,-0.294148
2019-03-21T22:08:52.225125Z,-0.817819,0.24095,0.773253
2019-03-21T22:08:52.426125Z,-1.315224,0.028655,1.472171
2019-03-21T22:08:52.627125Z,-0.562488,-0.923845,0.926739
2019-03-21T22:08:52.828125Z,-1.2738120000000002,-0.840563,-1.341907
2019-03-21T22:08:53.029125Z,-1.207144,-0.41581599999999996,0.151799
2019-03-21T22:08:53.230125Z,-1.663823,-0.386863,0.41295699999999996
2019-03-21T22:08:53.431125Z,-2.181779,-1.524052,-0.516574
2019-03-21T22:08:53.632125Z,-2.312537,-1.1198270000000001,0.9170729999999999
2019-03-21T22:08:53.833125Z,-1.775843,-0.561884,0.454205
2019-03-21T22:08:54.033125Z,-1.6768299999999998,-0.387872,1.6856099999999998
2019-03-21T22:08:54.234125Z,-1.4459950000000001,-0.916908,0.327989
2019-03-21T22:08:54.436125Z,-1.171243,-1.471594,1.4369969999999999
2019-03-21T22:08:54.681125Z,-0.9167639999999999,-0.760997,0.719549
2019-03-21T22:08:54.837125Z,-0.318212,0.142715,0.22178299999999998
2019-03-21T22:08:55.038125Z,-0.719431,0.336388,0.42912
2019-03-21T22:08:55.239125Z,-0.829254,-1.1914770000000001,2.189016
2019-03-21T22:08:55.440125Z,-0.652183,-1.0592620000000001,0.42496000000000006
2019-03-21T22:08:55.641125Z,-0.54062,-0.15718900000000002,-0.018234999999999998
2019-03-21T22:08:55.842125Z,-0.49210699999999996,0.33082399999999995,0.41222299999999995
2019-03-21T22:08:56.043125Z,-0.482523,0.630262,0.053377
2019-03-21T22:08:56.244125Z,-1.924794,-1.4824190000000002,0.5975739999999999
2019-03-21T22:08:56.445125Z,-0.8515020000000001,-1.707332,2.193837
2019-03-21T22:08:56.660125Z,-0.539175,-0.9374889999999999,0.102141
2019-03-21T22:08:56.879125Z,-0.452114,0.41255200000000003,-0.06485700000000001
2019-03-21T22:08:57.048125Z,-0.425659,0.843088,-0.624147
2019-03-21T22:08:57.249125Z,-0.704426,0.9852200000000001,-0.3572
2019-03-21T22:08:57.450125Z,-0.9561290000000001,-1.077426,2.495039
2019-03-21T22:08:57.650125Z,-0.47953999999999997,-1.2012610000000001,1.827536
2019-03-21T22:08:57.851125Z,-0.396444,0.343623,-0.104073
2019-03-21T22:08:58.052125Z,-0.7219909999999999,0.981598,-1.0215969999999999
2019-03-21T22:08:58.253125Z,-1.141608,0.13705699999999998,1.0440479999999999
2019-03-21T22:08:58.454125Z,-0.349379,0.559557,-1.526728
2019-03-21T22:08:58.655125Z,0.102086,0.39810500000000004,-0.091026
2019-03-21T22:08:58.856125Z,0.512441,1.631428,-0.48542399999999997
2019-03-21T22:08:59.057125Z,0.46321,1.9828400000000002,-1.3202459999999998
2019-03-21T22:08:59.258125Z,-0.282686,-0.360863,0.417112
2019-03-21T22:08:59.459125Z,1.049728,-1.075383,1.030602
2019-03-21T22:08:59.660125Z,1.385602,0.642103,-0.390304
2019-03-21T22:08:59.861125Z,0.904734,1.228425,-0.014927000000000001
2019-03-21T22:09:00.062125Z,0.870345,0.502815,1.684822
2019-03-21T22:09:00.263125Z,1.212238,0.136831,-1.140268
2019-03-21T22:09:00.490125Z,1.60796,2.379194,0.763871
2019-03-21T22:09:00.665125Z,1.747105,3.930395,-2.614075
2019-03-21T22:09:00.866125Z,0.23633600000000002,2.892937,0.391685
2019-03-21T22:09:01.067125Z,0.150052,2.117334,-0.783978
2019-03-21T22:09:01.267125Z,1.467433,2.727107,-0.461751
2019-03-21T22:09:01.468125Z,1.129975,2.088553,-0.555443
2019-03-21T22:09:01.669125Z,-0.02712,2.4563,-2.4186389999999998
2019-03-21T22:09:01.870125Z,0.008678,2.9629,1.5177829999999999
2019-03-21T22:09:02.071125Z,-0.12806800000000002,0.994767,-1.186451
2019-03-21T22:09:02.272125Z,1.354745,1.510478,-1.36409
2019-03-21T22:09:02.473125Z,1.386282,1.873645,-0.778931
2019-03-21T22:09:02.675125Z,0.774312,1.6520290000000002,-0.645019
2019-03-21T22:09:02.876125Z,0.46729899999999996,1.604601,0.110132
2019-03-21T22:09:03.076125Z,0.699346,1.707198,1.414628
2019-03-21T22:09:03.279125Z,0.31219,0.978875,-1.028016
2019-03-21T22:09:03.478125Z,0.035283999999999996,1.370746,-0.057997
2019-03-21T22:09:03.679125Z,0.8937930000000001,1.9382549999999998,-0.64761
2019-03-21T22:09:03.880125Z,0.284747,2.111272,-0.843442
2019-03-21T22:09:04.081125Z,0.11327100000000001,0.6657270000000001,-0.10625699999999999
2019-03-21T22:09:04.281125Z,-0.090941,-0.949241,0.6181840000000001
2019-03-21T22:09:04.482125Z,0.721316,1.190279,0.347165
2019-03-21T22:09:04.683125Z,0.448409,1.225467,-1.419171
2019-03-21T22:09:04.884125Z,-0.055795000000000004,0.976728,-0.119629
2019-03-21T22:09:05.086125Z,-0.206654,-0.061447,0.530834
2019-03-21T22:09:05.286125Z,0.415753,0.162915,0.7919609999999999
2019-03-21T22:09:05.487125Z,0.098108,0.8355319999999999,-0.616375
2019-03-21T22:09:05.688125Z,-0.620919,0.521935,-0.125125
2019-03-21T22:09:05.889125Z,-0.191018,0.47672,-0.708573
2019-03-21T22:09:06.090125Z,0.417721,0.494033,-0.966843
2019-03-21T22:09:06.291125Z,0.283866,0.680076,0.642076
2019-03-21T22:09:06.492125Z,-1.322355,-1.0979430000000001,0.615764
2019-03-21T22:09:06.693125Z,0.18475899999999998,-1.330729,0.207691
2019-03-21T22:09:06.894125Z,0.066356,-1.309607,0.717371
2019-03-21T22:09:07.094125Z,-0.9541430000000001,-0.407913,0.967526
2019-03-21T22:09:07.296125Z,-0.055096000000000006,0.185917,0.037136
2019-03-21T22:09:07.497125Z,-0.787953,0.42294499999999996,-0.51636
2019-03-21T22:09:07.698125Z,-1.375575,-0.827815,0.086684
2019-03-21T22:09:07.899125Z,-1.305491,-1.248444,0.905183
2019-03-21T22:09:08.099125Z,-0.9863299999999999,-0.19355999999999998,-0.041407
2019-03-21T22:09:08.301125Z,-1.941977,0.5234479999999999,-1.941848
2019-03-21T22:09:08.501125Z,-0.661371,1.0123,0.8796860000000001
2019-03-21T22:09:08.702125Z,-0.751297,-0.43518,0.101745
2019-03-21T22:09:08.903125Z,0.13084500000000002,-0.15221700000000002,0.30822
2019-03-21T22:09:09.104125Z,0.459096,1.014506,-0.289505
2019-03-21T22:09:09.305125Z,-0.038225999999999996,1.001671,-0.16298800000000002
2019-03-21T22:09:09.506125Z,-0.310136,0.132526,1.278181
2019-03-21T22:09:09.707125Z,-0.511432,-0.633821,0.941256
2019-03-21T22:09:09.908125Z,-1.2206190000000001,-0.512753,0.272929
2019-03-21T22:09:10.125125Z,-0.8293879999999999,0.6519229999999999,-0.109323
2019-03-21T22:09:10.309125Z,-0.792568,2.0109619999999997,0.241637
2019-03-21T22:09:10.510125Z,-1.346759,2.624771,-0.761072
2019-03-21T22:09:10.711125Z,-1.466361,-1.035788,1.105676
2019-03-21T22:09:10.913125Z,-1.233118,-0.244792,-0.307166
2019-03-21T22:09:11.113125Z,-0.7243689999999999,0.9405620000000001,-1.346422
2019-03-21T22:09:11.327125Z,-1.039665,1.5626799999999998,-0.6517109999999999
2019-03-21T22:09:11.531125Z,-1.640312,-0.9459879999999999,-0.085029
2019-03-21T22:09:11.716125Z,-1.1336760000000001,-0.89131,0.776049
2019-03-21T22:09:11.917125Z,-1.468236,-0.269546,-0.734404
2019-03-21T22:09:12.118125Z,-1.2849780000000002,-0.064988,1.2104
2019-03-21T22:09:12.319125Z,-0.7064199999999999,-0.750976,2.477221
2019-03-21T22:09:12.520125Z,0.553502,-0.483887,0.589583
2019-03-21T22:09:12.753125Z,-0.814674,0.347608,-3.5211580000000002
2019-03-21T22:09:12.922125Z,-1.6306100000000001,-0.102728,-0.214191
2019-03-21T22:09:13.123125Z,-1.036608,0.939142,0.534075
2019-03-21T22:09:13.324125Z,-1.555521,-1.080019,0.498962
2019-03-21T22:09:13.525125Z,-0.869216,-1.055498,0.6196550000000001
2019-03-21T22:09:13.725125Z,-0.804579,0.5244340000000001,-0.43525600000000003
2019-03-21T22:09:13.926125Z,-1.9242689999999998,0.45504700000000003,-2.354534
2019-03-21T22:09:14.128125Z,-1.1309770000000001,0.793955,0.586375
2019-03-21T22:09:14.328125Z,-0.927948,-0.947835,0.252812
2019-03-21T22:09:14.530125Z,-0.49965,-0.8602790000000001,0.9393239999999999
2019-03-21T22:09:14.730125Z,-0.34625500000000003,0.707183,0.772175
2019-03-21T22:09:14.931125Z,-0.43998100000000007,0.230435,1.863489
2019-03-21T22:09:15.132125Z,-1.272191,-1.594083,0.89292
2019-03-21T22:09:15.333125Z,-0.608064,-0.5290590000000001,-0.040473
2019-03-21T22:09:15.534125Z,-2.060334,-0.25035,-1.5526389999999999
2019-03-21T22:09:15.735125Z,-1.5811790000000001,-0.122097,0.306723
2019-03-21T22:09:15.936125Z,-2.0203860000000002,-0.049761,-0.052876
2019-03-21T22:09:16.137125Z,-1.8383330000000002,-0.461254,-0.095701
2019-03-21T22:09:16.338125Z,-0.691447,0.07661,0.11605599999999999
2019-03-21T22:09:16.539125Z,-0.184088,0.179027,-0.062395000000000006
2019-03-21T22:09:16.739125Z,-0.515654,-0.06857100000000001,-0.282346
2019-03-21T22:09:16.940125Z,-1.066476,-0.543049,0.35529099999999997
2019-03-21T22:09:17.141125Z,-1.1763290000000002,0.11205899999999999,-0.46057
2019-03-21T22:09:17.342125Z,-0.63347,0.8216469999999999,-0.063321
2019-03-21T22:09:17.543125Z,-1.415406,0.51583,-0.16254000000000002
2019-03-21T22:09:17.744125Z,-1.212908,-0.697279,-0.29396500000000003
2019-03-21T22:09:17.945125Z,-0.503219,-0.8389120000000001,2.81865
2019-03-21T22:09:18.146125Z,-1.0594860000000001,-0.266727,-0.691915
2019-03-21T22:09:18.346125Z,-1.6482860000000001,-0.351978,0.264824
2019-03-21T22:09:18.548125Z,-0.616264,-0.18626199999999998,0.5261819999999999
2019-03-21T22:09:18.748125Z,-2.036788,-0.8832040000000001,-0.142103
2019-03-21T22:09:18.949125Z,-0.520687,0.39082100000000003,0.476422
2019-03-21T22:09:19.150125Z,-0.727052,0.615032,-0.317497
2019-03-21T22:09:19.351125Z,-0.7422380000000001,0.727196,1.240437
2019-03-21T22:09:19.552125Z,-0.452298,-0.059721,0.035200999999999996
2019-03-21T22:09:19.753125Z,-0.480303,-0.702905,0.836543
2019-03-21T22:09:19.954125Z,0.403841,0.617418,-1.0674700000000001
2019-03-21T22:09:20.154125Z,0.8787520000000001,1.142951,-0.795816
2019-03-21T22:09:20.355125Z,-0.391832,0.38371900000000003,2.3433900000000003
2019-03-21T22:09:20.557125Z,-1.253321,-1.6536560000000002,-0.547479
2019-03-21T22:09:20.757125Z,-0.396383,-1.0751030000000001,1.6356950000000001
2019-03-21T22:09:20.958125Z,0.048242,0.050082999999999996,-0.278256
2019-03-21T22:09:21.159125Z,-0.871244,-1.066446,2.847214
2019-03-21T22:09:21.360125Z,0.991467,-1.380198,-0.565473
2019-03-21T22:09:21.563125Z,0.94473,-0.658492,0.8452629999999999
2019-03-21T22:09:21.762125Z,0.718317,0.34821599999999997,-0.190194
2019-03-21T22:09:21.963125Z,-0.32006599999999996,0.122579,0.174491
2019-03-21T22:09:22.163125Z,-0.772094,-2.397567,-0.488809
2019-03-21T22:09:22.364125Z,-0.621264,-1.6413509999999998,0.046638
2019-03-21T22:09:22.566125Z,-0.47921199999999997,-0.928451,2.02211
2019-03-21T22:09:22.767125Z,-0.157104,-0.060739999999999995,-0.661341
2019-03-21T22:09:22.967125Z,-1.471689,-1.111444,0.413099
2019-03-21T22:09:23.168125Z,-1.312006,-2.5727029999999997,0.8976639999999999
2019-03-21T22:09:23.369125Z,-1.196834,-1.763752,0.537046
2019-03-21T22:09:23.571125Z,-0.771356,-1.310651,2.411709
2019-03-21T22:09:23.773125Z,-1.3235290000000002,-1.64845,-0.6809729999999999
2019-03-21T22:09:23.972125Z,-0.5940310000000001,-1.6794060000000002,0.265761
2019-03-21T22:09:24.173125Z,-0.296319,-0.999592,0.551201
2019-03-21T22:09:24.374125Z,-0.260307,-0.303638,0.788403
2019-03-21T22:09:24.575125Z,0.286147,-0.9140719999999999,1.383723
2019-03-21T22:09:24.775125Z,-0.195677,-1.8373279999999999,-0.089724
2019-03-21T22:09:24.976125Z,0.224617,-0.46427799999999997,0.041742
2019-03-21T22:09:25.177125Z,-0.108402,0.336647,0.8241930000000001
2019-03-21T22:09:25.378125Z,-0.7662939999999999,-0.964889,1.1611770000000001
2019-03-21T22:09:25.579125Z,-1.0903040000000002,-1.5538020000000001,1.034745
2019-03-21T22:09:25.780125Z,-0.950851,-0.342359,-0.735394
2019-03-21T22:09:25.981125Z,-1.134309,-0.172622,-0.639184
2019-03-21T22:09:26.182125Z,-0.8030510000000001,-0.332399,0.678675
2019-03-21T22:09:26.382125Z,-0.78951,-1.079299,0.434595
2019-03-21T22:09:26.584125Z,-0.092679,-1.4692,0.538764
2019-03-21T22:09:26.798125Z,-0.252806,-1.642079,1.613928
2019-03-21T22:09:26.985125Z,0.239473,-1.351539,2.18621
2019-03-21T22:09:27.186125Z,-1.5473270000000001,-0.7982630000000001,0.934818
2019-03-21T22:09:27.387125Z,-1.119526,-0.9142389999999999,0.794536
2019-03-21T22:09:27.588125Z,-1.472921,-0.388944,0.9936159999999999
2019-03-21T22:09:27.789125Z,-1.089813,-1.026476,2.297307
2019-03-21T22:09:27.989125Z,-0.7347520000000001,-0.863231,0.20803000000000002
2019-03-21T22:09:28.190125Z,-0.600557,-0.021587000000000002,-0.847255
2019-03-21T22:09:28.391125Z,-2.2780549999999997,-0.016459,2.114651
2019-03-21T22:09:28.592125Z,-2.6452709999999997,-1.968093,1.95485
2019-03-21T22:09:28.793125Z,-1.9215380000000002,-1.580658,0.513181
2019-03-21T22:09:28.994125Z,-1.263936,-0.519396,-0.312473
2019-03-21T22:09:29.194125Z,-0.80889,-0.831468,0.583421
2019-03-21T22:09:29.395125Z,-0.198891,-1.17249,1.538473
2019-03-21T22:09:29.597125Z,1.064158,-1.993322,1.2170290000000001
2019-03-21T22:09:29.798125Z,0.67156,-1.14188,0.781768
2019-03-21T22:09:29.998125Z,0.158638,0.486868,-0.179839
2019-03-21T22:09:30.199125Z,0.792808,-2.8416580000000002,1.097576
2019-03-21T22:09:30.400125Z,1.199375,-2.476471,1.701659
2019-03-21T22:09:30.601125Z,1.1456469999999999,-1.4099389999999998,-1.138577
2019-03-21T22:09:30.801125Z,1.435682,-0.234481,-0.16858299999999998
2019-03-21T22:09:31.002125Z,0.881201,-0.227615,-0.054113999999999995
2019-03-21T22:09:31.203125Z,0.8291860000000001,0.296427,0.67533
2019-03-21T22:09:31.404125Z,1.4729729999999999,-1.265519,2.610184
2019-03-21T22:09:31.605125Z,2.7928290000000002,-1.339936,0.823917
2019-03-21T22:09:31.806125Z,3.068806,0.480818,0.195324
2019-03-21T22:09:32.007125Z,1.9559060000000001,0.751467,-1.100163
2019-03-21T22:09:32.207125Z,0.7224109999999999,-0.44270200000000004,1.27373
2019-03-21T22:09:32.408125Z,2.3912869999999997,-0.30709200000000003,2.057219
2019-03-21T22:09:32.609125Z,1.726881,-0.28420700000000004,0.377677
2019-03-21T22:09:32.810125Z,1.086286,-0.950852,0.44948299999999997
2019-03-21T22:09:33.011125Z,1.813714,-0.34979899999999997,1.603134
