Datetime,accx,accy,accz
2019-03-28T20:37:08.747074Z,0.226068,0.274879,-0.012075
2019-03-28T20:37:08.943074Z,0.18201900000000001,0.28488600000000003,0.046833
2019-03-28T20:37:09.147074Z,0.290928,-0.566134,0.338434
2019-03-28T20:37:09.342074Z,0.455754,-0.378271,-0.573743
2019-03-28T20:37:09.543074Z,0.542407,0.275213,-0.615123
2019-03-28T20:37:09.746074Z,-0.070535,0.655084,1.122095
2019-03-28T20:37:09.943074Z,-0.294443,-1.08535,0.543409
2019-03-28T20:37:10.170074Z,0.142453,-1.239803,-0.764493
2019-03-28T20:37:10.346074Z,-0.303247,0.46801499999999996,0.353727
2019-03-28T20:37:10.546074Z,-0.375126,-0.182568,0.260968
2019-03-28T20:37:10.747074Z,-0.12471600000000001,-0.970994,0.221575
2019-03-28T20:37:10.947074Z,-0.21998600000000001,-0.604314,-0.53568
2019-03-28T20:37:11.148074Z,-0.080163,0.019787,-0.08427899999999999
2019-03-28T20:37:11.359074Z,-0.624677,-0.159606,0.011318
2019-03-28T20:37:11.548074Z,-2.189327,-1.54502,0.816841
2019-03-28T20:37:11.748074Z,-1.43919,-1.7932259999999998,0.565959
2019-03-28T20:37:11.948074Z,-0.27975700000000003,-1.7496029999999998,1.5515459999999999
2019-03-28T20:37:12.146074Z,1.21225,-1.369526,0.237389
2019-03-28T20:37:12.346074Z,1.412226,-0.59716,1.44364
2019-03-28T20:37:12.549074Z,2.041475,-1.268127,1.099256
2019-03-28T20:37:12.746074Z,1.860513,-1.0309270000000001,-0.06300499999999999
2019-03-28T20:37:12.949074Z,1.940182,-0.606147,0.683533
2019-03-28T20:37:13.146074Z,0.539996,0.708782,0.21735500000000002
2019-03-28T20:37:13.349074Z,0.561471,-1.046,0.9872340000000001
2019-03-28T20:37:13.546074Z,0.948808,-1.432698,-0.10306300000000002
2019-03-28T20:37:13.746074Z,0.944831,-0.357579,0.051085000000000005
2019-03-28T20:37:13.950074Z,0.757021,0.523954,0.632532
2019-03-28T20:37:14.150074Z,1.08038,-0.501724,0.926372
2019-03-28T20:37:14.351074Z,0.94111,-1.394876,0.23201999999999998
2019-03-28T20:37:14.549074Z,0.5171789999999999,-0.288016,-0.449284
2019-03-28T20:37:14.748074Z,0.321336,0.294567,0.624962
2019-03-28T20:37:14.950074Z,0.040722,-0.25660900000000003,0.842744
2019-03-28T20:37:15.149074Z,0.592221,-1.316525,0.128432
2019-03-28T20:37:15.351074Z,0.479584,-0.39266100000000004,0.132471
2019-03-28T20:37:15.548074Z,-0.017664,0.278303,-0.094934
2019-03-28T20:37:15.749074Z,0.030657,0.176785,0.937348
2019-03-28T20:37:15.960074Z,0.8647729999999999,-1.083193,0.374313
2019-03-28T20:37:16.159074Z,0.694501,-0.677194,-0.21789099999999997
2019-03-28T20:37:16.354074Z,0.185453,0.16078699999999999,-0.676192
2019-03-28T20:37:16.552074Z,0.385208,0.984158,0.563859
2019-03-28T20:37:16.756074Z,0.504167,-0.9464959999999999,1.45523
2019-03-28T20:37:16.958074Z,0.624841,-1.20569,-0.426179
2019-03-28T20:37:17.150074Z,0.368169,-0.074545,-0.230586
2019-03-28T20:37:17.357074Z,0.083217,0.5125970000000001,0.48960699999999996
2019-03-28T20:37:17.557074Z,0.209477,-0.09548200000000001,0.48988999999999994
2019-03-28T20:37:17.750074Z,0.49774799999999997,-0.988827,-0.098389
2019-03-28T20:37:17.960074Z,0.610984,-0.38415,-0.130826
2019-03-28T20:37:18.164074Z,0.092785,0.831731,-0.36787600000000004
2019-03-28T20:37:18.353074Z,0.086394,0.12088399999999999,0.907126
2019-03-28T20:37:18.556074Z,0.70176,-0.8607450000000001,0.12369200000000001
2019-03-28T20:37:18.754074Z,-0.137685,-0.738452,0.309535
2019-03-28T20:37:18.952074Z,0.176539,0.033868999999999996,0.15664
2019-03-28T20:37:19.152074Z,0.406918,0.33520500000000003,0.078681
2019-03-28T20:37:19.354074Z,0.514247,-0.360937,0.43836800000000004
2019-03-28T20:37:19.552074Z,0.571259,-0.680068,-0.1891
2019-03-28T20:37:19.754074Z,0.292123,0.19832,-0.754394
2019-03-28T20:37:19.955074Z,-0.13739,0.618707,0.572921
2019-03-28T20:37:20.153074Z,0.315946,0.13464,0.45242
2019-03-28T20:37:20.355074Z,0.298498,-0.841678,0.035606
2019-03-28T20:37:20.553074Z,0.137572,-0.162369,-0.757238
2019-03-28T20:37:20.755074Z,-0.277015,0.46920500000000004,0.084945
2019-03-28T20:37:20.956074Z,-0.386863,0.011384,1.148994
2019-03-28T20:37:21.157074Z,0.186833,-0.715374,-0.103099
2019-03-28T20:37:21.355074Z,0.231102,-0.441266,-0.500095
2019-03-28T20:37:21.601074Z,0.47224700000000003,0.37566700000000003,0.18339
2019-03-28T20:37:21.756074Z,1.25678,-0.11073800000000002,1.119632
2019-03-28T20:37:21.956074Z,1.466625,-1.200921,0.449574
2019-03-28T20:37:22.156074Z,1.0650870000000001,-0.944041,0.050658999999999996
2019-03-28T20:37:22.356074Z,-0.35696500000000003,0.201645,-0.485471
2019-03-28T20:37:22.557074Z,-0.742653,-0.5830270000000001,1.073395
2019-03-28T20:37:22.757074Z,0.371483,-1.499414,0.9365450000000001
2019-03-28T20:37:22.957074Z,0.301593,-0.9482200000000001,-0.37969
2019-03-28T20:37:23.155074Z,1.0796299999999999,-0.368132,0.537553
2019-03-28T20:37:23.355074Z,0.9593299999999999,-1.252826,1.567443
2019-03-28T20:37:23.556074Z,1.1845780000000001,-2.012306,0.866643
2019-03-28T20:37:23.757074Z,0.9246489999999999,-1.277468,0.397081
2019-03-28T20:37:23.958074Z,0.12176600000000001,-1.045656,0.465185
2019-03-28T20:37:24.174074Z,-0.190663,-0.305002,0.590769
2019-03-28T20:37:24.356074Z,-0.617834,-1.052245,0.776247
2019-03-28T20:37:24.558074Z,0.30701999999999996,-1.192661,-0.28911
2019-03-28T20:37:24.759074Z,0.714742,-0.382853,0.173994
2019-03-28T20:37:24.959074Z,0.31688299999999997,-0.129924,0.582789
2019-03-28T20:37:25.157074Z,0.029441000000000002,-0.9525889999999999,1.0176530000000001
2019-03-28T20:37:25.357074Z,0.20075199999999999,-1.334442,0.22833699999999998
2019-03-28T20:37:25.558074Z,-0.024118999999999998,-0.512544,-0.24723699999999998
2019-03-28T20:37:25.759074Z,-0.002857,-0.11616800000000001,0.668659
2019-03-28T20:37:25.973074Z,0.726895,-0.376899,0.851786
2019-03-28T20:37:26.160074Z,0.81942,-1.04335,-0.044183999999999994
2019-03-28T20:37:26.359074Z,0.580883,-0.321546,-0.5701930000000001
2019-03-28T20:37:26.560074Z,0.069146,0.17138299999999998,0.846736
2019-03-28T20:37:26.759074Z,0.241944,-0.770116,0.817283
2019-03-28T20:37:26.959074Z,0.20971199999999998,-1.0524950000000002,-0.164079
2019-03-28T20:37:27.161074Z,0.199079,-0.348234,-0.21791300000000002
2019-03-28T20:37:27.359074Z,0.147957,0.40903,0.49105600000000005
2019-03-28T20:37:27.561074Z,0.33110300000000004,-0.187134,0.877983
2019-03-28T20:37:27.761074Z,0.369879,-1.238386,-0.23356300000000002
2019-03-28T20:37:27.988074Z,0.168855,-0.476441,-0.332418
2019-03-28T20:37:28.161074Z,-0.472679,0.375179,0.48029499999999997
2019-03-28T20:37:28.362074Z,-0.136015,-0.274654,0.730113
2019-03-28T20:37:28.561074Z,0.175038,-0.8309209999999999,-0.257322
2019-03-28T20:37:28.762074Z,-0.113972,-0.5547449999999999,0.008356
2019-03-28T20:37:28.961074Z,0.45191000000000003,0.139545,0.276169
2019-03-28T20:37:29.163074Z,0.9552129999999999,0.61047,0.787189
2019-03-28T20:37:29.362074Z,1.079843,-1.2118229999999999,0.40173600000000004
2019-03-28T20:37:29.563074Z,0.538371,-0.901855,-0.09804199999999999
2019-03-28T20:37:29.763074Z,0.5405800000000001,-0.083378,-0.23479
2019-03-28T20:37:29.967074Z,-0.335333,0.207866,-0.432537
2019-03-28T20:37:30.165074Z,-2.005845,0.8461110000000001,0.006881999999999999
2019-03-28T20:37:30.365074Z,-2.662007,-1.813078,0.8367600000000001
2019-03-28T20:37:30.564074Z,-0.858676,-2.0064130000000002,1.137083
2019-03-28T20:37:30.764074Z,-0.335185,-0.970426,0.890972
2019-03-28T20:37:30.964074Z,0.778061,0.0893,-1.59295
2019-03-28T20:37:31.164074Z,1.639572,0.186869,1.344799
2019-03-28T20:37:31.364074Z,1.5851600000000001,-0.666587,0.610284
2019-03-28T20:37:31.563074Z,1.061547,-0.37104699999999996,0.176805
2019-03-28T20:37:31.763074Z,0.658324,-0.013268,0.078909
2019-03-28T20:37:31.964074Z,0.8480979999999999,0.094836,0.319623
2019-03-28T20:37:32.165074Z,0.712823,-0.985302,0.420803
2019-03-28T20:37:32.364074Z,0.581845,-0.8708290000000001,0.124616
2019-03-28T20:37:32.565074Z,0.445007,-0.21413200000000002,0.334704
2019-03-28T20:37:32.764074Z,1.100809,-0.360637,0.523975
2019-03-28T20:37:32.996074Z,1.142907,-0.110049,-0.058011
2019-03-28T20:37:33.164074Z,0.366302,-0.16325599999999998,0.314737
2019-03-28T20:37:33.367074Z,0.09326,0.013302000000000001,-0.016108
2019-03-28T20:37:33.565074Z,-0.52823,0.08344299999999999,-0.35585300000000003
2019-03-28T20:37:33.766074Z,-0.021837,-0.348734,0.251975
2019-03-28T20:37:33.965074Z,0.38698699999999997,-0.11188499999999998,0.41195
2019-03-28T20:37:34.167074Z,1.050222,0.26415700000000003,0.267473
2019-03-28T20:37:34.366074Z,0.996017,-0.27515,0.408031
2019-03-28T20:37:34.566074Z,0.356097,-0.90704,-0.339679
2019-03-28T20:37:34.767074Z,0.511599,0.033731,0.23705500000000002
2019-03-28T20:37:34.969074Z,0.063653,-0.321409,0.600308
2019-03-28T20:37:35.192074Z,0.949342,0.08329099999999999,0.11739000000000001
2019-03-28T20:37:35.368074Z,0.803934,0.31057399999999996,0.133679
2019-03-28T20:37:35.568074Z,0.862057,-1.043923,0.23613
2019-03-28T20:37:35.769074Z,0.587507,-1.035574,-0.203983
2019-03-28T20:37:36.011074Z,-0.21718,-0.795562,0.318371
2019-03-28T20:37:36.167074Z,-0.47394,-0.478803,0.66591
2019-03-28T20:37:36.369074Z,-0.094823,-0.463929,0.217574
2019-03-28T20:37:36.569074Z,0.200602,0.040401,0.540103
2019-03-28T20:37:36.770074Z,1.052232,-0.746394,0.725575
2019-03-28T20:37:36.969074Z,1.24153,-0.705084,0.025925
2019-03-28T20:37:37.175074Z,1.173724,-0.37931,-0.050817
2019-03-28T20:37:37.374074Z,1.13884,-0.039577,-0.286166
2019-03-28T20:37:37.571074Z,1.019799,0.29978899999999997,0.42983299999999997
2019-03-28T20:37:37.825074Z,0.6920810000000001,-0.034736,0.141011
2019-03-28T20:37:37.971074Z,0.546702,-0.77803,-0.096425
2019-03-28T20:37:38.173074Z,0.441999,-0.31451999999999997,0.064974
2019-03-28T20:37:38.370074Z,0.249187,0.171287,-0.002132
2019-03-28T20:37:38.570074Z,0.343532,0.41045,0.42623199999999994
2019-03-28T20:37:38.770074Z,1.11544,-0.588666,0.364646
2019-03-28T20:37:39.004074Z,0.9685290000000001,-0.544373,-0.22225599999999998
2019-03-28T20:37:39.170074Z,1.131521,0.22911700000000002,-0.015494999999999998
2019-03-28T20:37:39.371074Z,0.889742,0.34367,0.500223
2019-03-28T20:37:39.572074Z,1.296535,-1.086441,0.990763
2019-03-28T20:37:39.771074Z,1.270585,-0.978893,-0.236577
2019-03-28T20:37:39.973074Z,0.39303899999999997,-0.649995,0.272277
2019-03-28T20:37:40.172074Z,-0.068495,0.5827359999999999,0.007898
2019-03-28T20:37:40.373074Z,-0.21306399999999998,0.647856,0.255379
2019-03-28T20:37:40.573074Z,-0.074723,-1.4265649999999999,1.1411069999999999
2019-03-28T20:37:40.771074Z,0.335104,-1.062837,-0.6552479999999999
2019-03-28T20:37:40.990074Z,0.141317,-0.199014,-0.49260600000000004
2019-03-28T20:37:41.172074Z,-0.255731,0.49166400000000005,1.1610559999999999
2019-03-28T20:37:41.376074Z,0.027169,-0.785062,0.8652559999999999
2019-03-28T20:37:41.573074Z,0.079358,-1.240383,-0.247421
2019-03-28T20:37:41.774074Z,0.8603139999999999,-0.747534,0.300453
2019-03-28T20:37:41.973074Z,1.40838,-1.0126190000000002,0.598893
2019-03-28T20:37:42.174074Z,1.461442,-1.455921,0.9362659999999999
2019-03-28T20:37:42.373074Z,0.989691,-1.307138,0.20741300000000001
2019-03-28T20:37:42.575074Z,0.833569,-0.6748970000000001,0.220448
2019-03-28T20:37:42.775074Z,-0.715838,-0.9752209999999999,0.79784
2019-03-28T20:37:42.975074Z,-0.684131,-1.242082,0.512575
2019-03-28T20:37:43.205074Z,-0.9614510000000001,-0.6039439999999999,-0.49956999999999996
2019-03-28T20:37:43.376074Z,-0.9622040000000001,-0.298338,0.25411500000000004
2019-03-28T20:37:43.576074Z,-1.091683,-0.36896799999999996,1.174617
2019-03-28T20:37:43.776074Z,-0.836101,-1.45225,-0.014658000000000001
2019-03-28T20:37:43.975074Z,-1.111284,-1.053117,0.46443999999999996
2019-03-28T20:37:44.175074Z,0.012147,-0.742735,0.39655999999999997
2019-03-28T20:37:44.375074Z,0.847973,0.179981,0.053499
2019-03-28T20:37:44.576074Z,0.574575,-0.10998499999999999,0.895985
2019-03-28T20:37:44.775074Z,0.219218,-0.9790459999999999,-0.39981500000000003
2019-03-28T20:37:44.975074Z,0.198228,-0.111006,-0.313481
2019-03-28T20:37:45.177074Z,0.278391,0.210535,0.544771
2019-03-28T20:37:45.377074Z,0.726297,-0.36737,0.263772
2019-03-28T20:37:45.576074Z,0.784362,-0.542661,-0.279173
2019-03-28T20:37:45.778074Z,0.6402800000000001,-0.080109,-0.189146
2019-03-28T20:37:45.977074Z,0.7099810000000001,0.479792,0.097152
2019-03-28T20:37:46.176074Z,1.265611,-0.242164,1.0269780000000002
2019-03-28T20:37:46.378074Z,1.174647,-1.273396,0.296241
2019-03-28T20:37:46.578074Z,0.609952,-0.746125,-0.0573
2019-03-28T20:37:46.778074Z,-0.270766,-0.309162,0.12263800000000001
2019-03-28T20:37:46.978074Z,-0.583742,-0.11684800000000001,0.08191
2019-03-28T20:37:47.179074Z,0.30751300000000004,-0.877975,0.770474
2019-03-28T20:37:47.379074Z,0.6803100000000001,-0.909809,-0.122652
2019-03-28T20:37:47.579074Z,0.391104,-0.345851,-0.40979099999999996
2019-03-28T20:37:47.779074Z,0.469017,0.082957,0.170621
2019-03-28T20:37:47.979074Z,0.55571,-0.696654,0.8298700000000001
2019-03-28T20:37:48.180074Z,0.333919,-1.354733,0.604644
2019-03-28T20:37:48.380074Z,0.752958,-1.246566,0.147426
2019-03-28T20:37:48.580074Z,0.35901900000000003,-0.689505,0.151945
2019-03-28T20:37:48.780074Z,0.682348,-0.234629,0.678702
2019-03-28T20:37:48.979074Z,-0.413468,-2.125134,1.076629
2019-03-28T20:37:49.181074Z,0.762324,-1.341507,-0.057374
2019-03-28T20:37:49.381074Z,0.585975,-0.790303,0.049831
2019-03-28T20:37:49.584074Z,0.084005,-0.5062770000000001,0.46154799999999996
2019-03-28T20:37:49.782074Z,0.555793,-0.483609,0.199363
2019-03-28T20:37:49.981074Z,-0.35238600000000003,-0.989898,0.13441199999999998
2019-03-28T20:37:50.182074Z,-1.1671200000000002,-0.974608,-0.034925
2019-03-28T20:37:50.381074Z,-0.5756020000000001,-0.6344920000000001,0.031891
2019-03-28T20:37:50.582074Z,-0.8484860000000001,-0.336997,0.649742
2019-03-28T20:37:50.781074Z,-0.22139499999999998,-0.044598,-0.037555
2019-03-28T20:37:50.982074Z,0.366508,-0.9181370000000001,0.669732
2019-03-28T20:37:51.181074Z,0.724673,-1.0644049999999998,0.002019
2019-03-28T20:37:51.387074Z,0.595899,-0.112049,-0.272326
2019-03-28T20:37:51.581074Z,-0.33014,-0.211673,0.292134
2019-03-28T20:37:51.782074Z,-0.350627,-1.230617,0.920074
2019-03-28T20:37:51.984074Z,-0.234629,-1.3381889999999999,-0.14888099999999999
2019-03-28T20:37:52.183074Z,-0.07067999999999999,-0.733017,0.29529
2019-03-28T20:37:52.384074Z,0.631861,-0.372262,0.48357100000000003
2019-03-28T20:37:52.584074Z,0.950299,0.090806,0.421309
2019-03-28T20:37:52.784074Z,1.1357760000000001,-0.524768,0.467929
2019-03-28T20:37:52.984074Z,1.222429,-0.532954,-0.06940199999999999
2019-03-28T20:37:53.202074Z,0.943125,0.153856,-0.231344
2019-03-28T20:37:53.385074Z,0.877801,0.363124,0.12934600000000002
2019-03-28T20:37:53.583074Z,0.7234659999999999,0.282893,0.44317799999999996
2019-03-28T20:37:53.785074Z,0.664039,-0.8883059999999999,0.178635
2019-03-28T20:37:53.984074Z,0.837884,-0.155841,-0.4249
2019-03-28T20:37:54.185074Z,0.8994549999999999,0.136916,0.051055
2019-03-28T20:37:54.386074Z,0.967864,0.11031600000000001,0.45308699999999996
2019-03-28T20:37:54.585074Z,1.31521,-0.761804,0.7887569999999999
2019-03-28T20:37:54.785074Z,1.279413,-1.069921,-0.135722
2019-03-28T20:37:54.987074Z,0.580702,-0.43741199999999997,-0.023422
2019-03-28T20:37:55.187074Z,0.047062,-0.06429800000000001,-0.12493900000000001
2019-03-28T20:37:55.386074Z,0.082215,0.578176,0.14771199999999998
2019-03-28T20:37:55.587074Z,0.760483,0.3698,0.6596770000000001
2019-03-28T20:37:55.787074Z,0.8476790000000001,-1.759729,0.799146
2019-03-28T20:37:55.987074Z,1.237188,-1.739814,0.24433400000000002
2019-03-28T20:37:56.188074Z,1.239809,-1.370929,0.579946
2019-03-28T20:37:56.387074Z,0.26469000000000004,-1.147586,0.6104350000000001
2019-03-28T20:37:56.587074Z,-0.71546,-0.7437010000000001,0.476995
2019-03-28T20:37:56.787074Z,-0.002316,-0.8792139999999999,0.682145
2019-03-28T20:37:56.993074Z,0.208486,-1.212709,0.043887999999999996
2019-03-28T20:37:57.187074Z,-0.379874,-0.518373,0.15494000000000002
2019-03-28T20:37:57.388074Z,-1.5185440000000001,-0.79757,0.397528
2019-03-28T20:37:57.588074Z,-1.294168,-1.720372,0.796901
2019-03-28T20:37:57.789074Z,-0.765321,-1.503737,0.178901
2019-03-28T20:37:57.993074Z,-0.368102,-0.7196859999999999,0.481807
2019-03-28T20:37:58.189074Z,0.40337399999999995,-0.096512,0.24067600000000003
2019-03-28T20:37:58.394074Z,0.754829,0.400546,0.40630700000000003
2019-03-28T20:37:58.590074Z,0.795852,-0.701735,0.20088699999999998
2019-03-28T20:37:58.790074Z,0.022175,-0.5579729999999999,-0.225081
2019-03-28T20:37:58.989074Z,-0.596647,-0.36399699999999996,-0.102654
2019-03-28T20:37:59.190074Z,-0.7206239999999999,-0.751063,0.6941
2019-03-28T20:37:59.391074Z,-0.315145,-1.855891,0.808619
2019-03-28T20:37:59.591074Z,0.542324,-0.33413200000000004,-0.271444
2019-03-28T20:37:59.789074Z,1.231324,-0.347491,0.5811430000000001
2019-03-28T20:37:59.991074Z,1.6650369999999999,0.7494529999999999,0.48596999999999996
2019-03-28T20:38:00.191074Z,1.121565,-0.211657,0.214513
2019-03-28T20:38:00.390074Z,1.739336,-1.0055969999999999,0.22775900000000002
2019-03-28T20:38:00.590074Z,1.188287,-0.519912,-0.232339
2019-03-28T20:38:00.792074Z,0.5775319999999999,-0.077519,0.226946
2019-03-28T20:38:00.993074Z,1.142841,0.65857,0.029449
2019-03-28T20:38:01.192074Z,1.339013,0.382658,-0.10128
2019-03-28T20:38:01.392074Z,0.46904399999999996,0.178702,0.48340900000000003
2019-03-28T20:38:01.593074Z,0.076704,-0.923543,0.375306
2019-03-28T20:38:01.792074Z,0.013286000000000001,-1.306706,-0.05588099999999999
2019-03-28T20:38:01.993074Z,0.104468,-0.537791,0.199296
2019-03-28T20:38:02.227074Z,0.394409,0.358756,-0.21681399999999998
2019-03-28T20:38:02.395074Z,0.46701000000000004,-0.694282,1.1281780000000001
2019-03-28T20:38:02.595074Z,1.729586,-1.360474,0.438515
2019-03-28T20:38:02.792074Z,1.2419440000000002,-1.280297,-0.13633800000000001
2019-03-28T20:38:02.994074Z,0.630106,-0.43853000000000003,-0.008309
2019-03-28T20:38:03.195074Z,-0.385846,-0.24913600000000002,0.9368719999999999
2019-03-28T20:38:03.395074Z,0.09863,-0.956576,0.9870030000000001
2019-03-28T20:38:03.595074Z,-0.18141500000000002,-1.567519,-0.21116999999999997
2019-03-28T20:38:03.795074Z,-0.30793000000000004,-0.891158,0.098466
2019-03-28T20:38:03.994074Z,-0.262291,-0.330092,-0.06486
2019-03-28T20:38:04.194074Z,-0.418415,-0.377676,0.980549
2019-03-28T20:38:04.394074Z,0.21671300000000002,-1.3645399999999999,0.617486
2019-03-28T20:38:04.594074Z,-0.005972,-0.9987290000000001,-0.234298
2019-03-28T20:38:04.807074Z,-1.013352,-0.600421,-0.358487
2019-03-28T20:38:04.996074Z,-0.5480520000000001,-0.419966,1.2995809999999999
2019-03-28T20:38:05.195074Z,-0.43060299999999996,-1.3504559999999999,0.289992
2019-03-28T20:38:05.396074Z,-0.280379,-0.8324530000000001,0.173572
2019-03-28T20:38:05.596074Z,-0.111775,-0.496885,0.273808
2019-03-28T20:38:05.796074Z,0.598376,-0.021903,0.369749
2019-03-28T20:38:05.996074Z,0.678292,0.365239,0.129752
2019-03-28T20:38:06.196074Z,0.864509,-0.678561,0.32007199999999997
2019-03-28T20:38:06.406074Z,0.296109,-0.41720100000000004,-0.548473
2019-03-28T20:38:06.597074Z,-0.565179,0.00329,-0.095278
2019-03-28T20:38:06.797074Z,-0.42343800000000004,-0.339086,0.684808
2019-03-28T20:38:06.997074Z,0.023056999999999998,-1.435813,0.5552520000000001
2019-03-28T20:38:07.197074Z,0.616346,-1.490318,0.354525
2019-03-28T20:38:07.396074Z,0.854459,-0.900598,0.5725939999999999
2019-03-28T20:38:07.597074Z,1.388216,-0.102572,0.010461
2019-03-28T20:38:07.797074Z,0.654307,0.190465,0.053042
2019-03-28T20:38:07.997074Z,0.554983,-0.354269,0.33271999999999996
2019-03-28T20:38:08.198074Z,0.8302649999999999,-0.16134300000000001,-0.273333
2019-03-28T20:38:08.397074Z,0.41102299999999997,0.655497,-0.381288
2019-03-28T20:38:08.599074Z,0.517967,0.888165,-0.06906
2019-03-28T20:38:08.798074Z,0.727023,0.390032,0.392285
2019-03-28T20:38:08.998074Z,0.811435,-0.864826,0.42087700000000006
2019-03-28T20:38:09.199074Z,0.935158,-0.67211,-0.34326100000000004
2019-03-28T20:38:09.400074Z,1.015046,0.142542,-0.000322
2019-03-28T20:38:09.599074Z,0.78333,0.606924,0.295743
2019-03-28T20:38:09.800074Z,1.2762440000000002,-0.7624310000000001,0.7455149999999999
2019-03-28T20:38:10.006074Z,1.8891830000000003,-1.012765,0.005915999999999999
2019-03-28T20:38:10.199074Z,1.0688520000000001,-0.439091,-0.231812
2019-03-28T20:38:10.400074Z,0.041234,0.41211099999999995,-0.18997999999999998
2019-03-28T20:38:10.600074Z,-0.018322,0.5122909999999999,0.610491
2019-03-28T20:38:10.801074Z,-0.043522000000000005,-1.085504,0.49825200000000003
2019-03-28T20:38:11.001074Z,-0.38897600000000004,-1.287439,-0.07394099999999999
2019-03-28T20:38:11.201074Z,0.19182000000000002,-0.235168,0.126526
2019-03-28T20:38:11.400074Z,0.224318,-0.088864,0.037551999999999995
2019-03-28T20:38:11.602074Z,0.788405,-0.371152,0.7293029999999999
2019-03-28T20:38:11.802074Z,1.473076,-1.3031629999999998,0.451412
2019-03-28T20:38:12.001074Z,1.616098,-1.10657,0.075445
2019-03-28T20:38:12.201074Z,1.3031190000000001,-0.973023,0.5892430000000001
2019-03-28T20:38:12.401074Z,0.225719,-0.713152,0.24793
2019-03-28T20:38:12.603074Z,-0.6090369999999999,-0.9082530000000001,0.790566
2019-03-28T20:38:12.802074Z,-0.454779,-1.524365,0.276082
2019-03-28T20:38:13.002074Z,0.034012,-0.75202,-0.161301
2019-03-28T20:38:13.203074Z,-0.04342,0.121656,0.18748199999999998
2019-03-28T20:38:13.410074Z,-0.025841000000000003,-0.171968,0.9670120000000001
2019-03-28T20:38:13.603074Z,0.63162,-1.534291,0.281996
2019-03-28T20:38:13.807074Z,0.040274000000000004,-1.05796,-0.276383
2019-03-28T20:38:14.004074Z,0.251515,-0.320729,0.083172
2019-03-28T20:38:14.205074Z,0.566411,-0.278725,0.902344
2019-03-28T20:38:14.404074Z,0.094661,-1.032197,0.33161599999999997
2019-03-28T20:38:14.607074Z,-0.387754,-0.8663350000000001,-0.290654
2019-03-28T20:38:14.804074Z,-0.288473,-0.08397,-0.07546
2019-03-28T20:38:15.008074Z,-0.032832,0.281783,0.9657100000000001
2019-03-28T20:38:15.209074Z,0.32600500000000004,-0.527664,0.065248
2019-03-28T20:38:15.409074Z,0.47005699999999995,-1.07778,0.072372
2019-03-28T20:38:15.607074Z,0.42206499999999997,-0.343848,-0.318264
2019-03-28T20:38:15.849074Z,0.533826,0.458563,-0.17038699999999998
2019-03-28T20:38:16.007074Z,-0.12231900000000001,-0.287028,1.19068
2019-03-28T20:38:16.217074Z,0.336482,-1.1676540000000002,-0.132973
2019-03-28T20:38:16.406074Z,0.290109,-0.379345,-0.378591
2019-03-28T20:38:16.610074Z,-0.15442899999999998,0.04325,0.22425100000000003
2019-03-28T20:38:16.807074Z,-0.290871,-0.025687,0.9743809999999999
2019-03-28T20:38:17.008074Z,0.37495100000000003,-1.0341120000000001,-0.331853
2019-03-28T20:38:17.241074Z,0.001235,-0.036902,-0.8983120000000001
2019-03-28T20:38:17.408074Z,-0.24366500000000002,0.233735,0.106352
2019-03-28T20:38:17.620074Z,-0.217047,0.15318299999999999,0.911531
2019-03-28T20:38:17.807074Z,-0.472234,-0.8126760000000001,0.06811
2019-03-28T20:38:18.012074Z,-0.583851,-0.459028,-0.23817800000000003
2019-03-28T20:38:18.212074Z,-0.236046,0.07671900000000001,0.035213999999999995
2019-03-28T20:38:18.410074Z,-0.277306,0.39866399999999996,0.622917
2019-03-28T20:38:18.608074Z,1.082804,-1.0476020000000001,0.219296
2019-03-28T20:38:18.808074Z,0.685758,-0.657096,-0.354678
2019-03-28T20:38:19.008074Z,0.930378,0.059104,-0.102398
2019-03-28T20:38:19.207074Z,1.111062,0.510446,0.691718
2019-03-28T20:38:19.408074Z,1.4207969999999999,-1.218501,1.115573
2019-03-28T20:38:19.608074Z,1.6545900000000002,-1.58395,0.5636369999999999
2019-03-28T20:38:19.808074Z,0.406227,-1.708059,0.320995
2019-03-28T20:38:20.009074Z,-0.9589989999999999,-1.705914,1.498802
2019-03-28T20:38:20.210074Z,-0.470814,-0.812491,-0.088349
2019-03-28T20:38:20.410074Z,-0.163287,0.190588,-0.017855000000000003
2019-03-28T20:38:20.679074Z,-0.026941000000000003,-0.209826,0.619791
2019-03-28T20:38:20.810074Z,-0.9071459999999999,-1.331789,0.42495299999999997
2019-03-28T20:38:21.011074Z,-1.427133,-1.1894280000000002,0.112284
2019-03-28T20:38:21.211074Z,-0.029642,-0.595725,0.31735399999999997
2019-03-28T20:38:21.411074Z,-0.32051599999999997,-0.098039,0.5607260000000001
2019-03-28T20:38:21.610074Z,0.795193,-1.3146879999999999,0.778134
2019-03-28T20:38:21.812074Z,0.39921999999999996,-1.2029,0.1158
2019-03-28T20:38:22.012074Z,-0.494561,-0.429595,-0.43292700000000006
2019-03-28T20:38:22.212074Z,-0.761179,0.442725,0.22568400000000002
2019-03-28T20:38:22.412074Z,-1.838124,-0.510848,0.923018
2019-03-28T20:38:22.612074Z,-1.8598240000000001,-2.4436150000000003,-0.164962
2019-03-28T20:38:22.813074Z,-1.0427950000000001,-1.314337,0.413103
2019-03-28T20:38:23.011074Z,0.339787,-0.5891029999999999,1.026727
2019-03-28T20:38:23.213074Z,0.817463,0.077285,0.642016
2019-03-28T20:38:23.413074Z,1.438289,-0.675982,-0.400781
2019-03-28T20:38:23.613074Z,1.3333059999999999,0.10766400000000001,-0.517192
2019-03-28T20:38:23.812074Z,0.268288,1.10658,0.043376
2019-03-28T20:38:24.014074Z,0.51045,-0.28791100000000003,1.0260209999999998
2019-03-28T20:38:24.214074Z,0.587647,-0.565283,-0.46262
2019-03-28T20:38:24.413074Z,0.139681,0.09698,-0.616374
2019-03-28T20:38:24.614074Z,0.676956,0.718115,0.6779689999999999
2019-03-28T20:38:24.814074Z,0.823499,-0.815228,0.713023
2019-03-28T20:38:25.014074Z,0.23735799999999999,-0.552632,-0.394685
2019-03-28T20:38:25.215074Z,0.035113,0.098217,-0.6833100000000001
2019-03-28T20:38:25.414074Z,-1.376608,-0.41091400000000006,0.575155
2019-03-28T20:38:25.615074Z,-1.110482,-2.208834,2.224754
2019-03-28T20:38:25.832074Z,-1.46736,-2.4597740000000003,0.222716
2019-03-28T20:38:26.015074Z,-0.367529,-2.30838,1.498657
2019-03-28T20:38:26.214074Z,1.617746,-2.22515,1.493396
2019-03-28T20:38:26.416074Z,2.266687,-1.041558,0.530521
2019-03-28T20:38:26.615074Z,1.896785,-0.8906219999999999,-0.223544
2019-03-28T20:38:26.814074Z,1.38863,-0.171255,0.24789899999999998
2019-03-28T20:38:27.015074Z,0.933378,0.09083200000000001,1.162865
2019-03-28T20:38:27.216074Z,0.800838,-1.240406,0.24649699999999997
2019-03-28T20:38:27.416074Z,0.338269,-1.545877,0.503786
2019-03-28T20:38:27.617074Z,0.505438,-0.828462,-0.002301
2019-03-28T20:38:27.817074Z,0.42464300000000005,0.101431,0.43289300000000003
2019-03-28T20:38:28.017074Z,0.574652,-0.640388,0.9792879999999999
2019-03-28T20:38:28.216074Z,0.369027,-1.2371459999999999,0.20388199999999998
2019-03-28T20:38:28.418074Z,0.6436470000000001,-0.7697579999999999,-0.30546599999999996
2019-03-28T20:38:28.618074Z,0.11805,0.261845,-0.317749
2019-03-28T20:38:28.818074Z,0.018944,-0.030304,0.271436
2019-03-28T20:38:29.018074Z,0.15954200000000002,-0.075455,1.297877
2019-03-28T20:38:29.218074Z,0.336183,-0.732301,-0.194354
2019-03-28T20:38:29.418074Z,0.19374,-0.520941,-0.129334
2019-03-28T20:38:29.644074Z,0.146892,-0.183376,0.256639
2019-03-28T20:38:29.818074Z,-0.020388,0.278844,0.23323200000000002
2019-03-28T20:38:30.019074Z,-0.064358,-0.956048,0.000791
2019-03-28T20:38:30.222074Z,-0.620363,-0.951095,0.026581
2019-03-28T20:38:30.420074Z,-0.9953620000000001,-0.691854,0.44294300000000003
2019-03-28T20:38:30.622074Z,0.212589,0.076071,0.574581
2019-03-28T20:38:30.823074Z,1.070671,-0.15169000000000002,0.491443
2019-03-28T20:38:31.024074Z,0.6276619999999999,-1.219184,0.36483899999999997
2019-03-28T20:38:31.220074Z,1.0365870000000001,-0.587102,-0.688116
2019-03-28T20:38:31.422074Z,0.30949699999999997,0.223911,0.221349
2019-03-28T20:38:31.636074Z,0.8730379999999999,-0.290466,0.991259
2019-03-28T20:38:31.821074Z,1.336272,-0.495691,-0.803862
2019-03-28T20:38:32.020074Z,0.8287530000000001,0.18387699999999998,-0.133154
2019-03-28T20:38:32.220074Z,1.149351,0.16209500000000002,0.9464040000000001
2019-03-28T20:38:32.421074Z,0.7387670000000001,-0.676772,0.5030899999999999
2019-03-28T20:38:32.620074Z,1.335032,-0.711796,-0.381294
2019-03-28T20:38:32.820074Z,0.41863500000000003,-0.44221800000000006,0.11959600000000001
2019-03-28T20:38:33.021074Z,0.918992,0.014152000000000001,1.00742
2019-03-28T20:38:33.222074Z,1.195853,-0.46541899999999997,-0.044815
2019-03-28T20:38:33.421074Z,0.735658,-0.5508310000000001,-0.258796
2019-03-28T20:38:33.622074Z,-0.056919000000000004,-0.285953,0.9921409999999999
2019-03-28T20:38:33.822074Z,-0.12884400000000001,-1.04427,0.66297
2019-03-28T20:38:34.023074Z,0.35898,-1.357775,-0.01213
2019-03-28T20:38:34.222074Z,0.801289,-0.8537530000000001,0.33464099999999997
2019-03-28T20:38:34.426074Z,1.195491,-0.862135,0.843665
2019-03-28T20:38:34.622074Z,1.141974,-1.198268,0.482308
2019-03-28T20:38:34.825074Z,0.785555,-0.817191,0.050798
2019-03-28T20:38:35.022074Z,0.115067,-0.379712,0.626049
2019-03-28T20:38:35.223074Z,-0.146465,-1.06092,0.829659
2019-03-28T20:38:35.423074Z,-0.17715799999999998,-1.3201379999999998,0.127593
2019-03-28T20:38:35.662074Z,0.007418999999999999,-0.588655,-0.269993
2019-03-28T20:38:35.824074Z,-0.249406,-0.055813,0.66468
2019-03-28T20:38:36.025074Z,0.090861,-0.593538,0.261892
2019-03-28T20:38:36.223074Z,0.230192,-0.928002,0.099446
2019-03-28T20:38:36.424074Z,0.14893199999999998,-0.193355,-0.1421
2019-03-28T20:38:36.624074Z,-0.012155,-0.238262,1.329324
2019-03-28T20:38:36.824074Z,-0.543079,-1.179715,0.007899
2019-03-28T20:38:37.024074Z,-1.026635,-1.163268,-0.054291
2019-03-28T20:38:37.225074Z,-0.816774,-0.634686,0.451568
2019-03-28T20:38:37.425074Z,-0.358356,-1.003858,0.435037
2019-03-28T20:38:37.625074Z,-0.335625,-0.843736,0.13238
2019-03-28T20:38:37.826074Z,0.10861199999999999,-0.162966,0.213144
2019-03-28T20:38:38.026074Z,0.7525890000000001,0.607884,0.332943
2019-03-28T20:38:38.226074Z,-0.562484,-0.478784,0.567329
2019-03-28T20:38:38.426074Z,0.135889,-1.013509,0.049454000000000005
2019-03-28T20:38:38.631074Z,0.432616,-0.172253,-0.435775
2019-03-28T20:38:38.826074Z,0.697774,0.251346,0.7598550000000001
2019-03-28T20:38:39.026074Z,1.067861,-0.265694,0.11341400000000001
2019-03-28T20:38:39.227074Z,0.643179,-0.208938,-0.471796
2019-03-28T20:38:39.428074Z,0.482337,0.251815,-0.104334
2019-03-28T20:38:39.628074Z,0.231485,0.24032399999999998,0.5177430000000001
2019-03-28T20:38:39.828074Z,0.365708,-0.565997,0.32945599999999997
2019-03-28T20:38:40.031074Z,0.421231,-0.332671,-0.645421
2019-03-28T20:38:40.228074Z,0.296186,0.153728,-0.08709700000000001
2019-03-28T20:38:40.429074Z,-0.081704,0.47257200000000005,0.464638
2019-03-28T20:38:40.629074Z,0.588862,-0.815488,0.523648
2019-03-28T20:38:40.828074Z,0.456221,-0.868991,-0.40492399999999995
2019-03-28T20:38:41.029074Z,0.5163989999999999,0.056251999999999996,-0.176291
2019-03-28T20:38:41.229074Z,0.164155,0.75163,-0.060318
2019-03-28T20:38:41.429074Z,-0.1858,0.960304,0.21367600000000003
2019-03-28T20:38:41.630074Z,-1.171157,-0.8985850000000001,0.5106149999999999
2019-03-28T20:38:41.830074Z,-1.122947,-1.497436,0.036338999999999996
2019-03-28T20:38:42.030074Z,-0.8773620000000001,-1.400792,0.256336
2019-03-28T20:38:42.229074Z,0.560388,-0.573558,0.49465299999999995
2019-03-28T20:38:42.430074Z,1.191545,0.723803,0.44281000000000004
2019-03-28T20:38:42.634074Z,1.455139,-0.5502199999999999,0.307763
2019-03-28T20:38:42.834074Z,1.5612489999999999,-0.603371,-0.129341
2019-03-28T20:38:43.095074Z,0.784646,0.172516,-0.6297689999999999
2019-03-28T20:38:43.232074Z,-0.736808,-0.178628,1.468332
2019-03-28T20:38:43.432074Z,-0.545977,-1.7885919999999997,0.417505
2019-03-28T20:38:43.632074Z,-0.09982200000000001,-1.8462060000000002,0.042094
2019-03-28T20:38:43.833074Z,0.882235,-1.032438,0.9064989999999999
2019-03-28T20:38:44.031074Z,1.293074,-0.24056599999999997,0.726953
2019-03-28T20:38:44.234074Z,1.715337,-0.721964,0.700388
2019-03-28T20:38:44.436074Z,1.378093,-0.597117,-0.59601
2019-03-28T20:38:44.679074Z,1.397693,0.009677,-0.006852
2019-03-28T20:38:44.832074Z,1.771982,0.12772999999999998,0.731679
2019-03-28T20:38:45.032074Z,2.926622,-1.498836,1.1523649999999999
2019-03-28T20:38:45.234074Z,2.1379919999999997,-1.1898,0.19256099999999998
2019-03-28T20:38:45.433074Z,0.601529,-0.988434,0.364712
2019-03-28T20:38:45.633074Z,-0.47406499999999996,-0.034969,0.15928599999999998
2019-03-28T20:38:45.833074Z,-0.37249099999999996,-0.296627,0.629606
2019-03-28T20:38:46.033074Z,0.37527699999999997,-0.933825,0.040777999999999995
2019-03-28T20:38:46.234074Z,0.032605,-0.540636,-0.273217
2019-03-28T20:38:46.434074Z,0.003404,0.752739,0.30495700000000003
2019-03-28T20:38:46.635074Z,-0.42754,-0.42738999999999994,0.8921540000000001
2019-03-28T20:38:46.834074Z,-0.739513,-0.8996190000000001,-0.806167
2019-03-28T20:38:47.035074Z,-0.061328999999999995,-0.6926260000000001,0.328803
2019-03-28T20:38:47.235074Z,0.162223,-0.23486300000000002,0.28484299999999996
2019-03-28T20:38:47.435074Z,0.334996,-0.648422,0.741482
2019-03-28T20:38:47.636074Z,-0.21641999999999997,-0.688312,-0.17293699999999998
2019-03-28T20:38:47.835074Z,0.12973800000000002,-0.42661000000000004,0.214954
2019-03-28T20:38:48.039074Z,-0.14818399999999998,0.20208299999999998,0.07749099999999999
2019-03-28T20:38:48.236074Z,0.29087199999999996,0.058323,0.2844
2019-03-28T20:38:48.436074Z,0.5355800000000001,-0.5305989999999999,-0.043366
2019-03-28T20:38:48.635074Z,0.315753,-0.201156,-0.33931999999999995
2019-03-28T20:38:48.837074Z,0.444931,0.41780600000000007,0.006647
2019-03-28T20:38:49.038074Z,0.275196,0.378315,0.164797
2019-03-28T20:38:49.235074Z,0.43121000000000004,-0.071594,0.099983
2019-03-28T20:38:49.436074Z,0.363062,-0.093388,-0.44818800000000003
2019-03-28T20:38:49.637074Z,0.33365900000000004,0.282878,-0.441086
2019-03-28T20:38:49.837074Z,0.42253599999999997,0.425159,0.593184
2019-03-28T20:38:50.037074Z,0.336372,-0.5401279999999999,0.32243299999999997
2019-03-28T20:38:50.237074Z,-0.152828,-0.436936,-0.45139300000000004
2019-03-28T20:38:50.438074Z,0.10655099999999999,0.176898,-0.384796
2019-03-28T20:38:50.637074Z,0.18676099999999998,0.725478,0.39065
2019-03-28T20:38:50.838074Z,0.564476,-0.702742,0.521688
2019-03-28T20:38:51.038074Z,0.456506,-0.717345,-0.279875
2019-03-28T20:38:51.253074Z,0.115598,0.38103000000000004,-0.9527049999999999
2019-03-28T20:38:51.439074Z,0.104272,1.128798,0.382932
2019-03-28T20:38:51.639074Z,0.139069,0.181912,0.591376
2019-03-28T20:38:51.839074Z,-0.009764,-1.141341,-0.074917
2019-03-28T20:38:52.039074Z,0.262169,-0.070015,-0.587881
2019-03-28T20:38:52.239074Z,-0.5209229999999999,0.565447,-0.40756
2019-03-28T20:38:52.438074Z,0.203872,0.716629,0.8882030000000001
2019-03-28T20:38:52.640074Z,0.5616359999999999,-0.717112,0.333913
2019-03-28T20:38:52.840074Z,0.44292700000000007,-1.265951,0.357387
2019-03-28T20:38:53.040074Z,0.10413499999999999,0.218306,-0.795765
2019-03-28T20:38:53.240074Z,0.039252999999999996,1.0638,-0.145283
2019-03-28T20:38:53.446074Z,0.065982,0.16437000000000002,1.048397
2019-03-28T20:38:53.641074Z,-0.323785,-1.048318,-0.328921
2019-03-28T20:38:53.841074Z,-0.619639,-0.41235600000000006,-0.26997899999999997
2019-03-28T20:38:54.041074Z,-0.23926799999999998,0.358486,0.11709800000000001
2019-03-28T20:38:54.242074Z,0.791261,0.882742,0.171503
2019-03-28T20:38:54.442074Z,0.27211399999999997,-0.149176,0.644983
2019-03-28T20:38:54.641074Z,0.5625760000000001,-0.886093,-0.13322799999999999
2019-03-28T20:38:54.841074Z,0.408656,-0.327506,0.097245
2019-03-28T20:38:55.042074Z,0.319424,0.28166399999999997,-0.671009
2019-03-28T20:38:55.243074Z,0.032951,0.502552,-0.154116
2019-03-28T20:38:55.442074Z,-0.155687,0.255684,0.65789
2019-03-28T20:38:55.642074Z,-0.115318,-0.596056,-0.376866
2019-03-28T20:38:55.843074Z,-0.23045500000000002,-0.319844,-0.474671
2019-03-28T20:38:56.044074Z,0.287493,0.064887,0.397106
2019-03-28T20:38:56.243074Z,0.45886800000000005,0.792944,-0.076804
2019-03-28T20:38:56.442074Z,0.9230459999999999,0.633667,0.327992
2019-03-28T20:38:56.644074Z,0.99372,-0.763683,0.307323
2019-03-28T20:38:56.843074Z,1.030937,-0.36239299999999997,-0.091602
2019-03-28T20:38:57.058074Z,0.6801699999999999,0.141309,-0.490146
2019-03-28T20:38:57.244074Z,0.752562,0.766598,0.232179
2019-03-28T20:38:57.454074Z,0.8129109999999999,-0.632833,0.755741
2019-03-28T20:38:57.648074Z,1.1177629999999998,-0.273694,-0.46266
2019-03-28T20:38:57.844074Z,0.604263,0.530552,-0.180288
2019-03-28T20:38:58.045074Z,0.27702,0.5616270000000001,1.155789
2019-03-28T20:38:58.245074Z,1.019849,-0.675995,-0.360902
2019-03-28T20:38:58.445074Z,1.045359,-0.23178800000000002,-0.688629
2019-03-28T20:38:58.646074Z,-0.366277,0.753868,0.304163
2019-03-28T20:38:58.845074Z,0.260251,-0.19078399999999998,0.830584
2019-03-28T20:38:59.046074Z,0.16375499999999998,-0.744263,-0.709332
2019-03-28T20:38:59.246074Z,0.191216,0.07881,-0.438083
2019-03-28T20:38:59.447074Z,0.319135,0.978441,1.056457
2019-03-28T20:38:59.646074Z,0.9075709999999999,-0.833788,0.558645
2019-03-28T20:38:59.846074Z,0.752563,-0.639748,-0.72928
2019-03-28T20:39:00.046074Z,0.31704299999999996,0.358588,-0.6161260000000001
2019-03-28T20:39:00.268074Z,0.186383,0.933593,0.978922
2019-03-28T20:39:00.446074Z,0.23933400000000002,-0.8393959999999999,0.42904799999999993
2019-03-28T20:39:00.648074Z,0.12223900000000001,-0.62844,-0.571026
2019-03-28T20:39:00.847074Z,-0.612861,0.344619,-0.118325
2019-03-28T20:39:01.048074Z,0.053089,0.560834,0.7920560000000001
2019-03-28T20:39:01.248074Z,0.771245,-0.7635460000000001,0.113729
2019-03-28T20:39:01.448074Z,0.347235,-0.49803000000000003,-0.7422350000000001
2019-03-28T20:39:01.648074Z,0.382949,0.660357,-0.11648499999999999
2019-03-28T20:39:01.848074Z,0.42351099999999997,0.422554,0.871591
2019-03-28T20:39:02.049074Z,-0.042207,-0.9712069999999999,-0.001008
2019-03-28T20:39:02.265074Z,0.340026,-0.46807200000000004,-0.522582
2019-03-28T20:39:02.449074Z,0.356281,0.419505,0.11926700000000001
2019-03-28T20:39:02.649074Z,0.15859700000000002,0.529375,0.9224209999999999
2019-03-28T20:39:02.850074Z,0.592435,-0.754029,0.059096
2019-03-28T20:39:03.049074Z,1.5629870000000001,0.038126,-0.17977
