Datetime,accx,accy,accz
2019-04-04T22:34:03.510160Z,0.48212,0.19572,-0.198393
2019-04-04T22:34:03.710160Z,-0.13839200000000002,-0.44122,-0.321837
2019-04-04T22:34:03.910160Z,-0.5689529999999999,-0.014704,0.35975300000000004
2019-04-04T22:34:04.110160Z,-0.134239,-1.203491,0.311781
2019-04-04T22:34:04.310160Z,-0.54113,-0.705592,-0.88121
2019-04-04T22:34:04.510160Z,-0.32501599999999997,0.024258000000000002,0.399398
2019-04-04T22:34:04.712160Z,0.016176,-0.23224499999999998,0.863867
2019-04-04T22:34:04.913160Z,1.022398,-0.832673,-0.8279139999999999
2019-04-04T22:34:05.114160Z,0.41220500000000004,-0.009672,-0.27628400000000003
2019-04-04T22:34:05.311160Z,0.21458899999999997,0.067276,1.253923
2019-04-04T22:34:05.511160Z,0.745735,-1.158947,-0.067853
2019-04-04T22:34:05.711160Z,0.65074,-0.533694,-0.470865
2019-04-04T22:34:05.912160Z,0.941507,-0.547787,1.163054
2019-04-04T22:34:06.113160Z,1.661887,-1.277958,0.8739819999999999
2019-04-04T22:34:06.313160Z,0.986196,-0.850217,-0.241909
2019-04-04T22:34:06.513160Z,0.228596,0.48933999999999994,0.104835
2019-04-04T22:34:06.732160Z,-0.738171,0.700277,0.9147790000000001
2019-04-04T22:34:06.913160Z,-1.045475,0.552756,0.8717950000000001
2019-04-04T22:34:07.113160Z,-0.638742,-1.9160840000000001,0.309315
2019-04-04T22:34:07.315160Z,-0.543147,-1.7780630000000002,-0.785245
2019-04-04T22:34:07.513160Z,-0.153143,-0.82849,0.052249000000000004
2019-04-04T22:34:07.734160Z,0.294028,-0.904699,0.5135850000000001
2019-04-04T22:34:07.916160Z,0.259614,-0.9165559999999999,0.50246
2019-04-04T22:34:08.114160Z,0.113049,-1.38973,-0.158195
2019-04-04T22:34:08.314160Z,-0.633506,-0.66661,-0.392804
2019-04-04T22:34:08.514160Z,-0.788554,0.134053,0.111641
2019-04-04T22:34:08.716160Z,-1.388743,-0.8302579999999999,0.052788
2019-04-04T22:34:08.914160Z,-1.242337,-0.6512560000000001,-0.440145
2019-04-04T22:34:09.115160Z,-0.153855,-0.359639,0.165794
2019-04-04T22:34:09.315160Z,0.435084,-0.11976600000000001,0.779127
2019-04-04T22:34:09.516160Z,0.12276400000000001,-0.759714,0.348887
2019-04-04T22:34:09.715160Z,0.42188100000000006,-0.24873499999999998,-0.297271
2019-04-04T22:34:09.917160Z,0.718387,0.14691400000000002,0.025067
2019-04-04T22:34:10.117160Z,0.42248,0.6963020000000001,0.088706
2019-04-04T22:34:10.316160Z,0.6585270000000001,-0.25456999999999996,-0.025103
2019-04-04T22:34:10.516160Z,0.302356,-0.357133,-0.052532
2019-04-04T22:34:10.717160Z,-0.574764,-0.413303,-0.374881
2019-04-04T22:34:10.937160Z,-0.49503100000000005,0.199054,0.22393000000000002
2019-04-04T22:34:11.138160Z,1.080093,0.12959600000000002,1.126018
2019-04-04T22:34:11.317160Z,1.0356610000000002,-0.409316,1.156146
2019-04-04T22:34:11.557160Z,0.744337,-0.098635,-0.018755
2019-04-04T22:34:11.716160Z,0.446272,0.46433800000000003,-0.7092510000000001
2019-04-04T22:34:11.918160Z,0.097102,0.792176,0.097759
2019-04-04T22:34:12.120160Z,0.7182270000000001,0.031952999999999995,0.643587
2019-04-04T22:34:12.317160Z,1.00397,-0.688001,-0.448384
2019-04-04T22:34:12.518160Z,0.529462,-0.158122,-0.42330200000000007
2019-04-04T22:34:12.717160Z,0.838699,-0.012698000000000001,0.910006
2019-04-04T22:34:12.918160Z,1.323831,-0.490696,0.376202
2019-04-04T22:34:13.151160Z,0.870245,-0.679812,-0.082761
2019-04-04T22:34:13.318160Z,0.690813,-0.29990100000000003,-0.059023
2019-04-04T22:34:13.520160Z,0.21393600000000002,-0.039374,0.368195
2019-04-04T22:34:13.720160Z,0.389268,0.266005,0.181111
2019-04-04T22:34:13.919160Z,0.580565,0.732019,-0.453912
2019-04-04T22:34:14.135160Z,0.495507,0.6802560000000001,-0.8671559999999999
2019-04-04T22:34:14.323160Z,0.717949,0.811527,0.715479
2019-04-04T22:34:14.519160Z,1.275264,-0.245088,0.434666
2019-04-04T22:34:14.719160Z,0.903859,-0.12300799999999999,-0.581313
2019-04-04T22:34:14.919160Z,-0.086357,0.5033890000000001,-0.000654
2019-04-04T22:34:15.121160Z,-0.44666000000000006,0.6606850000000001,-0.149752
2019-04-04T22:34:15.320160Z,-0.411567,-0.282515,0.8963639999999999
2019-04-04T22:34:15.521160Z,0.9431870000000001,-1.028292,-0.649997
2019-04-04T22:34:15.720160Z,0.43029799999999996,-0.8057489999999999,0.327276
2019-04-04T22:34:15.921160Z,-0.415293,-0.238267,0.545706
2019-04-04T22:34:16.120160Z,-0.322806,-0.565671,0.137732
2019-04-04T22:34:16.322160Z,-0.080023,-0.6256390000000001,-0.789272
2019-04-04T22:34:16.521160Z,-0.844814,-0.44851899999999995,0.038133999999999994
2019-04-04T22:34:16.721160Z,-1.215465,0.030525999999999998,0.615028
2019-04-04T22:34:16.922160Z,0.331296,-0.750204,0.436734
2019-04-04T22:34:17.125160Z,1.110002,-0.801754,-0.288064
2019-04-04T22:34:17.322160Z,0.350919,0.013793999999999999,-0.606988
2019-04-04T22:34:17.523160Z,-0.506812,0.617002,0.740009
2019-04-04T22:34:17.723160Z,-0.327277,-1.3531739999999999,0.750916
2019-04-04T22:34:17.922160Z,0.889756,-1.139997,-0.279296
2019-04-04T22:34:18.122160Z,0.074697,0.023513,-0.19631300000000002
2019-04-04T22:34:18.323160Z,0.042505,-0.21148499999999998,1.0659889999999999
2019-04-04T22:34:18.524160Z,0.429072,-0.989445,-0.109425
2019-04-04T22:34:18.733160Z,0.500528,-0.71834,0.042496
2019-04-04T22:34:18.923160Z,0.7705,-0.055285,0.082826
2019-04-04T22:34:19.124160Z,0.370554,-0.7576689999999999,0.876919
2019-04-04T22:34:19.324160Z,0.782273,-0.648315,0.43681499999999995
2019-04-04T22:34:19.524160Z,0.255485,-0.303962,-0.251309
2019-04-04T22:34:19.724160Z,-0.44497600000000004,-0.8245950000000001,0.556341
2019-04-04T22:34:19.964160Z,0.21267600000000003,-1.467989,-0.031705000000000004
2019-04-04T22:34:20.124160Z,0.333152,-0.623819,-0.42271899999999996
2019-04-04T22:34:20.324160Z,-0.672665,-0.247748,0.303514
2019-04-04T22:34:20.524160Z,-1.472955,-0.5786720000000001,0.518491
2019-04-04T22:34:20.726160Z,-1.733094,-1.410547,-0.144064
2019-04-04T22:34:20.924160Z,-0.611341,-0.858951,-0.116076
2019-04-04T22:34:21.126160Z,-0.646217,-0.37211,0.477102
2019-04-04T22:34:21.326160Z,0.197939,-0.028782,0.773786
2019-04-04T22:34:21.525160Z,0.6138170000000001,-1.278346,0.270855
2019-04-04T22:34:21.725160Z,0.418488,-0.721233,-0.23342399999999996
2019-04-04T22:34:21.926160Z,0.368143,0.281526,-0.300182
2019-04-04T22:34:22.125160Z,0.162909,0.46051000000000003,0.101742
2019-04-04T22:34:22.325160Z,0.378127,-0.65378,1.136496
2019-04-04T22:34:22.526160Z,0.643461,-0.6919890000000001,-0.10677
2019-04-04T22:34:22.727160Z,0.3554,-0.617697,0.134357
2019-04-04T22:34:22.928160Z,-0.10335599999999999,-0.226413,0.273255
2019-04-04T22:34:23.129160Z,-0.522547,-0.180376,0.41078400000000004
2019-04-04T22:34:23.329160Z,-0.078315,-0.529678,-0.17851199999999998
2019-04-04T22:34:23.566160Z,-0.315904,-0.376717,-0.191452
2019-04-04T22:34:23.737160Z,-0.44909499999999997,-0.229609,-0.20460699999999998
2019-04-04T22:34:23.930160Z,0.050472,-0.42368999999999996,0.366433
2019-04-04T22:34:24.128160Z,0.21939099999999997,-0.10142799999999999,0.19489
2019-04-04T22:34:24.328160Z,0.084037,-0.044343,-0.089999
2019-04-04T22:34:24.528160Z,0.07505099999999999,0.468527,0.0073939999999999995
2019-04-04T22:34:24.727160Z,-0.448241,0.607862,0.39889600000000003
2019-04-04T22:34:24.927160Z,-0.20651,-0.771004,0.6066520000000001
2019-04-04T22:34:25.128160Z,0.679537,-0.814718,-0.069353
2019-04-04T22:34:25.328160Z,0.28158,-0.078583,-0.22358499999999998
2019-04-04T22:34:25.529160Z,-0.39471999999999996,0.262733,-0.175119
2019-04-04T22:34:25.728160Z,0.608422,0.707558,0.491208
2019-04-04T22:34:25.929160Z,-0.11998099999999999,-1.354024,0.8783200000000001
2019-04-04T22:34:26.129160Z,-0.548746,-0.7440220000000001,-0.556117
2019-04-04T22:34:26.329160Z,0.151838,-0.055446,-0.036584
2019-04-04T22:34:26.530160Z,0.610228,0.419707,0.030994
2019-04-04T22:34:26.730160Z,-0.5109090000000001,-0.45916999999999997,0.7043550000000001
2019-04-04T22:34:26.930160Z,0.008881,-0.44067,-0.371191
2019-04-04T22:34:27.131160Z,-0.289662,0.14012,-0.280708
2019-04-04T22:34:27.332160Z,0.001666,0.726255,0.386534
2019-04-04T22:34:27.530160Z,0.11814300000000001,-0.39187,-0.078707
2019-04-04T22:34:27.731160Z,-0.42356400000000005,-0.402752,-0.354471
2019-04-04T22:34:27.969160Z,0.291581,0.739831,-0.364697
2019-04-04T22:34:28.131160Z,-0.10900399999999999,0.791127,0.706023
2019-04-04T22:34:28.331160Z,-0.125177,-0.70612,0.875826
2019-04-04T22:34:28.530160Z,-0.241696,-1.558181,-0.18651800000000002
2019-04-04T22:34:28.732160Z,-0.48060600000000003,-0.2439,-0.855318
2019-04-04T22:34:28.933160Z,-0.448007,0.9410850000000001,0.8151470000000001
2019-04-04T22:34:29.131160Z,0.500252,-0.9078219999999999,1.150508
2019-04-04T22:34:29.331160Z,0.466388,-0.810668,-0.9063620000000001
2019-04-04T22:34:29.532160Z,-0.032364,-0.270823,-0.49128299999999997
2019-04-04T22:34:29.732160Z,0.320273,0.568595,0.612097
2019-04-04T22:34:29.933160Z,-0.685438,-0.085786,0.426604
2019-04-04T22:34:30.133160Z,0.843776,0.012808000000000002,-0.6605840000000001
2019-04-04T22:34:30.332160Z,-0.190443,0.250844,-0.554125
2019-04-04T22:34:30.532160Z,-0.026208999999999996,0.518195,0.62871
2019-04-04T22:34:30.734160Z,-0.780778,-1.144608,0.572675
2019-04-04T22:34:30.932160Z,0.726312,-0.682629,-0.551963
2019-04-04T22:34:31.134160Z,0.432471,0.264706,-0.043802
2019-04-04T22:34:31.334160Z,-0.111482,0.42648100000000005,1.0855
2019-04-04T22:34:31.533160Z,0.43917700000000004,-1.1116219999999999,0.11392200000000001
2019-04-04T22:34:31.734160Z,0.872566,-0.46853900000000004,-0.83762
2019-04-04T22:34:31.934160Z,0.597299,-0.221067,0.566692
2019-04-04T22:34:32.134160Z,0.7422890000000001,-0.829936,1.143644
2019-04-04T22:34:32.338160Z,2.507836,-0.9628040000000001,-0.09389
2019-04-04T22:34:32.534160Z,0.911544,0.088341,-0.32063
2019-04-04T22:34:32.741160Z,-0.948416,-0.27305,0.458035
2019-04-04T22:34:32.935160Z,-1.190985,-1.470621,1.137697
2019-04-04T22:34:33.135160Z,-0.7790020000000001,-1.449999,-0.542809
2019-04-04T22:34:33.335160Z,-0.415188,-1.037179,-0.169542
2019-04-04T22:34:33.535160Z,0.455996,0.020316,0.9786600000000001
2019-04-04T22:34:33.735160Z,0.181233,-1.249113,0.35536599999999996
2019-04-04T22:34:33.936160Z,0.804276,-0.835723,-0.6254850000000001
2019-04-04T22:34:34.135160Z,-0.762355,-0.210891,-0.417487
2019-04-04T22:34:34.340160Z,-1.340317,-0.360772,1.378234
2019-04-04T22:34:34.536160Z,-1.542032,-0.541856,-0.477034
2019-04-04T22:34:34.736160Z,0.444888,-0.965145,-0.290962
2019-04-04T22:34:34.938160Z,1.106722,0.028512,1.123509
2019-04-04T22:34:35.139160Z,0.370882,-0.8330110000000001,0.855691
2019-04-04T22:34:35.337160Z,0.251938,-1.345297,-0.538552
2019-04-04T22:34:35.537160Z,-0.074564,-0.398379,-0.501782
2019-04-04T22:34:35.738160Z,0.173623,1.105381,0.45797899999999997
2019-04-04T22:34:35.937160Z,-0.099354,-1.107686,0.537971
2019-04-04T22:34:36.138160Z,0.043318,-0.814509,-0.670721
2019-04-04T22:34:36.338160Z,-0.461585,0.039599,0.472146
2019-04-04T22:34:36.537160Z,-0.621835,-0.23756999999999998,0.5675939999999999
2019-04-04T22:34:36.739160Z,-0.438841,-0.9072979999999999,-0.170027
2019-04-04T22:34:36.938160Z,-0.22715100000000002,-0.44946,-0.199897
2019-04-04T22:34:37.138160Z,-0.026215,0.694206,0.37616700000000003
2019-04-04T22:34:37.340160Z,-0.287329,-1.026664,0.6929810000000001
2019-04-04T22:34:37.538160Z,0.845981,-1.651778,0.22130100000000003
2019-04-04T22:34:37.771160Z,0.26792,-0.477257,-0.5888479999999999
2019-04-04T22:34:37.940160Z,0.8820040000000001,-0.31054,0.626633
2019-04-04T22:34:38.139160Z,0.029544,-0.929733,1.095692
2019-04-04T22:34:38.339160Z,0.820141,-0.9074200000000001,0.069707
2019-04-04T22:34:38.539160Z,0.315779,0.317713,-0.569509
2019-04-04T22:34:38.740160Z,0.446037,0.5632510000000001,0.16337000000000002
2019-04-04T22:34:38.943160Z,0.024805,-0.128658,0.507786
2019-04-04T22:34:39.141160Z,-0.740029,-1.206405,0.27516
2019-04-04T22:34:39.340160Z,-0.6596609999999999,-0.45880200000000004,-0.380554
2019-04-04T22:34:39.540160Z,0.140595,-0.367923,0.266871
2019-04-04T22:34:39.740160Z,-0.056308000000000004,-0.5636770000000001,0.743013
2019-04-04T22:34:39.941160Z,-1.3847399999999999,-0.7074199999999999,-0.632915
2019-04-04T22:34:40.141160Z,-1.708247,-0.063743,-0.162377
2019-04-04T22:34:40.341160Z,-1.7269759999999998,-0.43681499999999995,1.0734350000000001
2019-04-04T22:34:40.541160Z,0.333993,-2.743962,0.9329350000000001
2019-04-04T22:34:40.743160Z,0.693271,-1.049188,-0.605399
2019-04-04T22:34:40.942160Z,0.255882,0.305792,0.45918000000000003
2019-04-04T22:34:41.143160Z,0.578847,0.194113,0.5392279999999999
2019-04-04T22:34:41.344160Z,0.791771,-0.724545,-0.097299
2019-04-04T22:34:41.542160Z,0.893847,0.040308,-0.45731700000000003
2019-04-04T22:34:41.742160Z,0.78799,0.599807,0.7031270000000001
2019-04-04T22:34:41.943160Z,-0.5607840000000001,0.081372,-0.276354
2019-04-04T22:34:42.161160Z,-1.015342,-0.511309,-0.844093
2019-04-04T22:34:42.343160Z,-1.402344,0.628071,-0.518387
2019-04-04T22:34:42.543160Z,0.267054,0.727901,1.3936309999999998
2019-04-04T22:34:42.743160Z,1.565943,-1.226617,0.508267
2019-04-04T22:34:42.949160Z,0.246234,-0.142041,-1.2540280000000001
2019-04-04T22:34:43.145160Z,-1.959055,-0.5209520000000001,0.505804
2019-04-04T22:34:43.344160Z,-0.8706450000000001,-2.419705,2.040956
2019-04-04T22:34:43.544160Z,-1.0695729999999999,-3.2991129999999997,-0.198292
2019-04-04T22:34:43.743160Z,0.304052,-2.038482,1.1289850000000001
2019-04-04T22:34:43.944160Z,1.0174940000000001,-1.823694,0.693419
2019-04-04T22:34:44.146160Z,1.628849,0.039174,0.152149
2019-04-04T22:34:44.345160Z,1.210415,-0.48089899999999997,0.57822
2019-04-04T22:34:44.545160Z,1.216449,-0.629007,-0.20366900000000002
2019-04-04T22:34:44.745160Z,1.2431590000000001,-0.31604499999999996,0.45188599999999995
2019-04-04T22:34:44.944160Z,0.45163100000000006,-0.48513500000000004,1.7207169999999998
2019-04-04T22:34:45.145160Z,-0.40337,-1.175683,-0.465501
2019-04-04T22:34:45.345160Z,-0.20649099999999998,-0.646424,-0.33018600000000004
2019-04-04T22:34:45.544160Z,0.5948319999999999,0.024082,0.855823
2019-04-04T22:34:45.745160Z,0.490092,-0.996664,0.803326
2019-04-04T22:34:45.947160Z,1.4075739999999999,-0.477008,-0.556297
2019-04-04T22:34:46.146160Z,0.68803,-0.55248,-0.12444000000000001
2019-04-04T22:34:46.347160Z,0.087738,-0.376691,1.1047420000000001
2019-04-04T22:34:46.548160Z,-0.025051,-0.869598,0.862246
2019-04-04T22:34:46.746160Z,-0.13808399999999998,-1.742557,0.153651
2019-04-04T22:34:46.946160Z,0.22699299999999997,-1.531324,-0.046856999999999996
2019-04-04T22:34:47.146160Z,1.742204,-0.359471,0.131614
2019-04-04T22:34:47.347160Z,0.791538,-0.08951,0.506491
2019-04-04T22:34:47.547160Z,0.684743,-0.25604099999999996,0.400129
2019-04-04T22:34:47.749160Z,0.43182299999999996,-0.285487,0.20501399999999997
2019-04-04T22:34:47.948160Z,0.29503,-0.08655299999999999,0.07825
2019-04-04T22:34:48.148160Z,0.454093,-0.123947,0.12115699999999999
2019-04-04T22:34:48.347160Z,0.346401,-0.390171,0.125053
2019-04-04T22:34:48.548160Z,-0.21237199999999998,0.022971000000000002,0.055009
2019-04-04T22:34:48.748160Z,0.46054700000000004,-0.20815799999999998,0.299639
2019-04-04T22:34:48.948160Z,0.412369,-0.24307800000000002,-0.040901
2019-04-04T22:34:49.148160Z,0.196108,-0.226642,0.12600999999999998
2019-04-04T22:34:49.348160Z,0.363822,-0.171216,0.04686
2019-04-04T22:34:49.549160Z,0.458233,-0.047288,0.045174
2019-04-04T22:34:49.753160Z,0.614058,-0.062346000000000006,0.077167
2019-04-04T22:34:49.948160Z,-0.053069000000000005,-0.072359,0.209535
2019-04-04T22:34:50.150160Z,0.221179,0.054129,-0.063144
2019-04-04T22:34:50.352160Z,0.6005689999999999,-0.319292,0.099803
2019-04-04T22:34:50.550160Z,0.8976129999999999,-0.166179,0.22757800000000003
2019-04-04T22:34:50.750160Z,-0.135822,0.001184,-0.102845
2019-04-04T22:34:50.958160Z,-0.9708610000000001,0.244327,-0.36794299999999996
2019-04-04T22:34:51.151160Z,-1.548743,0.312814,-0.365553
2019-04-04T22:34:51.351160Z,-0.68606,0.5291710000000001,-0.13180899999999998
2019-04-04T22:34:51.552160Z,-0.592789,0.324455,0.011179999999999999
2019-04-04T22:34:51.751160Z,0.39471100000000003,-0.028388999999999998,0.252741
2019-04-04T22:34:51.952160Z,1.069436,-0.79651,0.648844
2019-04-04T22:34:52.151160Z,1.352541,-0.274206,-0.429992
2019-04-04T22:34:52.351160Z,2.3174259999999998,0.045567,0.07556
2019-04-04T22:34:52.552160Z,1.213578,0.09773,1.1245450000000001
2019-04-04T22:34:52.751160Z,-0.22936199999999998,-0.7812180000000001,-0.187522
2019-04-04T22:34:52.953160Z,-0.489379,-0.560359,-0.631267
2019-04-04T22:34:53.153160Z,0.469732,0.090302,0.48234399999999994
2019-04-04T22:34:53.354160Z,0.8721770000000001,0.048565,0.825557
2019-04-04T22:34:53.557160Z,0.411117,-0.516465,-0.6114930000000001
2019-04-04T22:34:53.754160Z,-0.023449,-0.171222,-0.36031399999999997
2019-04-04T22:34:53.953160Z,-0.643992,0.393384,0.284184
2019-04-04T22:34:54.154160Z,0.42786,-0.552838,0.518618
2019-04-04T22:34:54.356160Z,1.158307,-0.132128,-0.44393299999999997
2019-04-04T22:34:54.556160Z,0.537802,-0.5348430000000001,0.632612
2019-04-04T22:34:54.757160Z,0.282011,-1.08648,0.562901
2019-04-04T22:34:54.954160Z,0.280708,-1.0766040000000001,-0.015152
2019-04-04T22:34:55.154160Z,0.5201600000000001,-0.043801,-0.048717
2019-04-04T22:34:55.354160Z,0.686404,-0.056516,-0.319693
2019-04-04T22:34:55.554160Z,-0.0743,0.130401,-0.112551
2019-04-04T22:34:55.754160Z,-0.07812999999999999,-1.196717,1.500537
2019-04-04T22:34:55.955160Z,0.535137,-0.9397409999999999,0.11601600000000001
2019-04-04T22:34:56.154160Z,-0.517223,-0.343735,-0.681096
2019-04-04T22:34:56.355160Z,-0.566919,0.550956,0.064069
2019-04-04T22:34:56.557160Z,1.540541,-0.227834,1.142191
2019-04-04T22:34:56.755160Z,1.833477,-1.812729,0.40888
2019-04-04T22:34:56.955160Z,0.734404,-1.048418,-0.63444
2019-04-04T22:34:57.156160Z,1.115887,-0.466851,0.651947
2019-04-04T22:34:57.358160Z,0.395855,-0.695334,0.614635
2019-04-04T22:34:57.587160Z,-0.14060999999999998,-1.551852,0.155694
2019-04-04T22:34:57.755160Z,-0.084874,-0.202099,-0.877934
2019-04-04T22:34:57.968160Z,-0.606258,0.12421099999999999,0.693489
2019-04-04T22:34:58.156160Z,-0.38661,-0.751603,0.44278999999999996
2019-04-04T22:34:58.356160Z,-0.02348,-0.8330709999999999,-0.408308
2019-04-04T22:34:58.557160Z,0.428803,-0.466779,0.48131899999999994
2019-04-04T22:34:58.758160Z,-0.48121499999999995,-0.818588,1.040821
2019-04-04T22:34:58.964160Z,-0.159637,-0.9308049999999999,-0.333837
2019-04-04T22:34:59.157160Z,-0.716436,-0.7403930000000001,-0.689444
2019-04-04T22:34:59.357160Z,-1.8276189999999999,-0.530909,1.057185
2019-04-04T22:34:59.558160Z,-1.532964,-1.5602120000000002,0.521242
2019-04-04T22:34:59.758160Z,-1.058547,-0.833907,-0.503311
2019-04-04T22:34:59.958160Z,-0.055922,-0.608097,0.6152270000000001
2019-04-04T22:35:00.159160Z,0.452413,-0.909042,1.391262
2019-04-04T22:35:00.364160Z,1.1122940000000001,-1.5514629999999998,-0.115878
2019-04-04T22:35:00.558160Z,0.8564809999999999,0.235585,-1.180507
2019-04-04T22:35:00.758160Z,0.32909499999999997,0.646313,0.8216040000000001
2019-04-04T22:35:00.958160Z,1.847998,-0.263667,0.334855
2019-04-04T22:35:01.158160Z,0.380427,0.20934299999999997,-0.97395
2019-04-04T22:35:01.359160Z,-0.17539000000000002,0.412196,0.149848
2019-04-04T22:35:01.559160Z,0.423792,0.284812,1.261929
2019-04-04T22:35:01.759160Z,0.517907,-0.628234,-0.6269939999999999
2019-04-04T22:35:01.960160Z,0.305737,-0.002711,-0.45201199999999997
2019-04-04T22:35:02.160160Z,0.386189,0.22146799999999997,0.706105
2019-04-04T22:35:02.361160Z,0.28155399999999997,-0.32109099999999996,-0.129497
2019-04-04T22:35:02.560160Z,0.623984,0.116819,-0.574152
2019-04-04T22:35:02.761160Z,0.340659,0.639255,0.401995
2019-04-04T22:35:02.964160Z,0.456164,-0.08803,1.127732
2019-04-04T22:35:03.162160Z,-0.502649,-1.035253,-0.81947
2019-04-04T22:35:03.361160Z,0.750361,-0.168224,-0.177493
2019-04-04T22:35:03.561160Z,1.005296,0.616957,0.690785
2019-04-04T22:35:03.763160Z,1.011396,-0.8234600000000001,0.198599
2019-04-04T22:35:03.964160Z,-0.814613,-0.9513870000000001,-0.422574
2019-04-04T22:35:04.164160Z,-2.974655,-0.98393,1.166941
2019-04-04T22:35:04.365160Z,-0.702919,-0.449697,-0.126575
2019-04-04T22:35:04.562160Z,-0.137681,-0.917314,0.261758
2019-04-04T22:35:04.764160Z,-0.35297,-0.8442430000000001,0.273834
2019-04-04T22:35:04.966160Z,1.571793,-0.062774,0.45528
2019-04-04T22:35:05.164160Z,0.601295,-0.40175900000000003,0.819865
2019-04-04T22:35:05.362160Z,0.772976,-1.475981,0.512637
2019-04-04T22:35:05.563160Z,1.2299879999999999,-0.190879,-0.8399049999999999
2019-04-04T22:35:05.762160Z,0.060610000000000004,-0.114177,0.295063
2019-04-04T22:35:05.963160Z,-0.924841,-0.278302,0.8631709999999999
2019-04-04T22:35:06.164160Z,-0.606925,-2.54252,0.570084
2019-04-04T22:35:06.366160Z,0.202504,-1.832791,0.47693800000000003
2019-04-04T22:35:06.564160Z,0.48142799999999997,-0.307289,0.685696
2019-04-04T22:35:06.765160Z,1.2176790000000002,-0.349517,1.185403
2019-04-04T22:35:06.963160Z,0.84621,-1.555928,0.043347000000000004
2019-04-04T22:35:07.163160Z,0.849807,-0.800541,-0.20966700000000002
2019-04-04T22:35:07.395160Z,1.250569,-0.123295,1.92503
2019-04-04T22:35:07.564160Z,1.245255,-1.449768,0.326723
2019-04-04T22:35:07.764160Z,2.04313,-1.3771309999999999,0.211603
2019-04-04T22:35:07.965160Z,1.153385,-1.459554,1.139765
2019-04-04T22:35:08.166160Z,1.264448,-1.315776,1.420683
2019-04-04T22:35:08.366160Z,1.3791069999999999,-0.8851209999999999,-0.42507399999999995
2019-04-04T22:35:08.565160Z,-0.383875,0.01738,-0.186471
2019-04-04T22:35:08.766160Z,-0.385626,-0.094298,0.9563719999999999
2019-04-04T22:35:08.965160Z,0.226971,-1.246381,0.751528
2019-04-04T22:35:09.165160Z,0.18475899999999998,-0.983611,-0.419771
2019-04-04T22:35:09.366160Z,0.8448950000000001,-0.399402,0.366534
2019-04-04T22:35:09.565160Z,0.330782,0.074293,0.36757199999999995
2019-04-04T22:35:09.765160Z,0.115927,-0.201086,-0.25390799999999997
2019-04-04T22:35:09.966160Z,0.051957,0.330685,-0.6425960000000001
2019-04-04T22:35:10.169160Z,0.534245,0.084648,0.516075
2019-04-04T22:35:10.369160Z,-0.34226,-0.390579,0.37858
2019-04-04T22:35:10.567160Z,-0.107878,-0.5004310000000001,-0.16359
2019-04-04T22:35:10.768160Z,0.067137,-0.8075359999999999,0.221261
2019-04-04T22:35:10.968160Z,0.454161,-1.142949,1.539275
2019-04-04T22:35:11.166160Z,0.9893489999999999,-1.291095,0.26172199999999995
2019-04-04T22:35:11.366160Z,-0.251384,0.263278,-0.99493
2019-04-04T22:35:11.569160Z,-2.526186,-0.26613000000000003,0.6686340000000001
2019-04-04T22:35:11.768160Z,-2.313273,-1.031778,0.265912
2019-04-04T22:35:11.967160Z,-0.36243200000000003,-0.761844,0.5356810000000001
2019-04-04T22:35:12.168160Z,0.38742600000000005,0.071039,0.215261
2019-04-04T22:35:12.368160Z,1.045854,-0.151369,0.35501900000000003
2019-04-04T22:35:12.568160Z,1.7006150000000002,-0.31543899999999997,0.41892700000000005
2019-04-04T22:35:12.772160Z,2.043668,-0.641569,1.251019
2019-04-04T22:35:12.968160Z,0.412434,0.613783,-0.940109
2019-04-04T22:35:13.168160Z,0.303041,0.771683,-0.591023
2019-04-04T22:35:13.368160Z,-0.773419,0.7832020000000001,0.280449
2019-04-04T22:35:13.569160Z,-0.283808,-0.180696,0.424676
2019-04-04T22:35:13.769160Z,0.538094,-0.556017,-0.15773399999999999
2019-04-04T22:35:13.969160Z,-0.027408999999999996,-0.081298,-0.356346
2019-04-04T22:35:14.170160Z,0.110174,0.301739,0.705328
2019-04-04T22:35:14.370160Z,0.5166029999999999,-0.628572,0.521833
2019-04-04T22:35:14.575160Z,0.7610210000000001,-0.43812799999999996,-0.36431399999999997
2019-04-04T22:35:14.773160Z,-0.137623,0.5778260000000001,-0.872002
2019-04-04T22:35:14.972160Z,-0.9294610000000001,1.5511190000000001,-0.282876
2019-04-04T22:35:15.172160Z,-0.11814200000000001,-0.134518,1.029672
2019-04-04T22:35:15.372160Z,1.1103120000000002,-0.622158,-0.14494200000000002
2019-04-04T22:35:15.571160Z,0.9532940000000001,-0.101129,-0.256996
2019-04-04T22:35:15.782160Z,0.43659,0.9443549999999999,0.08029700000000001
2019-04-04T22:35:15.971160Z,-0.076861,0.198978,0.32537699999999997
2019-04-04T22:35:16.171160Z,0.042836,-0.6007359999999999,-0.10263399999999999
2019-04-04T22:35:16.373160Z,0.180843,-0.275159,-0.319393
2019-04-04T22:35:16.573160Z,0.303272,0.222629,0.372651
2019-04-04T22:35:16.772160Z,0.317094,0.09258,0.427353
2019-04-04T22:35:16.972160Z,-0.286773,-1.063695,0.262194
2019-04-04T22:35:17.174160Z,1.358616,0.270829,-0.263459
2019-04-04T22:35:17.373160Z,0.160228,0.245427,0.034297
2019-04-04T22:35:17.572160Z,-0.19411,0.144793,0.515405
2019-04-04T22:35:17.773160Z,-0.318337,-0.43677200000000005,0.28417
2019-04-04T22:35:17.974160Z,-0.558366,-1.079176,0.195391
2019-04-04T22:35:18.173160Z,0.13317400000000001,0.38474,-0.144834
2019-04-04T22:35:18.374160Z,-0.333018,1.075016,-0.11123
2019-04-04T22:35:18.573160Z,0.27021999999999996,-0.660192,0.713778
2019-04-04T22:35:18.774160Z,0.803836,-0.966465,0.40476799999999996
2019-04-04T22:35:18.976160Z,0.178573,-0.280248,-0.369979
2019-04-04T22:35:19.174160Z,-0.39024000000000003,0.053002,-0.704598
2019-04-04T22:35:19.374160Z,-0.5708529999999999,0.11336099999999999,0.177608
2019-04-04T22:35:19.575160Z,-0.026137,0.549687,0.049237
2019-04-04T22:35:19.775160Z,0.592902,-0.475425,0.30586199999999997
2019-04-04T22:35:19.974160Z,0.1078,-0.361873,-0.31595100000000004
2019-04-04T22:35:20.174160Z,-0.356692,0.79172,-0.8835069999999999
2019-04-04T22:35:20.375160Z,-1.7773459999999999,0.587746,0.567099
2019-04-04T22:35:20.575160Z,-0.8706860000000001,-1.697459,0.560841
2019-04-04T22:35:20.775160Z,1.062065,-1.530666,0.106331
2019-04-04T22:35:20.975160Z,2.075348,-0.256208,1.00495
2019-04-04T22:35:21.175160Z,1.566652,0.751382,0.262571
2019-04-04T22:35:21.376160Z,0.713406,-0.193386,0.421699
2019-04-04T22:35:21.578160Z,0.223727,-0.7645689999999999,-0.07064
2019-04-04T22:35:21.777160Z,0.893934,0.027925,0.5515260000000001
2019-04-04T22:35:21.978160Z,0.92781,0.392342,-0.169219
2019-04-04T22:35:22.176160Z,-0.174727,0.697696,-0.287593
2019-04-04T22:35:22.380160Z,-0.15618900000000002,-0.719176,0.565311
2019-04-04T22:35:22.576160Z,0.563066,-0.357675,-0.9223629999999999
2019-04-04T22:35:22.776160Z,0.003624,0.360649,0.670912
2019-04-04T22:35:22.977160Z,0.692542,0.024479,0.821685
2019-04-04T22:35:23.178160Z,0.649209,-0.12486099999999999,-0.8632200000000001
2019-04-04T22:35:23.387160Z,0.707263,0.56617,-0.9479850000000001
2019-04-04T22:35:23.578160Z,0.00925,0.803165,0.7963060000000001
2019-04-04T22:35:23.779160Z,-0.393368,-0.565663,1.0448110000000002
2019-04-04T22:35:23.978160Z,0.289837,-1.055057,-0.602163
2019-04-04T22:35:24.179160Z,0.8908459999999999,-0.081639,-0.00941
2019-04-04T22:35:24.405160Z,0.45026700000000003,0.166134,1.535398
2019-04-04T22:35:24.578160Z,0.87318,-0.585841,-0.296536
2019-04-04T22:35:24.781160Z,0.7034189999999999,-0.031559,-1.100626
2019-04-04T22:35:24.978160Z,-0.0047469999999999995,0.957786,0.49900600000000006
2019-04-04T22:35:25.178160Z,-0.196176,-0.146749,0.856678
2019-04-04T22:35:25.379160Z,0.25956799999999997,-0.709496,-0.726817
2019-04-04T22:35:25.580160Z,0.078862,0.245473,-0.368055
2019-04-04T22:35:25.780160Z,-0.097192,0.420368,1.216302
2019-04-04T22:35:26.001160Z,0.20918,-0.99984,0.045343
2019-04-04T22:35:26.180160Z,-0.332784,-0.516571,-0.721954
2019-04-04T22:35:26.380160Z,-0.761486,0.342776,-0.040303
2019-04-04T22:35:26.580160Z,-1.12765,-1.028098,0.697951
2019-04-04T22:35:26.780160Z,-0.368804,-0.776289,-0.044866
2019-04-04T22:35:26.982160Z,0.6146550000000001,-0.413142,0.641015
2019-04-04T22:35:27.182160Z,1.138344,-0.413918,0.806342
2019-04-04T22:35:27.380160Z,0.91963,-0.720729,-0.15521500000000002
2019-04-04T22:35:27.582160Z,0.532555,-0.049721,-0.168528
2019-04-04T22:35:27.781160Z,0.556345,0.061862,0.807176
2019-04-04T22:35:27.982160Z,0.209117,-0.880808,0.683992
2019-04-04T22:35:28.181160Z,0.403801,-1.180711,-0.050595999999999995
2019-04-04T22:35:28.382160Z,0.936277,-0.357921,-0.14765799999999998
2019-04-04T22:35:28.582160Z,1.182389,0.42795600000000006,0.46614099999999997
2019-04-04T22:35:28.782160Z,1.535908,-0.405334,0.6096630000000001
2019-04-04T22:35:28.983160Z,1.6659959999999998,0.306148,-0.622946
2019-04-04T22:35:29.183160Z,1.181266,0.161685,0.723464
2019-04-04T22:35:29.383160Z,1.322971,0.294275,0.508013
2019-04-04T22:35:29.583160Z,0.403003,-1.6607060000000002,1.1303020000000001
2019-04-04T22:35:29.783160Z,0.699516,-1.0828520000000001,0.121548
2019-04-04T22:35:30.008160Z,0.269489,-1.1134469999999999,0.274957
2019-04-04T22:35:30.183160Z,-0.36682,-0.49267799999999995,-0.027614
2019-04-04T22:35:30.383160Z,-0.45661199999999996,-0.194769,-0.012535
2019-04-04T22:35:30.583160Z,0.318712,-0.813808,0.37052199999999996
2019-04-04T22:35:30.784160Z,0.893541,-1.077231,0.49454799999999993
2019-04-04T22:35:30.984160Z,0.47240600000000005,-0.6951649999999999,0.113158
2019-04-04T22:35:31.185160Z,0.066758,-1.0878379999999999,0.312053
2019-04-04T22:35:31.385160Z,0.26982399999999995,-0.663518,0.431436
2019-04-04T22:35:31.586160Z,1.376514,0.109899,-0.111872
2019-04-04T22:35:31.787160Z,0.20177799999999999,0.330295,0.137232
2019-04-04T22:35:31.994160Z,-0.279186,-0.72109,0.583658
2019-04-04T22:35:32.185160Z,-0.190554,-1.6767,0.783399
2019-04-04T22:35:32.386160Z,-0.091823,-0.584712,-0.138993
2019-04-04T22:35:32.585160Z,-0.694348,-0.425688,-0.207817
2019-04-04T22:35:32.805160Z,-0.670396,-0.056653999999999996,0.853809
2019-04-04T22:35:32.986160Z,0.9634370000000001,-1.288532,0.6349640000000001
2019-04-04T22:35:33.186160Z,0.559817,-1.162941,-0.7444729999999999
2019-04-04T22:35:33.387160Z,0.565336,-0.21051999999999998,1.014441
2019-04-04T22:35:33.587160Z,-0.111944,-0.959702,1.252098
2019-04-04T22:35:33.786160Z,0.53104,-0.708873,-0.522834
2019-04-04T22:35:33.986160Z,-1.35439,-0.6226119999999999,-0.5831270000000001
2019-04-04T22:35:34.189160Z,-1.784721,-0.837832,1.010299
2019-04-04T22:35:34.389160Z,-1.876498,-1.3459020000000002,-0.521361
2019-04-04T22:35:34.587160Z,-1.646722,-1.452228,0.031519
2019-04-04T22:35:34.788160Z,1.2025540000000001,-0.08818200000000001,0.452556
2019-04-04T22:35:34.987160Z,0.762149,0.420101,1.657803
2019-04-04T22:35:35.190160Z,0.135234,-1.424811,0.441774
2019-04-04T22:35:35.388160Z,0.357709,-0.354517,-1.238451
2019-04-04T22:35:35.588160Z,0.7109880000000001,0.9129290000000001,0.6268020000000001
2019-04-04T22:35:35.792160Z,1.4906760000000001,-0.838837,1.430428
2019-04-04T22:35:35.989160Z,1.584063,-0.85701,-1.1471049999999998
2019-04-04T22:35:36.189160Z,0.863484,0.413096,0.226125
2019-04-04T22:35:36.388160Z,0.439666,0.5881310000000001,1.190092
2019-04-04T22:35:36.589160Z,0.929984,-1.257918,0.520602
