Datetime,accx,accy,accz
2019-05-23T03:49:20.201956Z,0.0,0.0,0.0
2019-05-23T03:49:20.365956Z,0.318598,-0.180374,0.310967
2019-05-23T03:49:20.604956Z,-1.249937,-0.012203,0.345669
2019-05-23T03:49:20.764956Z,0.17649,-0.096231,0.298031
2019-05-23T03:49:21.002956Z,-0.43991,-1.209127,-0.23681799999999997
2019-05-23T03:49:21.164956Z,0.215115,-0.5451199999999999,-0.460808
2019-05-23T03:49:21.405956Z,-0.8214610000000001,0.197079,-0.336431
2019-05-23T03:49:21.563956Z,-0.779985,-0.514668,0.8816729999999999
2019-05-23T03:49:21.804956Z,-0.728858,-1.229251,-0.080999
2019-05-23T03:49:21.964956Z,-0.17493599999999998,-0.362861,-0.629991
2019-05-23T03:49:22.205956Z,0.558699,1.36428,0.27465300000000004
2019-05-23T03:49:22.365956Z,0.594692,0.065812,0.864426
2019-05-23T03:49:22.644956Z,1.445117,-1.134419,-0.360396
2019-05-23T03:49:22.765956Z,0.003104,0.40325300000000003,-0.911057
2019-05-23T03:49:23.010956Z,1.109953,0.20842,1.635527
2019-05-23T03:49:23.166956Z,1.8392959999999998,-0.6260399999999999,-0.41911400000000004
2019-05-23T03:49:23.406956Z,0.145378,-0.276065,0.005852
2019-05-23T03:49:23.568956Z,0.168692,0.365927,1.019994
2019-05-23T03:49:23.805956Z,-0.9631879999999999,-0.9903,-0.059955999999999995
2019-05-23T03:49:23.965956Z,-0.38821,-0.933591,-0.7579140000000001
2019-05-23T03:49:24.206956Z,0.366732,-0.02159,0.78008
2019-05-23T03:49:24.368956Z,1.607672,-0.44423500000000005,0.780007
2019-05-23T03:49:24.605956Z,1.0351190000000001,-0.935834,-0.278622
2019-05-23T03:49:24.768956Z,-0.316858,-0.22184,-0.102162
2019-05-23T03:49:25.010956Z,-0.43092700000000006,0.307327,1.164331
2019-05-23T03:49:25.168956Z,0.17957,-1.246497,0.016273
2019-05-23T03:49:25.408956Z,-0.650131,-0.764289,-0.833693
2019-05-23T03:49:25.568956Z,-2.501793,-0.088757,0.873044
2019-05-23T03:49:25.807956Z,-1.827288,-1.208346,0.6142920000000001
2019-05-23T03:49:25.969956Z,-2.040865,-1.607236,0.068895
2019-05-23T03:49:26.211956Z,2.271583,0.43635,0.41872200000000004
2019-05-23T03:49:26.367956Z,1.113059,0.519628,0.49828599999999995
2019-05-23T03:49:26.606956Z,-0.149857,-0.796721,-0.048549
2019-05-23T03:49:26.767956Z,0.736955,0.223034,-0.9859760000000001
2019-05-23T03:49:27.011956Z,0.561918,1.364072,-0.324861
2019-05-23T03:49:27.171956Z,-0.08458099999999999,-0.04312,1.7748240000000002
2019-05-23T03:49:27.410956Z,1.3861299999999999,-1.321223,-0.523879
2019-05-23T03:49:27.567956Z,-0.316334,-0.171231,-0.961016
2019-05-23T03:49:27.809956Z,-0.109927,0.834316,0.420954
2019-05-23T03:49:27.968956Z,-0.415045,-0.6400859999999999,0.434183
2019-05-23T03:49:28.210956Z,-0.204487,-0.857935,-0.654829
2019-05-23T03:49:28.369956Z,0.201015,0.269856,0.7059850000000001
2019-05-23T03:49:28.609956Z,1.3968969999999998,0.012772,0.736863
2019-05-23T03:49:28.774956Z,0.5112399999999999,-0.399683,-1.282208
2019-05-23T03:49:29.011956Z,-0.512609,0.839534,-0.349406
2019-05-23T03:49:29.171956Z,-1.204316,0.47020100000000004,1.006284
2019-05-23T03:49:29.412956Z,-0.389079,-0.875116,-0.259869
2019-05-23T03:49:29.573956Z,-0.542586,-0.8728629999999999,-0.095079
2019-05-23T03:49:29.813956Z,-0.03975,0.44023900000000005,0.8069970000000001
2019-05-23T03:49:29.970956Z,0.8247270000000001,-0.6427109999999999,0.181314
2019-05-23T03:49:30.212956Z,-1.2206549999999998,-0.339837,-1.083597
2019-05-23T03:49:30.395956Z,-1.7748110000000001,-0.266783,0.731508
2019-05-23T03:49:30.612956Z,0.484335,-1.165568,0.507099
2019-05-23T03:49:30.770956Z,1.162847,-0.023341,-0.17418699999999998
2019-05-23T03:49:31.013956Z,0.8266969999999999,0.8259850000000001,0.616259
2019-05-23T03:49:31.171956Z,1.643721,-0.185968,0.687669
2019-05-23T03:49:31.413956Z,1.5860809999999999,-0.130778,-0.489254
2019-05-23T03:49:31.572956Z,-0.788774,0.895594,-0.01141
2019-05-23T03:49:31.813956Z,-0.106582,0.15279500000000001,0.19986700000000002
2019-05-23T03:49:31.973956Z,-0.293425,0.010812,-0.823781
2019-05-23T03:49:32.213956Z,0.639124,-0.051667,0.125275
2019-05-23T03:49:32.376956Z,2.12087,-0.577778,2.130521
2019-05-23T03:49:32.617956Z,1.083115,-0.662462,-1.197743
2019-05-23T03:49:32.773956Z,0.261238,0.265542,-0.550431
2019-05-23T03:49:33.015956Z,-1.538535,0.336884,0.8618049999999999
2019-05-23T03:49:33.174956Z,-0.853757,-1.236759,0.012928
2019-05-23T03:49:33.417956Z,0.916784,-0.326375,-0.102798
2019-05-23T03:49:33.573956Z,0.871194,0.739841,0.7607430000000001
2019-05-23T03:49:33.813956Z,0.9058,-1.028441,1.3432549999999999
2019-05-23T03:49:33.975956Z,1.122581,-0.663129,-0.8911479999999999
2019-05-23T03:49:34.216956Z,0.039391,0.639814,0.0035380000000000003
2019-05-23T03:49:34.376956Z,-0.715242,0.045170999999999996,0.562554
2019-05-23T03:49:34.616956Z,0.019288999999999997,-1.419088,-0.198432
2019-05-23T03:49:34.776956Z,0.261061,-0.410894,0.20011099999999998
2019-05-23T03:49:35.017956Z,1.22917,-0.356822,1.904095
2019-05-23T03:49:35.176956Z,1.4485219999999999,-0.854557,-0.145111
2019-05-23T03:49:35.415956Z,0.575228,-0.293931,-0.002309
2019-05-23T03:49:35.575956Z,1.9647759999999999,0.133097,0.629963
2019-05-23T03:49:35.817956Z,3.417729,-0.719956,1.171215
2019-05-23T03:49:35.975956Z,1.7208439999999998,-0.592316,0.19718
2019-05-23T03:49:36.218956Z,-0.075313,0.5935590000000001,-0.220038
2019-05-23T03:49:36.379956Z,0.75363,-0.288833,1.9512909999999999
2019-05-23T03:49:36.615956Z,0.639945,-1.801722,-0.28757
2019-05-23T03:49:36.775956Z,0.367548,-0.414116,-0.663465
2019-05-23T03:49:37.017956Z,0.198803,-0.8496549999999999,2.2263330000000003
2019-05-23T03:49:37.177956Z,1.958431,-1.76188,0.845944
2019-05-23T03:49:37.419956Z,0.8970020000000001,-1.193491,0.145111
2019-05-23T03:49:37.581956Z,-0.37906799999999996,-0.188331,0.7746689999999999
2019-05-23T03:49:37.818956Z,0.605021,-0.6762630000000001,1.279418
2019-05-23T03:49:37.977956Z,0.520699,-1.455951,-0.8010970000000001
2019-05-23T03:49:38.219956Z,-0.993082,0.164721,-0.880001
2019-05-23T03:49:38.393956Z,-0.680736,0.6022529999999999,0.92395
2019-05-23T03:49:38.617956Z,0.837908,-1.371569,0.629049
2019-05-23T03:49:38.780956Z,0.9063829999999999,-1.054717,0.168377
2019-05-23T03:49:39.017956Z,-1.004073,0.07699299999999999,0.03272
2019-05-23T03:49:39.179956Z,0.657903,-0.5934149999999999,1.325445
2019-05-23T03:49:39.420956Z,2.837111,-1.9894919999999998,1.09766
2019-05-23T03:49:39.580956Z,1.45999,-1.182189,0.42036899999999994
2019-05-23T03:49:39.818956Z,0.265094,0.122419,0.879818
2019-05-23T03:49:39.984956Z,-0.812578,-0.774982,0.034086
2019-05-23T03:49:40.219956Z,0.773224,-1.354938,0.45859399999999995
2019-05-23T03:49:40.381956Z,0.759832,0.23091199999999998,0.8702610000000001
2019-05-23T03:49:40.619956Z,0.897402,-0.894092,1.0410840000000001
2019-05-23T03:49:40.780956Z,-0.090526,-1.352028,-0.5173270000000001
2019-05-23T03:49:41.043956Z,0.25762399999999996,0.43642200000000003,-0.167697
2019-05-23T03:49:41.180956Z,-0.018774000000000002,0.13029000000000002,1.4526459999999999
2019-05-23T03:49:41.422956Z,-0.147095,-1.2859129999999999,-0.208364
2019-05-23T03:49:41.582956Z,0.157148,-0.73282,0.229023
2019-05-23T03:49:41.858956Z,0.427778,-0.40429899999999996,1.764472
2019-05-23T03:49:41.980956Z,0.497439,-1.372161,-0.549046
2019-05-23T03:49:42.221956Z,0.170318,-0.49666000000000005,-0.558022
2019-05-23T03:49:42.383956Z,-0.07022,0.69923,0.9279459999999999
2019-05-23T03:49:42.622956Z,0.116976,-1.15829,0.8707590000000001
2019-05-23T03:49:42.807956Z,0.6974100000000001,-1.231015,-0.430579
2019-05-23T03:49:43.023956Z,0.82993,0.20574800000000001,0.43558900000000006
2019-05-23T03:49:43.183956Z,2.4165259999999997,-0.9797799999999999,1.6605720000000002
2019-05-23T03:49:43.424956Z,0.528936,-1.7190279999999998,0.05876699999999999
2019-05-23T03:49:43.585956Z,-0.981273,-0.905653,0.8770479999999999
2019-05-23T03:49:43.825956Z,-0.17669200000000002,-0.799601,-0.043738
2019-05-23T03:49:43.982956Z,0.08292000000000001,-0.734403,0.64552
2019-05-23T03:49:44.227956Z,1.7310759999999998,0.24109699999999998,-0.044711
2019-05-23T03:49:44.386956Z,-0.457766,0.458354,-0.545151
2019-05-23T03:49:44.623956Z,0.17037,-0.53717,0.641099
2019-05-23T03:49:44.788956Z,0.9438709999999999,-1.190461,0.690681
2019-05-23T03:49:45.025956Z,0.870656,-0.49190900000000004,0.251402
2019-05-23T03:49:45.185956Z,1.092909,0.19627999999999998,-0.150445
2019-05-23T03:49:45.423956Z,-0.530461,0.568639,-0.270891
2019-05-23T03:49:45.585956Z,-0.65382,-0.263802,1.408887
2019-05-23T03:49:45.826956Z,-0.722565,-1.145467,-0.716709
2019-05-23T03:49:45.985956Z,-0.340171,0.06501599999999999,-0.545599
2019-05-23T03:49:46.225956Z,-0.307786,0.390096,1.5505950000000002
2019-05-23T03:49:46.389956Z,1.384983,-1.2817690000000002,0.165573
2019-05-23T03:49:46.635956Z,0.021893,-0.850556,-1.566468
2019-05-23T03:49:46.785956Z,-0.413487,0.346348,1.24485
2019-05-23T03:49:47.027956Z,0.166455,-1.005258,1.112547
2019-05-23T03:49:47.186956Z,0.402435,-1.3524459999999998,-0.48832600000000004
2019-05-23T03:49:47.428956Z,0.563597,-0.081228,-0.377986
2019-05-23T03:49:47.588956Z,0.275039,-0.20545500000000003,1.493496
2019-05-23T03:49:47.830956Z,0.645069,-1.467093,-0.053068
2019-05-23T03:49:47.988956Z,0.379859,-0.949443,-0.230514
2019-05-23T03:49:48.227956Z,0.355745,-0.154576,0.398579
2019-05-23T03:49:48.385956Z,0.238436,-0.5216649999999999,0.13099
2019-05-23T03:49:48.625956Z,0.030213,-0.847024,-0.020419
2019-05-23T03:49:48.788956Z,-0.45205500000000004,0.025869,-0.46841499999999997
2019-05-23T03:49:49.027956Z,-0.44513400000000003,0.400737,0.261938
2019-05-23T03:49:49.189956Z,-1.051288,-1.015991,0.147763
2019-05-23T03:49:49.429956Z,-1.513515,-1.943185,0.595511
2019-05-23T03:49:49.589956Z,-1.471437,-1.378334,-0.333146
2019-05-23T03:49:49.827956Z,-0.523302,-0.877808,0.21381799999999998
2019-05-23T03:49:49.988956Z,0.818238,-0.13267,0.368694
2019-05-23T03:49:50.228956Z,0.6420899999999999,-0.340438,0.6902560000000001
2019-05-23T03:49:50.390956Z,0.468109,-0.684458,-0.16883499999999999
2019-05-23T03:49:50.628956Z,0.669459,-0.29477800000000004,-0.209135
2019-05-23T03:49:50.789956Z,0.641343,0.12271199999999999,0.596105
2019-05-23T03:49:51.029956Z,0.984082,0.215915,0.091396
2019-05-23T03:49:51.191956Z,0.991216,0.24892399999999998,-0.396811
2019-05-23T03:49:51.429956Z,0.893034,0.9137040000000001,-0.456118
2019-05-23T03:49:51.590956Z,0.649572,0.370568,0.443615
2019-05-23T03:49:51.829956Z,1.3261020000000001,-0.040574,0.749087
2019-05-23T03:49:51.991956Z,1.402217,-0.587151,-0.157369
2019-05-23T03:49:52.230956Z,1.631348,-0.024872,-0.253073
2019-05-23T03:49:52.391956Z,0.566878,-0.354891,1.002915
2019-05-23T03:49:52.633956Z,-0.057303,-1.6610880000000001,1.087572
2019-05-23T03:49:52.793956Z,-0.355613,-1.485334,-0.684673
2019-05-23T03:49:53.030956Z,-0.269256,0.148412,-0.77184
2019-05-23T03:49:53.190956Z,-0.31004499999999996,0.252261,0.476542
2019-05-23T03:49:53.432956Z,0.04649,-0.606312,1.3019
2019-05-23T03:49:53.590956Z,-0.23160799999999998,-1.0900290000000001,-0.146182
2019-05-23T03:49:53.830956Z,-0.294973,0.122903,-0.585925
2019-05-23T03:49:53.995956Z,0.045481,0.6283350000000001,0.078583
2019-05-23T03:49:54.253956Z,0.164191,-1.049798,0.8477549999999999
2019-05-23T03:49:54.392956Z,0.018697,-0.282564,-0.970728
2019-05-23T03:49:54.631956Z,0.207348,0.714052,-0.274948
2019-05-23T03:49:54.792956Z,0.254673,-0.392854,1.774745
2019-05-23T03:49:55.033956Z,-1.7890259999999998,-0.78296,-0.410704
2019-05-23T03:49:55.194956Z,-0.010674,0.8169,-0.737153
2019-05-23T03:49:55.432956Z,0.136454,-0.009399,2.0437060000000002
2019-05-23T03:49:55.592956Z,0.607833,-1.50527,-0.124143
2019-05-23T03:49:55.832956Z,0.814708,-0.8977430000000001,-1.340133
2019-05-23T03:49:55.992956Z,-0.043983,0.122555,0.37760900000000003
2019-05-23T03:49:56.235956Z,0.133249,-0.6995020000000001,1.572535
2019-05-23T03:49:56.397956Z,0.06736,-1.294131,-0.5016229999999999
2019-05-23T03:49:56.634956Z,0.464301,0.18224200000000002,-0.8128920000000001
2019-05-23T03:49:56.793956Z,1.298083,0.264422,1.7610569999999999
2019-05-23T03:49:57.034956Z,3.052028,-1.764177,0.442809
2019-05-23T03:49:57.194956Z,1.132433,-1.660039,-0.375681
2019-05-23T03:49:57.436956Z,0.185539,0.294862,0.790308
2019-05-23T03:49:57.594956Z,-1.045751,-1.160488,1.000022
2019-05-23T03:49:57.834956Z,-1.3321969999999999,-1.835651,-0.39592
2019-05-23T03:49:57.996956Z,-0.393176,-0.628704,-0.159153
2019-05-23T03:49:58.236956Z,-0.12146199999999999,-0.178234,0.978951
2019-05-23T03:49:58.394956Z,1.315516,-1.180324,1.276745
2019-05-23T03:49:58.650956Z,0.787636,-1.3229389999999999,-1.01736
2019-05-23T03:49:58.798956Z,-0.351479,-0.094203,0.074409
2019-05-23T03:49:59.037956Z,0.282448,0.205963,1.023126
2019-05-23T03:49:59.197956Z,-0.08101900000000001,-1.671417,0.179947
2019-05-23T03:49:59.436956Z,0.283445,-1.026411,0.119049
2019-05-23T03:49:59.596956Z,-0.464052,0.037467,0.440907
2019-05-23T03:49:59.836956Z,0.370174,-0.41998800000000003,0.805534
2019-05-23T03:49:59.998956Z,-0.5669420000000001,-0.459826,-1.2978399999999999
2019-05-23T03:50:00.237956Z,0.368307,-0.201466,0.393104
2019-05-23T03:50:00.398956Z,-0.490062,-0.021531,1.3093270000000001
2019-05-23T03:50:00.637956Z,-0.343559,-1.681316,-0.036299
2019-05-23T03:50:00.798956Z,-0.79577,-1.015687,-0.27302600000000005
2019-05-23T03:50:01.037956Z,-0.44373500000000005,0.149362,0.713354
2019-05-23T03:50:01.198956Z,1.241982,-0.709777,0.6643939999999999
2019-05-23T03:50:01.437956Z,0.876878,-0.357686,-1.3305799999999999
2019-05-23T03:50:01.597956Z,0.22052600000000003,0.44516300000000003,0.6183420000000001
2019-05-23T03:50:01.837956Z,-0.10530899999999999,-0.656461,1.0565309999999999
2019-05-23T03:50:01.997956Z,0.7494529999999999,-1.1043049999999999,-0.803769
2019-05-23T03:50:02.248956Z,0.837889,-0.783862,0.814404
2019-05-23T03:50:02.398956Z,1.476373,-0.887546,1.7546009999999999
2019-05-23T03:50:02.638956Z,1.7245119999999998,-1.102492,-0.045420999999999996
2019-05-23T03:50:02.799956Z,0.9364540000000001,-0.7546609999999999,0.829159
2019-05-23T03:50:03.041956Z,-0.38874000000000003,-0.83631,0.821018
2019-05-23T03:50:03.203956Z,-0.880857,-1.74203,0.37485799999999997
2019-05-23T03:50:03.442956Z,-0.78018,-1.100125,-0.315644
2019-05-23T03:50:03.601956Z,-0.7077289999999999,-0.16408399999999998,0.62466
2019-05-23T03:50:03.844956Z,0.506054,-0.7784949999999999,0.6798960000000001
2019-05-23T03:50:04.000956Z,0.48844099999999996,-1.351071,-0.097499
2019-05-23T03:50:04.240956Z,-0.930549,-0.10325999999999999,-0.6480060000000001
2019-05-23T03:50:04.402956Z,-0.44171099999999996,-0.381363,1.7884
2019-05-23T03:50:04.639956Z,0.8672280000000001,-0.9846030000000001,-0.45141800000000004
2019-05-23T03:50:04.803956Z,1.0155809999999998,-0.203837,0.12188099999999999
2019-05-23T03:50:05.043956Z,1.291568,0.595105,0.750016
2019-05-23T03:50:05.247956Z,1.048638,-1.316878,0.149732
2019-05-23T03:50:05.443956Z,-0.295231,-0.7971010000000001,-0.549466
2019-05-23T03:50:05.610956Z,-0.547346,0.24666,0.331985
2019-05-23T03:50:05.841956Z,0.08622300000000001,-0.694674,1.9213040000000001
2019-05-23T03:50:06.003956Z,1.322769,-1.553334,-0.568349
2019-05-23T03:50:06.241956Z,1.4713459999999998,-0.831801,0.042692
2019-05-23T03:50:06.403956Z,1.272319,0.49691899999999994,1.3948610000000001
2019-05-23T03:50:06.643956Z,2.090089,-1.13212,1.328484
2019-05-23T03:50:06.802956Z,1.104968,-0.5555760000000001,-0.590983
2019-05-23T03:50:07.044956Z,-0.520197,-0.25675,1.8738560000000002
2019-05-23T03:50:07.203956Z,0.978251,-1.869691,0.196568
2019-05-23T03:50:07.443956Z,-0.24477600000000002,-1.725639,0.396082
2019-05-23T03:50:07.603956Z,1.426451,0.13480799999999998,0.16835899999999998
2019-05-23T03:50:07.844956Z,1.321208,-1.702616,1.4603059999999999
2019-05-23T03:50:08.004956Z,1.630574,-1.076201,-0.36231599999999997
2019-05-23T03:50:08.246956Z,0.740641,0.053121,0.905897
2019-05-23T03:50:08.405956Z,0.8745120000000001,-0.600394,1.34899
2019-05-23T03:50:08.644956Z,-0.327613,-1.207195,-0.869561
2019-05-23T03:50:08.803956Z,0.07462,-0.018574,-0.388326
2019-05-23T03:50:09.045956Z,-0.047764,0.697239,0.8525809999999999
2019-05-23T03:50:09.204956Z,0.888432,-1.3252979999999999,0.756023
2019-05-23T03:50:09.449956Z,0.370844,-0.841756,-0.615745
2019-05-23T03:50:09.604956Z,0.123724,0.2795,0.79047
2019-05-23T03:50:09.846956Z,-0.232031,-1.092484,0.9463719999999999
2019-05-23T03:50:10.004956Z,0.427242,-0.857967,-0.668706
2019-05-23T03:50:10.247956Z,0.771569,-0.409983,1.079842
2019-05-23T03:50:10.407956Z,1.086667,-0.774659,0.727861
2019-05-23T03:50:10.649956Z,1.014234,-0.609308,-0.846383
2019-05-23T03:50:10.814956Z,0.920825,-0.43609,0.548941
2019-05-23T03:50:11.048956Z,1.553268,-0.596929,1.388004
2019-05-23T03:50:11.205956Z,1.625989,-2.096236,0.457692
2019-05-23T03:50:11.448956Z,1.3898110000000001,-1.068127,-0.192388
2019-05-23T03:50:11.608956Z,0.8636870000000001,-0.779806,0.880876
2019-05-23T03:50:11.848956Z,0.944061,-1.287952,1.103526
2019-05-23T03:50:12.009956Z,0.791258,-1.528484,0.175074
2019-05-23T03:50:12.248956Z,0.647985,-0.72863,0.10720999999999999
2019-05-23T03:50:12.408956Z,0.5105529999999999,-0.066483,0.852406
2019-05-23T03:50:12.647956Z,0.20458800000000002,-0.719954,-0.03044
2019-05-23T03:50:12.807956Z,0.38083,-1.0088549999999998,-0.036664999999999996
2019-05-23T03:50:13.048956Z,0.21149400000000002,0.487716,0.049547
2019-05-23T03:50:13.211956Z,0.37627,-0.514728,1.28598
2019-05-23T03:50:13.447956Z,-2.129984,-2.140848,-0.194854
2019-05-23T03:50:13.608956Z,-1.0597860000000001,-0.626947,-0.307458
2019-05-23T03:50:13.849956Z,-0.773003,0.397715,0.8392120000000001
2019-05-23T03:50:14.008956Z,-1.72298,-1.057482,-0.14240899999999998
2019-05-23T03:50:14.251956Z,0.436331,-1.0309139999999999,-0.052999
2019-05-23T03:50:14.412956Z,0.639945,-0.252327,1.6424869999999998
2019-05-23T03:50:14.652956Z,1.409667,-0.769568,0.395851
2019-05-23T03:50:14.810956Z,0.55032,-0.471132,-0.771254
2019-05-23T03:50:15.051956Z,0.296466,0.5620390000000001,0.23070700000000002
2019-05-23T03:50:15.209956Z,0.703767,-0.40050399999999997,1.354674
2019-05-23T03:50:15.451956Z,1.0266819999999999,-1.36516,-0.397122
2019-05-23T03:50:15.619956Z,0.396809,-0.706389,-0.693511
2019-05-23T03:50:15.852956Z,1.579967,-0.069909,2.177361
2019-05-23T03:50:16.011956Z,4.397126,-2.7619,1.220717
2019-05-23T03:50:16.252956Z,2.119995,-4.196705000000001,0.776277
2019-05-23T03:50:16.411956Z,1.4166530000000002,-1.7231610000000002,0.8715510000000001
2019-05-23T03:50:16.651956Z,-0.35184,-0.996592,0.699539
2019-05-23T03:50:16.810956Z,-0.496699,-1.231657,0.871373
2019-05-23T03:50:17.052956Z,-0.617884,-1.762672,0.29170300000000005
2019-05-23T03:50:17.212956Z,0.42748100000000006,-0.002163,0.289779
2019-05-23T03:50:17.472956Z,0.786987,-0.6048819999999999,0.982878
2019-05-23T03:50:17.612956Z,0.772927,-1.172583,-0.7107600000000001
2019-05-23T03:50:17.854956Z,0.031836,-0.665802,0.351501
2019-05-23T03:50:18.014956Z,-1.34289,-0.412026,1.214574
2019-05-23T03:50:18.256956Z,-0.068486,-1.475134,0.311942
2019-05-23T03:50:18.422956Z,0.144727,-0.41503100000000004,-0.862066
2019-05-23T03:50:18.654956Z,-0.19648,0.171764,1.010618
2019-05-23T03:50:18.815956Z,1.617324,-0.9029940000000001,0.30606300000000003
2019-05-23T03:50:19.052956Z,1.704523,-0.573547,-0.449172
2019-05-23T03:50:19.216956Z,0.406447,0.271111,1.0039049999999998
2019-05-23T03:50:19.457956Z,-0.097068,-0.9892040000000001,0.544621
2019-05-23T03:50:19.627956Z,0.6738069999999999,-1.208927,-0.524293
2019-05-23T03:50:19.856956Z,-0.238378,0.085884,0.287864
2019-05-23T03:50:20.014956Z,0.111373,-0.366944,1.338147
2019-05-23T03:50:20.255956Z,0.41159399999999996,-1.019274,-0.451366
2019-05-23T03:50:20.417956Z,0.021100999999999998,-0.041172,-0.638092
2019-05-23T03:50:20.659956Z,0.269548,0.46638100000000005,0.9382299999999999
2019-05-23T03:50:20.870956Z,-0.060078999999999994,-0.9737319999999999,0.408597
2019-05-23T03:50:21.056956Z,-0.010105,-0.583487,-0.507297
2019-05-23T03:50:21.235956Z,-0.359721,0.016694,0.876074
2019-05-23T03:50:21.455956Z,0.7891520000000001,-0.748466,0.742082
2019-05-23T03:50:21.616956Z,0.830989,-1.00007,-0.46925100000000003
2019-05-23T03:50:21.854956Z,-0.200854,-0.0044659999999999995,-0.188607
2019-05-23T03:50:22.017956Z,0.8284940000000001,0.610053,0.39374000000000003
2019-05-23T03:50:22.257956Z,0.845124,-0.326402,0.015991
2019-05-23T03:50:22.416956Z,0.13098900000000002,-0.335351,-0.09515900000000001
2019-05-23T03:50:22.657956Z,0.013893,0.086828,-0.01212
2019-05-23T03:50:22.816956Z,0.254391,-0.11973900000000001,1.0954059999999999
2019-05-23T03:50:23.057956Z,0.429418,-0.9490559999999999,-0.461596
2019-05-23T03:50:23.231956Z,0.07449800000000001,0.132748,-0.880719
2019-05-23T03:50:23.455956Z,-0.5909949999999999,0.663662,0.8692639999999999
2019-05-23T03:50:23.617956Z,-1.37541,-0.897608,0.450383
2019-05-23T03:50:23.856956Z,-0.652995,-0.8905350000000001,-0.41144200000000003
2019-05-23T03:50:24.017956Z,-0.760818,0.051099,0.491587
2019-05-23T03:50:24.259956Z,-1.579923,-1.1809180000000001,1.003665
2019-05-23T03:50:24.419956Z,-0.778234,-2.0491740000000003,-0.029580000000000002
2019-05-23T03:50:24.659956Z,1.149824,-0.434198,0.278287
2019-05-23T03:50:24.818956Z,1.2360879999999999,0.411505,0.454218
2019-05-23T03:50:25.060956Z,0.549413,-0.804218,0.24631599999999998
2019-05-23T03:50:25.226956Z,0.280144,-0.187951,-0.918776
2019-05-23T03:50:25.459956Z,0.507677,0.807766,0.24106999999999998
2019-05-23T03:50:25.619956Z,0.823659,-0.215333,0.841016
2019-05-23T03:50:25.860956Z,1.647864,-0.504368,-0.506979
2019-05-23T03:50:26.019956Z,0.48966499999999996,0.376564,-0.430742
2019-05-23T03:50:26.261956Z,1.030131,0.811649,0.214712
2019-05-23T03:50:26.421956Z,1.431115,-0.5724899999999999,0.5890449999999999
2019-05-23T03:50:26.659956Z,1.272114,0.08995399999999999,-1.1033190000000002
2019-05-23T03:50:26.822956Z,-0.14971600000000002,0.41969700000000004,-0.035233999999999994
2019-05-23T03:50:27.061956Z,-0.076555,-0.383943,0.9896950000000001
2019-05-23T03:50:27.221956Z,0.864445,-0.45425699999999997,-0.094205
2019-05-23T03:50:27.460956Z,0.545729,0.21207800000000002,-0.768145
2019-05-23T03:50:27.620956Z,0.659067,1.08141,0.350115
2019-05-23T03:50:27.859956Z,0.328571,-0.213362,0.8413930000000001
2019-05-23T03:50:28.022956Z,0.06274400000000001,-0.9304180000000001,-0.342478
2019-05-23T03:50:28.262956Z,0.245746,0.043075,-0.6470520000000001
2019-05-23T03:50:28.423956Z,0.174061,0.414393,0.9039459999999999
2019-05-23T03:50:28.660956Z,1.477973,-1.06112,0.398573
2019-05-23T03:50:28.820956Z,0.104117,0.243227,-1.328187
2019-05-23T03:50:29.063956Z,0.18124500000000002,0.809068,0.39757600000000004
2019-05-23T03:50:29.223956Z,-0.07702,-0.22982600000000003,0.592997
2019-05-23T03:50:29.463956Z,0.9481379999999999,-1.0370409999999999,-0.179293
2019-05-23T03:50:29.626956Z,0.461363,-0.165752,0.012278
2019-05-23T03:50:29.863956Z,0.817555,0.587665,0.17965799999999998
2019-05-23T03:50:30.022956Z,0.334264,-0.23277399999999998,-0.21104299999999998
2019-05-23T03:50:30.264956Z,0.217164,-0.065228,-0.744624
2019-05-23T03:50:30.424956Z,0.048149000000000004,0.776766,-0.094363
2019-05-23T03:50:30.663956Z,0.33537,0.051851,0.955066
2019-05-23T03:50:30.823956Z,0.46857600000000005,-1.373689,0.095455
2019-05-23T03:50:31.102956Z,0.093274,-0.227069,-0.776944
2019-05-23T03:50:31.222956Z,-1.7017689999999999,1.129926,-0.188623
2019-05-23T03:50:31.463956Z,-0.5773510000000001,0.24132399999999998,0.8429129999999999
2019-05-23T03:50:31.624956Z,1.113168,-0.756577,-0.12931600000000001
2019-05-23T03:50:31.866956Z,0.610959,-0.096005,-0.486331
2019-05-23T03:50:32.025956Z,-0.102167,0.8236209999999999,1.217051
2019-05-23T03:50:32.321956Z,-0.521176,-1.478568,-0.024598
2019-05-23T03:50:32.426956Z,-0.941846,-0.272701,-1.2591629999999998
2019-05-23T03:50:32.692956Z,-0.581308,-0.42486999999999997,0.6992109999999999
2019-05-23T03:50:32.826956Z,0.30739099999999997,-1.087924,0.854658
2019-05-23T03:50:33.101956Z,0.563264,-0.649227,0.23548400000000003
2019-05-23T03:50:33.226956Z,0.545628,0.487674,0.074714
2019-05-23T03:50:33.467956Z,0.40571,0.324002,0.478441
2019-05-23T03:50:33.628956Z,1.0065819999999999,-0.8378540000000001,0.6441899999999999
2019-05-23T03:50:33.867956Z,1.153989,-0.025947,-0.8321629999999999
2019-05-23T03:50:34.028956Z,-0.016347999999999998,0.487071,0.321395
2019-05-23T03:50:34.265956Z,1.01055,-0.00019099999999999998,1.128227
2019-05-23T03:50:34.426956Z,-0.269109,-0.125427,-1.246219
2019-05-23T03:50:34.667956Z,1.058195,0.522357,-0.739598
2019-05-23T03:50:34.830956Z,0.732336,1.026563,0.8307399999999999
2019-05-23T03:50:35.067956Z,1.04385,-1.11375,0.940435
2019-05-23T03:50:35.228956Z,0.180279,-0.511031,-1.0419459999999998
2019-05-23T03:50:35.466956Z,0.710617,0.914518,-0.194254
2019-05-23T03:50:35.628956Z,0.8586600000000001,0.264291,1.3564049999999999
2019-05-23T03:50:35.869956Z,1.2260799999999998,-0.934522,-0.49017299999999997
2019-05-23T03:50:36.030956Z,0.511616,0.176208,-0.335341
2019-05-23T03:50:36.267956Z,0.51218,0.818725,0.464057
2019-05-23T03:50:36.428956Z,-1.105774,-0.5968760000000001,-0.013944
2019-05-23T03:50:36.669956Z,0.192951,-0.398525,-0.43607799999999997
2019-05-23T03:50:36.827956Z,-0.597622,1.414056,-0.030129000000000003
2019-05-23T03:50:37.069956Z,1.12657,-0.6687770000000001,1.138279
2019-05-23T03:50:37.230956Z,1.433199,-0.42117,-0.5928399999999999
2019-05-23T03:50:37.470956Z,1.03253,0.257274,0.054383
2019-05-23T03:50:37.629956Z,-0.5037560000000001,-0.021135,1.174026
2019-05-23T03:50:37.869956Z,0.10309000000000001,-1.285469,-0.20939000000000002
2019-05-23T03:50:38.029956Z,0.067393,0.056531,-1.244713
2019-05-23T03:50:38.270956Z,0.111469,1.432221,0.5530149999999999
2019-05-23T03:50:38.431956Z,0.900433,-0.49257700000000004,0.8475790000000001
2019-05-23T03:50:38.670956Z,0.146385,-0.43488699999999997,-0.8451190000000001
2019-05-23T03:50:38.831956Z,0.128368,0.327414,-0.053529999999999994
2019-05-23T03:50:39.073956Z,0.726909,0.12524000000000002,1.2717100000000001
2019-05-23T03:50:39.231956Z,-0.533478,-0.752827,-0.462193
2019-05-23T03:50:39.470956Z,-0.210294,0.092662,-0.592866
2019-05-23T03:50:39.665956Z,0.46418000000000004,0.43029700000000004,1.2374450000000001
2019-05-23T03:50:39.872956Z,1.293991,-0.520937,-0.374727
2019-05-23T03:50:40.032956Z,1.099266,-0.120991,-0.398893
2019-05-23T03:50:40.273956Z,0.8500989999999999,0.30754499999999996,0.953889
2019-05-23T03:50:40.432956Z,0.762337,-1.43824,0.9018010000000001
2019-05-23T03:50:40.673956Z,1.8431060000000001,-1.331282,0.526755
2019-05-23T03:50:40.844956Z,1.722077,-2.476114,1.6850459999999998
2019-05-23T03:50:41.073956Z,1.0825790000000002,-3.028037,1.8326240000000003
2019-05-23T03:50:41.233956Z,0.10391500000000001,-1.8300049999999999,1.0907959999999999
2019-05-23T03:50:41.475956Z,-0.058879999999999995,-1.3016290000000001,1.099077
2019-05-23T03:50:41.634956Z,-0.7610060000000001,-1.398827,1.221256
2019-05-23T03:50:41.875956Z,0.13803900000000002,-1.612773,0.11623399999999999
2019-05-23T03:50:42.034956Z,0.10937100000000001,-0.842783,0.164572
2019-05-23T03:50:42.333956Z,1.017973,-0.057309000000000006,1.027764
2019-05-23T03:50:42.433956Z,0.771133,-0.883135,0.144081
2019-05-23T03:50:42.698956Z,0.391283,-0.332225,-1.02501
2019-05-23T03:50:42.833956Z,0.21761,0.31622,0.259214
2019-05-23T03:50:43.074956Z,0.22348200000000001,-0.881948,1.841146
2019-05-23T03:50:43.234956Z,0.576396,-1.203725,-0.16075699999999998
2019-05-23T03:50:43.475956Z,0.208096,-0.140997,-0.8276979999999999
2019-05-23T03:50:43.634956Z,0.649938,0.264397,1.627899
2019-05-23T03:50:43.875956Z,1.839809,-1.420585,1.223024
2019-05-23T03:50:44.037956Z,1.664198,-1.59661,0.070889
2019-05-23T03:50:44.294956Z,1.931704,-0.358545,0.049022
2019-05-23T03:50:44.437956Z,1.720675,-0.132632,0.919365
2019-05-23T03:50:44.676956Z,0.298068,-1.4206219999999998,1.318913
2019-05-23T03:50:44.837956Z,-0.729747,-1.8582459999999998,0.094348
2019-05-23T03:50:45.078956Z,0.405802,-0.9939690000000001,0.434503
2019-05-23T03:50:45.235956Z,-0.313254,-0.233227,-0.045949000000000004
2019-05-23T03:50:45.502956Z,0.207506,-0.538988,0.459426
2019-05-23T03:50:45.637956Z,-0.043612,-0.523751,-0.257558
2019-05-23T03:50:45.878956Z,-0.089124,-0.21863200000000002,0.22429899999999997
2019-05-23T03:50:46.038956Z,-0.20761999999999997,0.168927,0.149516
2019-05-23T03:50:46.279956Z,-0.467305,-0.9159790000000001,0.8918780000000001
2019-05-23T03:50:46.438956Z,0.022296,-1.228908,0.100586
2019-05-23T03:50:46.691956Z,0.471145,-0.48568199999999995,-0.1466
2019-05-23T03:50:46.837956Z,-1.516385,0.381258,0.409112
2019-05-23T03:50:47.076956Z,-1.7213,-1.498492,0.449775
2019-05-23T03:50:47.239956Z,-0.702674,-1.442714,0.059838999999999996
2019-05-23T03:50:47.477956Z,0.202335,-0.356646,0.369289
2019-05-23T03:50:47.641956Z,0.8537399999999999,0.397484,0.486163
2019-05-23T03:50:47.880956Z,0.1368,-0.634599,0.817894
2019-05-23T03:50:48.040956Z,0.095733,-1.033814,-0.5611079999999999
2019-05-23T03:50:48.279956Z,1.0811620000000002,-0.263493,0.44412799999999997
2019-05-23T03:50:48.440956Z,-1.5091629999999998,-0.163139,0.375548
2019-05-23T03:50:48.678956Z,-1.447694,-2.039499,0.9026959999999999
2019-05-23T03:50:48.840956Z,-0.302701,-1.723473,0.11465399999999999
2019-05-23T03:50:49.078956Z,1.855673,-0.471211,1.053668
2019-05-23T03:50:49.242956Z,2.317282,0.013781999999999999,0.29557100000000003
2019-05-23T03:50:49.487956Z,0.698457,-0.907375,0.488447
2019-05-23T03:50:49.640956Z,0.7691020000000001,-0.589861,-0.59563
2019-05-23T03:50:49.880956Z,0.557887,0.421368,-0.048372000000000005
2019-05-23T03:50:50.040956Z,0.7884680000000001,0.576263,0.417533
2019-05-23T03:50:50.281956Z,1.566327,-0.589262,0.11070799999999999
2019-05-23T03:50:50.440956Z,1.060475,0.17999600000000002,-0.5252140000000001
2019-05-23T03:50:50.681956Z,0.7893819999999999,-0.22717800000000002,2.0346849999999996
2019-05-23T03:50:50.840956Z,0.6816180000000001,-1.0698860000000001,-0.310229
2019-05-23T03:50:51.082956Z,1.257857,-0.591338,-0.273008
2019-05-23T03:50:51.258956Z,1.27312,-0.315126,0.668333
2019-05-23T03:50:51.483956Z,2.876702,-0.611926,-0.011529000000000001
2019-05-23T03:50:51.642956Z,1.188991,0.11985,-0.533072
2019-05-23T03:50:51.882956Z,0.116494,0.102163,1.920796
2019-05-23T03:50:52.043956Z,0.176897,-0.9117569999999999,0.185979
2019-05-23T03:50:52.280956Z,0.267642,-1.4592530000000001,-0.239749
2019-05-23T03:50:52.445956Z,0.791117,-0.205761,-0.09849
2019-05-23T03:50:52.684956Z,0.11024,-0.426389,1.2011450000000001
2019-05-23T03:50:52.843956Z,1.8681560000000001,-2.209299,0.708849
2019-05-23T03:50:53.083956Z,0.8527540000000001,-1.720591,-3.1e-05
2019-05-23T03:50:53.244956Z,0.279912,-0.769849,0.44697700000000007
2019-05-23T03:50:53.490956Z,-0.39405300000000004,-0.102422,0.794625
2019-05-23T03:50:53.644956Z,-1.30427,-1.1220350000000001,0.28380900000000003
2019-05-23T03:50:53.884956Z,-1.808301,-2.001208,-0.357306
2019-05-23T03:50:54.043956Z,-0.665427,-1.0158479999999999,0.368273
2019-05-23T03:50:54.285956Z,-0.872778,-0.901659,0.445507
2019-05-23T03:50:54.445956Z,0.31158800000000003,1.244034,-0.7801
2019-05-23T03:50:54.683956Z,0.43151300000000004,0.216542,1.288106
2019-05-23T03:50:54.846956Z,0.6447430000000001,-1.127249,-0.121378
2019-05-23T03:50:55.087956Z,0.484811,-0.371342,-0.404751
2019-05-23T03:50:55.244956Z,-0.38434,0.067768,0.041018
2019-05-23T03:50:55.484956Z,0.22165500000000002,-0.151013,0.9743649999999999
2019-05-23T03:50:55.644956Z,-0.062197,-1.2274120000000002,0.086614
2019-05-23T03:50:55.888956Z,0.745685,-0.659934,-0.178571
2019-05-23T03:50:56.047956Z,0.43575600000000003,0.032911,0.15701800000000002
2019-05-23T03:50:56.286956Z,-0.276938,0.403484,-0.15403499999999998
2019-05-23T03:50:56.445956Z,-0.671441,1.001271,-0.674403
2019-05-23T03:50:56.714956Z,-0.10972799999999999,0.061523,0.9968309999999999
2019-05-23T03:50:56.847956Z,0.610101,-0.635824,-0.41575100000000004
2019-05-23T03:50:57.086956Z,-0.019282,-0.048754,-0.107135
2019-05-23T03:50:57.247956Z,0.33089,-0.08684800000000001,0.038356
2019-05-23T03:50:57.489956Z,0.422079,0.248823,0.232454
2019-05-23T03:50:57.650956Z,1.210716,-1.259651,0.883684
2019-05-23T03:50:57.886956Z,1.632698,-0.910524,-0.016266
2019-05-23T03:50:58.046956Z,0.626346,-1.1156709999999999,0.172333
2019-05-23T03:50:58.286956Z,0.294951,-0.519257,0.17515899999999998
2019-05-23T03:50:58.448956Z,-1.3107659999999999,-0.494536,-0.044362
2019-05-23T03:50:58.689956Z,-0.8387629999999999,-0.151833,1.130897
2019-05-23T03:50:58.847956Z,-0.24938200000000002,-1.293871,0.542838
2019-05-23T03:50:59.087956Z,-0.470859,-0.883233,-0.711256
2019-05-23T03:50:59.247956Z,0.542467,0.44058100000000006,-0.709901
2019-05-23T03:50:59.489956Z,0.47143599999999997,-1.308323,2.1333990000000003
2019-05-23T03:50:59.651956Z,0.119906,-2.158718,-0.081049
2019-05-23T03:50:59.888956Z,-0.305713,-0.21687399999999998,-0.541883
2019-05-23T03:51:00.050956Z,-0.383662,0.671168,0.73768
2019-05-23T03:51:00.290956Z,0.6966600000000001,-0.71399,0.05322
2019-05-23T03:51:00.489956Z,0.359046,-0.284975,-0.7088260000000001
2019-05-23T03:51:00.690956Z,0.249678,0.168331,0.325479
2019-05-23T03:51:00.862956Z,-0.328571,-0.502884,0.8960889999999999
2019-05-23T03:51:01.090956Z,-0.49809200000000003,-1.10348,-0.109554
2019-05-23T03:51:01.250956Z,-0.047445999999999995,-0.170561,-0.47540299999999996
2019-05-23T03:51:01.452956Z,-0.173591,0.543719,0.226489
2019-05-23T03:51:01.689956Z,0.300769,-0.804454,1.019092
2019-05-23T03:51:01.853956Z,0.469308,-1.225393,-0.22724
2019-05-23T03:51:02.091956Z,-0.175861,0.108029,-0.172066
2019-05-23T03:51:02.253956Z,0.13783299999999998,0.428986,0.542136
2019-05-23T03:51:02.492956Z,0.395882,-0.9701709999999999,0.427568
2019-05-23T03:51:02.652956Z,0.087732,-0.388693,-0.747428
2019-05-23T03:51:02.891956Z,-0.400966,0.23329499999999997,0.17337
2019-05-23T03:51:03.051956Z,0.153624,0.016725999999999998,0.861135
2019-05-23T03:51:03.293956Z,0.183341,-1.2674590000000001,-0.249525
2019-05-23T03:51:03.452956Z,-0.050164,-0.240666,-0.14212
2019-05-23T03:51:03.692956Z,0.10323900000000001,0.367684,0.6851430000000001
2019-05-23T03:51:03.853956Z,-0.222273,-0.562732,0.270841
2019-05-23T03:51:04.092956Z,0.5676359999999999,-0.590277,-0.735404
2019-05-23T03:51:04.253956Z,-0.06565499999999999,0.204443,0.106128
2019-05-23T03:51:04.495956Z,-0.199956,0.496047,0.7502479999999999
2019-05-23T03:51:04.654956Z,0.340923,-1.010732,-0.158219
2019-05-23T03:51:04.892956Z,0.442456,0.12748800000000002,-0.64357
2019-05-23T03:51:05.052956Z,-0.257416,0.00373,0.7020649999999999
2019-05-23T03:51:05.294956Z,-0.082215,-1.4429040000000002,1.458038
2019-05-23T03:51:05.502956Z,-0.679373,-0.517939,-1.055657
2019-05-23T03:51:05.696956Z,0.29945,-0.094445,0.0020870000000000003
2019-05-23T03:51:05.857956Z,0.610726,1.0189620000000001,0.041866
2019-05-23T03:51:06.093956Z,1.4256010000000001,-1.028511,1.109158
2019-05-23T03:51:06.253956Z,1.186485,-0.8015720000000001,-0.478154
2019-05-23T03:51:06.493956Z,1.110937,-0.760029,0.457859
2019-05-23T03:51:06.653956Z,0.37340300000000004,-0.8015720000000001,0.30933499999999997
2019-05-23T03:51:06.896956Z,0.25543699999999997,-0.320115,0.016687999999999998
2019-05-23T03:51:07.053956Z,0.24135,-0.188875,0.216317
2019-05-23T03:51:07.315956Z,-0.223498,-0.029254000000000002,0.793912
2019-05-23T03:51:07.456956Z,0.199888,-0.753718,0.088616
2019-05-23T03:51:07.695956Z,0.34125700000000003,-1.118187,-0.516574
2019-05-23T03:51:07.855956Z,-0.9893219999999999,0.065169,0.218696
2019-05-23T03:51:08.096956Z,-0.23683,-0.357047,0.875359
2019-05-23T03:51:08.281956Z,-0.173518,-1.390487,0.381474
2019-05-23T03:51:08.496956Z,-0.32156599999999996,-0.702416,-0.504837
2019-05-23T03:51:08.656956Z,-0.51293,-0.197284,0.597982
2019-05-23T03:51:08.898956Z,0.793024,-1.455654,1.1506020000000001
2019-05-23T03:51:09.057956Z,0.019180000000000003,-0.6196470000000001,-0.842816
2019-05-23T03:51:09.297956Z,-0.590969,-0.32669499999999996,0.6652779999999999
2019-05-23T03:51:09.458956Z,-0.392744,-0.657852,0.958584
2019-05-23T03:51:09.695956Z,0.085914,-1.36131,-0.332622
2019-05-23T03:51:09.855956Z,-0.83285,0.057811,-0.12459100000000001
2019-05-23T03:51:10.097956Z,0.9584739999999999,-0.382948,1.326814
2019-05-23T03:51:10.260956Z,0.838098,-1.15234,-0.29765199999999997
2019-05-23T03:51:10.498956Z,0.34186500000000003,-0.06742000000000001,-1.02141
2019-05-23T03:51:10.659956Z,-0.492422,-0.082786,0.628831
2019-05-23T03:51:10.899956Z,-1.295153,-1.3531469999999999,0.9746739999999999
2019-05-23T03:51:11.059956Z,-0.345355,-0.595474,-0.406384
2019-05-23T03:51:11.301956Z,-0.5699029999999999,0.283501,0.564472
2019-05-23T03:51:11.460956Z,-0.446748,-0.577375,1.140707
2019-05-23T03:51:11.699956Z,0.9534,-0.960543,-0.672287
2019-05-23T03:51:11.861956Z,-0.09174500000000001,-0.000332,-0.378956
2019-05-23T03:51:12.103956Z,1.519508,-0.26550799999999997,0.997174
2019-05-23T03:51:12.260956Z,0.714382,-0.538459,0.26056799999999997
2019-05-23T03:51:12.500956Z,0.911386,-0.35547,-0.22206599999999999
2019-05-23T03:51:12.659956Z,0.598707,-0.307003,0.523422
2019-05-23T03:51:12.898956Z,1.780614,-1.609665,0.617888
2019-05-23T03:51:13.061956Z,0.9312299999999999,-1.6869869999999998,0.5149520000000001
2019-05-23T03:51:13.302956Z,-0.22060700000000003,-1.0239200000000002,0.7807810000000001
2019-05-23T03:51:13.462956Z,-0.340683,-0.555294,0.821672
2019-05-23T03:51:13.702956Z,-1.328622,-0.725685,-0.045433999999999995
2019-05-23T03:51:13.860956Z,-0.5176810000000001,-0.6565489999999999,-0.199693
2019-05-23T03:51:14.101956Z,-0.141498,-0.203,0.508788
2019-05-23T03:51:14.259956Z,0.053484000000000004,-0.690739,0.753532
2019-05-23T03:51:14.499956Z,-0.09316,-1.3726450000000001,0.309781
2019-05-23T03:51:14.659956Z,0.23193899999999998,-0.375687,-0.297295
2019-05-23T03:51:14.930956Z,-0.324922,-0.043406,0.806624
2019-05-23T03:51:15.060956Z,0.24197800000000003,-1.43344,0.491213
2019-05-23T03:51:15.300956Z,0.119644,-0.599137,-0.41955
2019-05-23T03:51:15.465956Z,0.580654,-0.277536,1.15628
2019-05-23T03:51:15.709956Z,1.253825,-0.98354,0.360034
2019-05-23T03:51:15.866956Z,0.386046,-0.6691520000000001,-0.707942
2019-05-23T03:51:16.103956Z,-0.3561,-0.141513,0.743632
2019-05-23T03:51:16.262956Z,0.089042,-0.9230799999999999,0.81581
2019-05-23T03:51:16.503956Z,0.41233000000000003,-0.868836,-0.26108600000000004
2019-05-23T03:51:16.663956Z,0.7983319999999999,-0.885437,0.877584
2019-05-23T03:51:16.936956Z,1.215768,-0.41315799999999997,0.785483
2019-05-23T03:51:17.063956Z,1.611679,-0.9620780000000001,0.370942
2019-05-23T03:51:17.304956Z,1.3641290000000001,-0.639209,-0.478941
2019-05-23T03:51:17.464956Z,0.388049,-0.14418399999999998,0.813028
2019-05-23T03:51:17.707956Z,0.40213000000000004,-0.17832,0.833148
2019-05-23T03:51:17.864956Z,0.158799,-1.7504540000000002,0.335866
2019-05-23T03:51:18.108956Z,0.804212,-1.060514,-0.238708
2019-05-23T03:51:18.265956Z,1.137324,-0.5784239999999999,1.139254
2019-05-23T03:51:18.504956Z,2.192223,-1.4445860000000001,0.626365
2019-05-23T03:51:18.665956Z,1.861937,-1.902193,0.23944899999999997
2019-05-23T03:51:18.904956Z,0.658008,-1.076957,1.062363
2019-05-23T03:51:19.064956Z,-1.183534,-0.883973,1.297895
2019-05-23T03:51:19.308956Z,0.587399,-1.228507,-0.298773
2019-05-23T03:51:19.468956Z,1.182382,-0.27784200000000003,-1.245831
2019-05-23T03:51:19.705956Z,-0.264047,0.028551,0.658216
2019-05-23T03:51:19.868956Z,0.434429,-0.355429,0.809913
2019-05-23T03:51:20.107956Z,0.8226100000000001,-1.467958,0.43539399999999995
2019-05-23T03:51:20.267956Z,-0.173101,-0.394854,-0.359604
2019-05-23T03:51:20.507956Z,-0.049033,0.083009,0.636464
2019-05-23T03:51:20.667956Z,-0.281364,-0.9762200000000001,0.984459
2019-05-23T03:51:20.909956Z,0.920899,-1.097198,-0.671028
2019-05-23T03:51:21.066956Z,0.641814,-0.14804900000000001,0.675866
2019-05-23T03:51:21.310956Z,1.084802,-1.206921,1.56817
2019-05-23T03:51:21.469956Z,0.7968609999999999,-0.862734,-0.900316
2019-05-23T03:51:21.707956Z,0.26000100000000004,-0.41148599999999996,-0.274546
2019-05-23T03:51:21.867956Z,-0.628895,0.549307,-0.037342
2019-05-23T03:51:22.109956Z,-2.635585,-0.605158,0.930581
2019-05-23T03:51:22.269956Z,-1.586732,-2.467791,0.747798
2019-05-23T03:51:22.508956Z,0.013713,-1.7960169999999998,0.721171
2019-05-23T03:51:22.667956Z,1.9558959999999999,0.13761700000000002,0.653876
2019-05-23T03:51:22.910956Z,0.820693,-0.9579559999999999,0.7544890000000001
2019-05-23T03:51:23.073956Z,0.638163,-0.643582,-1.091249
2019-05-23T03:51:23.310956Z,1.106251,0.8235459999999999,0.066163
2019-05-23T03:51:23.468956Z,0.18875,0.802761,0.510309
2019-05-23T03:51:23.708956Z,0.860771,-1.144131,0.442255
2019-05-23T03:51:23.868956Z,0.9789110000000001,-0.294392,-1.082157
2019-05-23T03:51:24.115956Z,-1.023706,0.62962,-0.09031
2019-05-23T03:51:24.271956Z,-0.262734,-0.838031,1.889725
2019-05-23T03:51:24.528956Z,-1.571749,-2.4945009999999996,0.45676700000000003
2019-05-23T03:51:24.671956Z,-0.653565,-1.9793,0.552817
2019-05-23T03:51:24.909956Z,1.543922,-0.671716,0.267812
2019-05-23T03:51:25.073956Z,0.9047709999999999,0.09739199999999999,0.591701
2019-05-23T03:51:25.310956Z,1.095667,-1.190123,0.712381
2019-05-23T03:51:25.477956Z,1.3615030000000001,-0.45139700000000005,-0.587653
2019-05-23T03:51:25.712956Z,0.8850549999999999,0.296166,0.776997
2019-05-23T03:51:25.872956Z,2.0156389999999997,-0.192328,0.094981
2019-05-23T03:51:26.110956Z,1.644167,-0.919258,-0.280674
2019-05-23T03:51:26.271956Z,0.839448,0.32511,0.087176
2019-05-23T03:51:26.512956Z,0.347306,-0.376029,0.789609
