Datetime,accx,accy,accz
2019-03-22T12:33:45.199817Z,0.0,0.0,0.0
2019-03-22T12:33:45.588817Z,-1.387515,-0.503039,-0.426399
2019-03-22T12:33:45.791817Z,-1.531799,-0.915227,0.857345
2019-03-22T12:33:45.993817Z,-2.569048,-0.110392,-0.280264
2019-03-22T12:33:46.195817Z,-3.1610669999999996,-1.0809540000000002,0.275846
2019-03-22T12:33:46.428817Z,-3.9397699999999998,-1.3802379999999999,0.6079869999999999
2019-03-22T12:33:46.631817Z,-3.085616,-1.41259,3.127005
2019-03-22T12:33:46.832817Z,-1.455749,-1.575121,2.2949740000000003
2019-03-22T12:33:47.035817Z,-2.813876,-1.396842,2.729317
2019-03-22T12:33:47.238817Z,-2.542077,-1.3405639999999999,1.559072
2019-03-22T12:33:47.439817Z,-2.1053040000000003,-0.6224029999999999,0.799672
2019-03-22T12:33:47.642817Z,-2.379225,-0.778487,0.423314
2019-03-22T12:33:47.844817Z,-1.360662,-0.37661500000000003,1.044051
2019-03-22T12:33:48.046817Z,-1.6206559999999999,-0.434313,1.14306
2019-03-22T12:33:48.249817Z,-1.827523,-0.324676,1.593715
2019-03-22T12:33:48.451817Z,-1.163921,-0.46677399999999997,1.7410900000000002
2019-03-22T12:33:48.670817Z,-1.4968620000000001,-0.688416,0.707044
2019-03-22T12:33:48.855817Z,-1.573947,-0.5782430000000001,0.20244
2019-03-22T12:33:49.057817Z,-0.6699,0.165097,0.299294
2019-03-22T12:33:49.259817Z,-0.725438,-0.40152600000000005,0.720025
2019-03-22T12:33:49.462817Z,-0.94242,-0.489004,0.180101
2019-03-22T12:33:49.665817Z,-0.62511,-0.29731399999999997,0.463057
2019-03-22T12:33:49.866817Z,-0.974126,-0.213549,-0.241391
2019-03-22T12:33:50.069817Z,-0.392412,-0.57798,0.013045
2019-03-22T12:33:50.272817Z,-0.587414,-0.615835,0.9840700000000001
2019-03-22T12:33:50.654817Z,-0.7879430000000001,0.028682,0.621162
2019-03-22T12:33:50.856817Z,0.0,0.0,0.0
2019-03-22T12:33:51.059817Z,-0.013831,0.098205,-0.055103
2019-03-22T12:33:51.261817Z,-0.144337,-0.063916,-0.074016
2019-03-22T12:33:51.464817Z,-0.05902,0.016954,-0.093196
2019-03-22T12:33:51.666817Z,0.159527,-0.11876800000000001,0.18928699999999998
2019-03-22T12:33:51.868817Z,0.877209,0.162934,0.151974
2019-03-22T12:33:52.070817Z,1.1030520000000001,1.142535,-0.722889
2019-03-22T12:33:52.273817Z,1.0493139999999999,1.242608,-0.15232300000000001
2019-03-22T12:33:52.490817Z,0.942148,1.050218,-0.316531
2019-03-22T12:33:52.688817Z,0.614754,1.546576,-0.846076
2019-03-22T12:33:52.879817Z,0.48293,1.6152879999999998,-0.602881
2019-03-22T12:33:53.081817Z,0.169525,1.9264880000000002,-0.50712
2019-03-22T12:33:53.283817Z,0.378015,1.148536,-0.11733199999999999
2019-03-22T12:33:53.496817Z,0.450093,-0.264751,0.313839
2019-03-22T12:33:53.688817Z,0.336522,-0.55282,0.140928
2019-03-22T12:33:54.173817Z,0.0,0.0,0.0
2019-03-22T12:33:54.375817Z,0.257594,-0.041268,-0.079934
2019-03-22T12:33:54.577817Z,0.390717,0.18800799999999998,-0.152806
2019-03-22T12:33:54.779817Z,0.34784899999999996,-0.014525,-0.084878
2019-03-22T12:33:54.981817Z,0.209677,0.031485,-0.006220000000000001
2019-03-22T12:33:55.183817Z,0.380351,-0.33679499999999996,0.20793299999999998
2019-03-22T12:33:55.388817Z,-0.205273,-0.063706,0.47233100000000006
2019-03-22T12:33:55.588817Z,-0.006846,-0.23363899999999999,-0.21186
2019-03-22T12:33:55.791817Z,-0.22474,-0.289742,0.173233
2019-03-22T12:33:55.993817Z,-0.131021,-0.27161599999999997,-0.22680999999999998
2019-03-22T12:33:56.195817Z,-0.044295999999999995,-0.176337,-0.063225
2019-03-22T12:33:56.397817Z,-0.013653,-0.080835,-0.114462
2019-03-22T12:33:56.600817Z,1.204251,1.064929,-1.597521
2019-03-22T12:33:56.802817Z,1.0366360000000001,0.22207600000000002,0.316311
2019-03-22T12:33:57.004817Z,2.211432,1.5219610000000001,0.712482
2019-03-22T12:33:57.206817Z,1.926748,2.189398,0.12278499999999999
2019-03-22T12:33:57.408817Z,2.831713,1.524094,-1.1393309999999999
2019-03-22T12:33:57.610817Z,2.182339,3.116838,-0.827425
2019-03-22T12:33:57.813817Z,2.3123709999999997,4.425427,0.385359
2019-03-22T12:33:58.014817Z,0.8571219999999999,2.5897900000000003,-0.6166229999999999
2019-03-22T12:33:58.216817Z,0.54379,2.325655,0.13933800000000002
2019-03-22T12:33:58.419817Z,1.18036,3.87837,-0.9019809999999999
2019-03-22T12:33:58.621817Z,-0.14691600000000002,3.8460059999999996,-0.7008939999999999
2019-03-22T12:33:58.823817Z,-0.503653,2.147253,-0.325644
2019-03-22T12:33:59.207817Z,0.482926,3.018581,0.337879
2019-03-22T12:33:59.408817Z,0.396549,3.29409,-0.202119
2019-03-22T12:33:59.610817Z,0.371373,3.043448,0.11208299999999999
2019-03-22T12:33:59.812817Z,1.081828,2.6983509999999997,0.135516
2019-03-22T12:34:00.014817Z,0.23645,2.688169,-0.024802
2019-03-22T12:34:00.216817Z,0.311182,2.977655,-0.034842000000000005
2019-03-22T12:34:00.418817Z,-0.725648,3.46245,0.775084
2019-03-22T12:34:00.621817Z,-2.173848,2.267623,0.45569399999999993
2019-03-22T12:34:00.823817Z,-1.68232,3.083877,-0.48976800000000004
2019-03-22T12:34:01.025817Z,-0.83762,3.8360519999999996,0.132555
2019-03-22T12:34:01.227817Z,-1.005617,3.2355490000000002,0.835967
2019-03-22T12:34:01.430817Z,-1.002375,1.262402,0.23745700000000003
2019-03-22T12:34:01.632817Z,-0.11346600000000001,2.321316,-0.550124
2019-03-22T12:34:01.834817Z,0.33161599999999997,2.5109209999999997,-0.007679999999999999
2019-03-22T12:34:02.036817Z,-0.47505299999999995,1.814282,1.0087979999999999
2019-03-22T12:34:02.238817Z,-0.9274209999999999,1.22495,-0.46678500000000006
2019-03-22T12:34:02.688817Z,-0.019673,2.135066,1.3191389999999998
2019-03-22T12:34:02.891817Z,-0.516783,0.915967,-0.18315
2019-03-22T12:34:03.093817Z,0.062947,1.10697,-0.40871199999999996
2019-03-22T12:34:03.295817Z,0.031077999999999998,1.958991,-0.301611
2019-03-22T12:34:03.497817Z,-0.10787000000000001,1.673052,1.0915270000000001
2019-03-22T12:34:03.700817Z,-0.8500709999999999,1.9577069999999999,0.538509
2019-03-22T12:34:03.902817Z,-0.40222800000000003,2.1632990000000003,-0.19786600000000001
2019-03-22T12:34:04.104817Z,-0.510603,1.565598,0.010235
2019-03-22T12:34:04.307817Z,0.069485,1.382783,-0.21306999999999998
2019-03-22T12:34:04.508817Z,-0.106152,1.094956,-0.098811
2019-03-22T12:34:04.710817Z,-0.835016,1.172377,-0.32438
2019-03-22T12:34:04.912817Z,-0.9353,1.386487,0.073991
2019-03-22T12:34:05.114817Z,-0.599167,0.587477,-0.15507200000000002
2019-03-22T12:34:05.316817Z,-0.155315,1.013585,-0.32304499999999997
2019-03-22T12:34:05.518817Z,1.480366,-0.22898400000000002,0.865633
2019-03-22T12:34:05.720817Z,2.110153,-0.509304,0.11890999999999999
2019-03-22T12:34:05.922817Z,2.021456,0.159191,-0.273897
2019-03-22T12:34:06.125817Z,1.135542,1.695386,0.75849
2019-03-22T12:34:06.327817Z,-0.930184,-1.2327059999999999,0.08991
2019-03-22T12:34:06.529817Z,0.890757,-0.49818599999999996,0.941277
2019-03-22T12:34:06.731817Z,0.373447,0.685533,0.327705
2019-03-22T12:34:06.933817Z,-0.017480000000000002,0.869189,-0.086023
2019-03-22T12:34:07.135817Z,0.546154,0.276986,-0.26510100000000003
2019-03-22T12:34:07.338817Z,0.768029,0.341023,-0.22241599999999997
2019-03-22T12:34:07.539817Z,0.408779,0.399383,-0.097978
2019-03-22T12:34:07.742817Z,0.30424,0.476217,0.07733200000000001
2019-03-22T12:34:07.944817Z,0.08678999999999999,0.503602,-0.25969899999999996
2019-03-22T12:34:08.146817Z,0.081607,0.425033,-0.239923
2019-03-22T12:34:08.348817Z,0.344065,0.18951099999999999,-0.09285800000000001
2019-03-22T12:34:08.550817Z,0.822634,0.295065,-0.007045
2019-03-22T12:34:08.753817Z,0.6272479999999999,0.48205699999999996,-0.083079
2019-03-22T12:34:08.954817Z,0.128529,0.45387799999999995,-0.083341
2019-03-22T12:34:09.156817Z,0.217521,-0.36135,-0.672133
2019-03-22T12:34:09.359817Z,-0.080742,0.485259,-1.098155
2019-03-22T12:34:09.561817Z,0.785529,0.9386479999999999,-0.336581
2019-03-22T12:34:09.763817Z,0.967095,1.537943,0.022436
2019-03-22T12:34:09.965817Z,0.369614,-0.8320110000000001,-0.554659
2019-03-22T12:34:10.167817Z,0.45707,-0.24728499999999998,0.11179000000000001
2019-03-22T12:34:10.369817Z,0.8937879999999999,0.045799,-0.042963999999999995
2019-03-22T12:34:10.571817Z,1.2782360000000001,1.3399379999999999,0.054154999999999995
2019-03-22T12:34:10.773817Z,0.8213389999999999,0.34974,-0.055840999999999995
2019-03-22T12:34:10.975817Z,0.66669,0.9852879999999999,0.027543
2019-03-22T12:34:11.178817Z,0.993389,1.0532780000000002,-0.261312
2019-03-22T12:34:11.380817Z,1.1659030000000001,1.013004,0.13433699999999998
2019-03-22T12:34:11.582817Z,0.9158729999999999,0.67914,-0.027444
2019-03-22T12:34:11.784817Z,0.5011369999999999,0.492514,0.050901
2019-03-22T12:34:11.986817Z,0.251515,0.44823199999999996,-0.07853099999999999
2019-03-22T12:34:12.188817Z,0.098732,0.230677,-0.081478
2019-03-22T12:34:12.412817Z,0.060345,0.394675,0.007601
2019-03-22T12:34:12.592817Z,0.13303800000000002,0.186074,-0.178365
2019-03-22T12:34:12.794817Z,0.168658,0.27524699999999996,-0.137282
2019-03-22T12:34:12.996817Z,0.174038,0.581462,-0.191658
2019-03-22T12:34:13.198817Z,0.5457930000000001,0.6156229999999999,-0.11576700000000001
2019-03-22T12:34:13.400817Z,0.34986300000000004,1.150682,0.197756
2019-03-22T12:34:13.602817Z,-0.345148,-0.31394099999999997,-0.12035599999999999
2019-03-22T12:34:13.804817Z,-0.055274000000000004,-0.16379000000000002,-0.855951
2019-03-22T12:34:14.006817Z,0.523085,0.9406329999999999,0.091322
2019-03-22T12:34:14.209817Z,-0.26073,0.771942,0.6352
2019-03-22T12:34:14.411817Z,-0.31717399999999996,-1.148723,-0.5816
2019-03-22T12:34:14.614817Z,-0.50083,-0.105478,0.012921
2019-03-22T12:34:14.815817Z,-0.48493,0.108127,0.100641
2019-03-22T12:34:15.017817Z,-0.260921,0.247933,-0.24844499999999997
2019-03-22T12:34:15.219817Z,-0.83196,-0.152586,0.275823
2019-03-22T12:34:15.421817Z,-0.147202,-0.9061899999999999,0.299104
2019-03-22T12:34:15.623817Z,-0.171013,-0.5541050000000001,0.102513
2019-03-22T12:34:15.825817Z,-0.643122,-0.251756,-0.05754
2019-03-22T12:34:16.027817Z,-0.32821,-0.119439,0.004625
2019-03-22T12:34:16.229817Z,-0.324442,-0.014663999999999998,0.001923
2019-03-22T12:34:16.431817Z,-0.255859,-0.024457,0.184111
2019-03-22T12:34:16.634817Z,-0.05619400000000001,-0.001531,0.096999
2019-03-22T12:34:16.835817Z,-0.192207,-0.142611,0.049604
2019-03-22T12:34:17.038817Z,-0.15398,-0.067506,-0.014436000000000001
2019-03-22T12:34:17.240817Z,-0.20690100000000003,0.157952,0.006426
2019-03-22T12:34:17.442817Z,-0.17751,-0.061810000000000004,-0.089523
2019-03-22T12:34:17.644817Z,-2.1e-05,-0.200951,0.19903900000000002
2019-03-22T12:34:17.846817Z,0.689948,0.192379,-0.067036
2019-03-22T12:34:18.048817Z,0.439929,0.49084099999999997,0.307899
2019-03-22T12:34:18.250817Z,0.315196,0.9043700000000001,0.73623
2019-03-22T12:34:18.452817Z,-1.250192,-0.822169,-0.387333
2019-03-22T12:34:18.654817Z,-0.633776,-0.393877,0.335776
2019-03-22T12:34:18.856817Z,-0.429291,0.039664,0.343381
2019-03-22T12:34:19.058817Z,-0.494626,-0.433892,0.571858
2019-03-22T12:34:19.261817Z,-1.7430709999999998,-0.948147,0.367537
2019-03-22T12:34:19.462817Z,-2.204271,-0.0072310000000000004,0.355207
2019-03-22T12:34:19.687817Z,-2.877416,0.065956,0.299396
2019-03-22T12:34:19.880817Z,-2.592747,0.087786,1.256764
2019-03-22T12:34:20.068817Z,-3.44158,0.773683,0.362095
2019-03-22T12:34:20.283817Z,-2.504604,0.44648699999999997,1.025642
2019-03-22T12:34:20.473817Z,-3.7767510000000004,-0.38465,1.280299
2019-03-22T12:34:20.675817Z,-3.611078,-1.100301,0.883308
2019-03-22T12:34:20.877817Z,-3.402307,-1.0992870000000001,1.280014
2019-03-22T12:34:21.080817Z,-3.7876199999999995,-0.309877,0.9464739999999999
2019-03-22T12:34:21.281817Z,-2.629053,-0.0474,0.44711899999999993
2019-03-22T12:34:21.483817Z,-1.8069520000000001,0.11689200000000001,0.9657120000000001
2019-03-22T12:34:21.685817Z,-2.2408639999999997,-0.231057,-0.793355
2019-03-22T12:34:21.887817Z,-3.6826269999999997,-0.527044,0.23314400000000002
2019-03-22T12:34:22.089817Z,-3.9268410000000005,-1.416483,0.8353520000000001
2019-03-22T12:34:22.291817Z,-2.984384,-1.298355,1.70092
2019-03-22T12:34:22.493817Z,-2.818808,-1.190269,2.780506
2019-03-22T12:34:22.695817Z,-2.8217790000000003,-3.275794,1.929079
2019-03-22T12:34:22.897817Z,-1.710961,-3.302888,1.744041
2019-03-22T12:34:23.099817Z,-0.626607,-2.23136,0.7985909999999999
2019-03-22T12:34:23.302817Z,-1.6726349999999999,-1.730705,2.2846330000000004
2019-03-22T12:34:23.503817Z,-1.27529,-2.11519,2.374832
2019-03-22T12:34:23.705817Z,-1.591516,-2.872566,1.973342
2019-03-22T12:34:23.907817Z,-1.460208,-1.513987,1.6738540000000002
2019-03-22T12:34:24.110817Z,-1.861273,-1.604718,0.599978
2019-03-22T12:34:24.312817Z,-1.3469010000000001,-0.6042350000000001,0.077402
2019-03-22T12:34:24.513817Z,-1.151017,-0.397748,2.424925
2019-03-22T12:34:24.716817Z,-1.5817139999999998,-0.532656,0.600554
2019-03-22T12:34:24.918817Z,-1.500934,-0.524629,0.46099700000000005
2019-03-22T12:34:25.120817Z,-1.656464,0.063398,0.298737
2019-03-22T12:34:25.322817Z,-1.3039690000000002,0.34973699999999996,-0.001385
2019-03-22T12:34:25.524817Z,-0.9591270000000001,0.22745500000000002,0.54848
2019-03-22T12:34:25.726817Z,-0.769595,0.633656,0.8434879999999999
2019-03-22T12:34:25.928817Z,-0.598308,-1.085272,-0.43179300000000004
2019-03-22T12:34:26.131817Z,-1.176137,0.024674,-0.127305
2019-03-22T12:34:26.332817Z,-1.150101,0.554397,0.292149
2019-03-22T12:34:26.534817Z,-0.841556,0.759286,0.582688
2019-03-22T12:34:26.736817Z,-0.7451770000000001,0.779417,0.002242
2019-03-22T12:34:26.938817Z,-1.531012,1.020977,-0.184669
2019-03-22T12:34:27.141817Z,-1.121591,1.751675,-0.542429
2019-03-22T12:34:27.342817Z,-0.6060810000000001,1.979264,-0.2196
2019-03-22T12:34:27.544817Z,-0.5995729999999999,1.551334,0.017709
2019-03-22T12:34:27.746817Z,0.757678,2.307267,-1.210083
2019-03-22T12:34:27.949817Z,0.698872,1.824352,-0.207048
2019-03-22T12:34:28.151817Z,0.683322,1.777836,-0.24858400000000003
2019-03-22T12:34:28.353817Z,0.381884,2.255945,0.058303999999999995
2019-03-22T12:34:28.554817Z,0.47187299999999993,2.3619060000000003,0.45425
2019-03-22T12:34:28.757817Z,0.084244,2.109638,-0.600386
2019-03-22T12:34:28.959817Z,0.468516,0.347767,0.805341
2019-03-22T12:34:29.161817Z,0.068466,0.9291799999999999,-0.8392360000000001
2019-03-22T12:34:29.363817Z,-0.508598,1.2713079999999999,-0.11293299999999999
2019-03-22T12:34:29.565817Z,-0.589641,1.668241,1.178675
2019-03-22T12:34:29.767817Z,-1.078886,0.13597599999999999,-1.1160729999999999
2019-03-22T12:34:29.969817Z,-1.9102860000000002,0.551656,0.484893
2019-03-22T12:34:30.171817Z,-1.130909,0.652493,0.943702
2019-03-22T12:34:30.373817Z,-1.11639,1.03041,-0.419608
2019-03-22T12:34:30.575817Z,-1.480124,1.194703,-0.153704
2019-03-22T12:34:30.777817Z,-1.21079,1.03485,0.181285
2019-03-22T12:34:30.979817Z,-1.295631,0.76991,0.015586000000000001
2019-03-22T12:34:31.181817Z,-0.682609,0.407317,0.449489
2019-03-22T12:34:31.383817Z,-0.24249099999999998,1.037614,-1.3690579999999999
2019-03-22T12:34:31.585817Z,0.097945,1.3899110000000001,-0.574186
2019-03-22T12:34:31.787817Z,-0.595225,1.229241,-0.348896
2019-03-22T12:34:31.989817Z,-0.293837,1.2105780000000002,0.363196
2019-03-22T12:34:32.191817Z,-0.529065,1.426703,0.041708999999999996
2019-03-22T12:34:32.393817Z,-1.226061,0.489353,0.8829309999999999
2019-03-22T12:34:32.595817Z,-0.587536,0.9237879999999999,-0.5525869999999999
2019-03-22T12:34:32.797817Z,-0.979886,0.9159809999999999,-0.460938
2019-03-22T12:34:32.999817Z,-1.427027,1.382368,0.649999
2019-03-22T12:34:33.202817Z,-0.8310549999999999,0.119595,-0.123821
2019-03-22T12:34:33.403817Z,-1.231541,-0.961227,0.22082800000000002
2019-03-22T12:34:33.605817Z,-1.533841,0.77227,-0.491892
2019-03-22T12:34:33.807817Z,-1.240124,0.249669,0.209411
2019-03-22T12:34:34.009817Z,-0.5488149999999999,-1.235868,-0.14646099999999998
2019-03-22T12:34:34.211817Z,-1.562394,-1.089258,0.634363
2019-03-22T12:34:34.413817Z,-2.335465,-0.7848569999999999,1.279965
2019-03-22T12:34:34.615817Z,-1.7485130000000002,-0.779057,0.088936
2019-03-22T12:34:34.837817Z,-2.067791,-0.20458099999999999,-1.510434
2019-03-22T12:34:35.020817Z,-2.098557,0.166967,-0.307411
2019-03-22T12:34:35.222817Z,-2.357412,0.186514,0.179143
2019-03-22T12:34:35.424817Z,-1.9331450000000001,-0.192212,-0.580074
2019-03-22T12:34:35.626817Z,-0.717882,0.040507999999999995,-0.0006929999999999999
2019-03-22T12:34:35.828817Z,-0.667882,0.115418,0.17471099999999998
2019-03-22T12:34:36.030817Z,-0.272432,0.692055,0.087129
2019-03-22T12:34:36.231817Z,-0.48078999999999994,1.24517,-0.308881
2019-03-22T12:34:36.433817Z,-0.056829,0.894457,-0.011040000000000001
2019-03-22T12:34:36.635817Z,-0.053882000000000006,-0.39719899999999997,0.21734099999999998
2019-03-22T12:34:36.837817Z,-0.416641,-0.10843599999999999,-0.9491290000000001
2019-03-22T12:34:37.040817Z,-0.313663,0.669288,0.480562
2019-03-22T12:34:37.241817Z,-0.700008,0.444288,1.7975349999999999
2019-03-22T12:34:37.443817Z,-1.283301,-0.171552,0.089795
2019-03-22T12:34:37.645817Z,-1.08928,0.365793,-0.200177
2019-03-22T12:34:37.847817Z,-1.501058,0.556072,0.561229
2019-03-22T12:34:38.049817Z,-0.909443,-0.564673,0.395996
2019-03-22T12:34:38.251817Z,-0.9855299999999999,-0.635003,0.142714
2019-03-22T12:34:38.453817Z,-0.8490270000000001,0.403833,0.270861
2019-03-22T12:34:38.655817Z,-1.578914,0.318375,-0.32213800000000004
2019-03-22T12:34:38.857817Z,-1.6660689999999998,0.258263,0.060796
2019-03-22T12:34:39.059817Z,-1.164521,0.25900300000000004,0.32433
2019-03-22T12:34:39.261817Z,-0.36151500000000003,-0.41443599999999997,-0.111973
2019-03-22T12:34:39.462817Z,-0.07358300000000001,-0.680389,0.327
2019-03-22T12:34:39.664817Z,-0.816555,-0.359573,0.437147
2019-03-22T12:34:39.866817Z,-1.6796360000000001,-0.133852,-0.502473
2019-03-22T12:34:40.068817Z,-0.697388,-0.829177,-0.06314199999999999
2019-03-22T12:34:40.270817Z,-0.681653,-0.428571,0.306028
2019-03-22T12:34:40.472817Z,-0.364222,0.32876700000000003,0.102269
2019-03-22T12:34:40.674817Z,0.01181,0.105183,0.170009
2019-03-22T12:34:40.876817Z,0.004254,-1.970868,0.091133
2019-03-22T12:34:41.079817Z,-0.23535,-2.217629,0.28408
2019-03-22T12:34:41.280817Z,-0.38071900000000003,-1.405082,0.933076
2019-03-22T12:34:41.482817Z,-1.455849,-1.511579,2.196503
2019-03-22T12:34:41.684817Z,-2.0360259999999997,-1.4888549999999998,0.369093
2019-03-22T12:34:41.886817Z,-1.2474319999999999,-0.5947319999999999,-1.057964
2019-03-22T12:34:42.089817Z,-1.29188,-1.1612790000000002,-0.987851
2019-03-22T12:34:42.290817Z,-0.410458,-0.515566,-0.418596
2019-03-22T12:34:42.492817Z,-0.641177,-0.387579,0.29790300000000003
2019-03-22T12:34:42.693817Z,-0.492378,-0.7070029999999999,-0.033466
2019-03-22T12:34:42.912817Z,-0.488889,-0.336776,0.110195
2019-03-22T12:34:43.111817Z,-0.869934,-0.126662,0.183025
2019-03-22T12:34:43.299817Z,-0.8806450000000001,0.177591,0.012010999999999999
2019-03-22T12:34:43.501817Z,-0.570476,1.106847,-0.3413
2019-03-22T12:34:43.703817Z,-0.095901,0.6661199999999999,-0.096075
2019-03-22T12:34:43.905817Z,-0.718305,-1.458628,0.313842
2019-03-22T12:34:44.107817Z,-0.644623,0.0672,-0.619591
2019-03-22T12:34:44.309817Z,-1.022442,0.684262,0.718513
2019-03-22T12:34:44.511817Z,-0.8192200000000001,-1.077344,0.226375
2019-03-22T12:34:44.713817Z,-1.793225,-1.395775,-0.44741899999999996
2019-03-22T12:34:44.915817Z,-0.976876,-0.048341,0.24773299999999998
2019-03-22T12:34:45.117817Z,-0.756077,-0.220739,0.6243479999999999
2019-03-22T12:34:45.319817Z,-0.41914799999999997,-0.505807,0.433457
2019-03-22T12:34:45.521817Z,0.868334,0.079952,0.8731040000000001
2019-03-22T12:34:45.723817Z,-0.548854,-0.34832199999999996,0.27732199999999996
2019-03-22T12:34:45.925817Z,-0.569444,-0.12204000000000001,-0.20682399999999998
2019-03-22T12:34:46.126817Z,-0.839841,-0.202225,0.20014500000000002
2019-03-22T12:34:46.328817Z,-0.115379,0.276329,0.003365
2019-03-22T12:34:46.530817Z,0.630474,0.5054930000000001,-0.229125
2019-03-22T12:34:46.732817Z,0.424146,1.113567,-0.371226
2019-03-22T12:34:46.934817Z,-1.083857,1.735917,-0.624794
2019-03-22T12:34:47.136817Z,-0.423441,1.244864,2.1289689999999997
2019-03-22T12:34:47.338817Z,-1.095677,1.61575,-1.065863
2019-03-22T12:34:47.540817Z,-2.452768,1.730603,-0.328894
2019-03-22T12:34:47.742817Z,-1.99278,1.993923,0.482124
2019-03-22T12:34:47.945817Z,-0.698542,1.625658,0.681079
2019-03-22T12:34:48.146817Z,-0.602785,0.96634,-0.46590299999999996
2019-03-22T12:34:48.348817Z,-0.11845599999999999,2.471832,0.052374000000000004
2019-03-22T12:34:48.550817Z,-0.5692520000000001,2.387306,-1.402676
2019-03-22T12:34:48.752817Z,-0.630795,1.863737,-1.0105870000000001
2019-03-22T12:34:48.954817Z,0.411005,1.498025,-0.406977
2019-03-22T12:34:49.156817Z,0.276149,1.188157,0.611887
2019-03-22T12:34:49.358817Z,0.47036400000000006,1.415736,0.028455
2019-03-22T12:34:49.570817Z,0.29526399999999997,2.4392560000000003,0.371249
2019-03-22T12:34:49.762817Z,0.978828,2.716634,0.614216
2019-03-22T12:34:49.964817Z,0.503668,2.606754,-0.444543
2019-03-22T12:34:50.165817Z,0.37721,2.652257,-0.260098
2019-03-22T12:34:50.367817Z,0.416691,2.939567,0.046314999999999995
2019-03-22T12:34:50.569817Z,0.468063,2.873861,0.086828
2019-03-22T12:34:50.771817Z,0.36254200000000003,2.603751,0.24637199999999998
2019-03-22T12:34:50.973817Z,0.237798,1.700623,0.165787
2019-03-22T12:34:51.175817Z,0.27026,0.630015,-0.378146
2019-03-22T12:34:51.377817Z,0.271633,1.702348,0.018136000000000003
2019-03-22T12:34:51.579817Z,1.052291,1.9459650000000002,-0.775846
2019-03-22T12:34:51.781817Z,1.0385870000000001,0.6144189999999999,0.361869
2019-03-22T12:34:51.984817Z,2.072967,0.950926,0.433939
2019-03-22T12:34:52.185817Z,1.9088490000000002,1.044411,0.720875
2019-03-22T12:34:52.387817Z,1.989768,0.610463,-0.230055
2019-03-22T12:34:52.589817Z,2.409891,-0.44443299999999997,1.142307
2019-03-22T12:34:52.790817Z,2.110419,0.7472310000000001,0.60426
2019-03-22T12:34:52.992817Z,2.389409,0.865408,-0.5569470000000001
2019-03-22T12:34:53.194817Z,1.8197619999999999,0.071522,-0.23594600000000002
2019-03-22T12:34:53.396817Z,1.1812129999999998,-0.042805,0.781931
2019-03-22T12:34:53.608817Z,0.339808,0.020137000000000002,0.336622
2019-03-22T12:34:53.800817Z,0.650343,0.84739,0.009178
2019-03-22T12:34:54.003817Z,0.559874,0.169209,-0.01225
2019-03-22T12:34:54.204817Z,0.5746859999999999,0.402671,-0.0114
2019-03-22T12:34:54.406817Z,0.572611,0.5588810000000001,0.027725
2019-03-22T12:34:54.608817Z,0.1838,0.317605,0.122925
2019-03-22T12:34:54.810817Z,0.21636799999999998,0.36851300000000003,-0.114165
2019-03-22T12:34:55.012817Z,-0.56572,0.795038,0.255616
2019-03-22T12:34:55.214817Z,0.8867450000000001,0.413282,0.47924799999999995
2019-03-22T12:34:55.415817Z,0.566072,-0.753765,0.598121
2019-03-22T12:34:55.618817Z,1.620372,-0.229713,-0.897035
2019-03-22T12:34:55.820817Z,0.8211639999999999,0.761959,-0.509919
2019-03-22T12:34:56.023817Z,0.630238,1.044452,0.764854
2019-03-22T12:34:56.224817Z,1.006099,-0.254949,-0.588829
2019-03-22T12:34:56.426817Z,1.043242,-0.763124,-0.19376600000000002
2019-03-22T12:34:56.627817Z,0.706234,0.020794,0.249311
2019-03-22T12:34:56.830817Z,1.154374,0.820652,0.55097
2019-03-22T12:34:57.031817Z,2.0849729999999997,-0.57855,0.5524600000000001
2019-03-22T12:34:57.233817Z,2.713378,0.13365,0.007529000000000001
2019-03-22T12:34:57.435817Z,2.447609,-0.31072,1.469842
2019-03-22T12:34:57.637817Z,2.909235,0.744318,0.327412
2019-03-22T12:34:57.839817Z,1.6663709999999998,-0.46329,0.7703899999999999
2019-03-22T12:34:58.041817Z,1.798689,-0.123177,0.752069
2019-03-22T12:34:58.243817Z,1.143324,-0.173927,0.326225
2019-03-22T12:34:58.445817Z,0.832723,-0.504984,1.046883
2019-03-22T12:34:58.647817Z,0.270004,-1.021128,0.137186
2019-03-22T12:34:58.849817Z,0.821792,-0.38008800000000004,1.019902
2019-03-22T12:34:59.050817Z,0.177819,-0.608,0.419048
2019-03-22T12:34:59.252817Z,0.003181,-1.2467270000000001,0.344455
2019-03-22T12:34:59.454817Z,0.9405700000000001,-1.46875,1.206667
2019-03-22T12:34:59.656817Z,0.792989,-0.582738,-0.636925
2019-03-22T12:34:59.858817Z,-0.016933,0.408988,0.29381799999999997
2019-03-22T12:35:00.060817Z,-0.618969,0.068482,0.896575
2019-03-22T12:35:00.262817Z,-0.608697,-0.555425,-1.208146
2019-03-22T12:35:00.464817Z,-1.286044,1.0389469999999998,-0.985088
2019-03-22T12:35:00.666817Z,-0.995506,0.43439099999999997,0.954425
2019-03-22T12:35:00.868817Z,-0.681024,1.562296,1.213447
2019-03-22T12:35:01.070817Z,0.039475,2.273593,-1.102717
2019-03-22T12:35:01.272817Z,-0.429997,1.307296,-0.18012
2019-03-22T12:35:01.474817Z,-0.817567,1.517466,0.634081
2019-03-22T12:35:01.676817Z,-0.502059,2.218482,0.373347
2019-03-22T12:35:01.878817Z,-1.137756,2.08209,0.413736
2019-03-22T12:35:02.080817Z,-1.02273,1.9962490000000002,-0.14366600000000002
2019-03-22T12:35:02.281817Z,-0.798301,1.9518209999999998,-0.345112
2019-03-22T12:35:02.483817Z,-0.490016,2.5722270000000003,-0.243052
2019-03-22T12:35:02.685817Z,-0.8978440000000001,2.5362270000000002,0.41458100000000003
2019-03-22T12:35:02.887817Z,0.134437,1.684782,0.052035000000000005
2019-03-22T12:35:03.089817Z,-0.28633400000000003,0.49490500000000004,-0.251299
2019-03-22T12:35:03.291817Z,0.000488,1.434164,-0.560886
2019-03-22T12:35:03.493817Z,-0.264056,1.151646,0.139926
2019-03-22T12:35:03.695817Z,1.0533649999999999,0.402169,0.37799699999999997
2019-03-22T12:35:03.897817Z,1.3986120000000002,0.326248,0.060077
2019-03-22T12:35:04.099817Z,0.606241,0.44617700000000005,-0.258227
2019-03-22T12:35:04.301817Z,1.327645,-0.038654,0.6975979999999999
2019-03-22T12:35:04.503817Z,0.600847,-1.570869,-0.087145
2019-03-22T12:35:04.705817Z,0.028137,-1.078871,0.441062
2019-03-22T12:35:04.907817Z,1.1366459999999998,-0.702592,0.773565
2019-03-22T12:35:05.109817Z,0.684068,-0.263631,0.246204
2019-03-22T12:35:05.311817Z,0.997914,-0.21780700000000003,0.59234
2019-03-22T12:35:05.513817Z,0.30075,0.270284,-0.08439400000000001
2019-03-22T12:35:05.715817Z,-0.386081,-0.093263,0.342405
2019-03-22T12:35:05.917817Z,-0.593859,-0.234915,-0.032739
2019-03-22T12:35:06.118817Z,-0.40332199999999996,-0.079664,0.242106
2019-03-22T12:35:06.320817Z,-0.07172200000000001,0.199353,0.182643
2019-03-22T12:35:06.522817Z,0.881808,0.707675,-0.659297
2019-03-22T12:35:06.724817Z,0.7105670000000001,0.789296,-0.450376
2019-03-22T12:35:06.926817Z,0.384044,0.897803,-0.661884
2019-03-22T12:35:07.127817Z,0.899034,0.092429,1.274744
2019-03-22T12:35:07.330817Z,0.8070350000000001,-0.247606,0.171751
2019-03-22T12:35:07.531817Z,1.872167,0.237506,0.063034
2019-03-22T12:35:07.748817Z,1.584072,0.374407,-1.221719
2019-03-22T12:35:07.935817Z,0.874122,0.133029,0.751152
2019-03-22T12:35:08.137817Z,0.543806,-0.29112,0.396244
2019-03-22T12:35:08.339817Z,0.926625,-0.7345109999999999,-0.44185
2019-03-22T12:35:08.541817Z,0.910017,0.5299149999999999,-0.280629
2019-03-22T12:35:08.743817Z,0.8204629999999999,0.884397,-0.20963099999999998
2019-03-22T12:35:08.945817Z,0.897495,-0.528227,0.694824
2019-03-22T12:35:09.146817Z,1.4792459999999998,0.5818810000000001,-0.754846
2019-03-22T12:35:09.348817Z,0.9841120000000001,0.8140189999999999,-0.257666
2019-03-22T12:35:09.550817Z,0.909791,0.667194,-0.072098
2019-03-22T12:35:09.753817Z,1.083798,-0.409337,-0.141407
2019-03-22T12:35:09.954817Z,0.5334409999999999,0.154029,-0.22436999999999999
2019-03-22T12:35:10.156817Z,0.441658,0.199872,0.08343500000000001
2019-03-22T12:35:10.358817Z,0.019638,0.652917,0.10901
2019-03-22T12:35:10.560817Z,0.034950999999999996,0.671583,-0.253604
2019-03-22T12:35:10.763817Z,-0.529412,0.374436,0.034476
2019-03-22T12:35:10.964817Z,-0.299715,0.23408,0.03424
2019-03-22T12:35:11.178817Z,-0.13009300000000001,0.148019,-0.034842000000000005
2019-03-22T12:35:11.367817Z,-0.5047659999999999,-0.27980900000000003,0.808062
2019-03-22T12:35:11.569817Z,-0.38689,-0.009148,0.60169
2019-03-22T12:35:11.771817Z,-0.64599,-0.296533,-0.260422
2019-03-22T12:35:11.973817Z,-0.24738800000000002,0.18550999999999998,-0.133141
2019-03-22T12:35:12.175817Z,0.04655,-0.268753,-0.22414800000000001
2019-03-22T12:35:12.377817Z,-0.13156700000000002,-0.475257,-0.278298
2019-03-22T12:35:12.579817Z,0.06257599999999999,-0.646089,0.148109
2019-03-22T12:35:12.781817Z,0.438496,-1.7881259999999999,-0.574775
2019-03-22T12:35:12.982817Z,0.38181,-0.58735,-0.059974
2019-03-22T12:35:13.185817Z,-0.119325,0.024635,0.160973
2019-03-22T12:35:13.386817Z,0.25897,-1.546683,0.715607
2019-03-22T12:35:13.588817Z,0.276843,-1.037191,0.404727
2019-03-22T12:35:13.790817Z,0.425545,-0.765151,0.075863
2019-03-22T12:35:13.992817Z,-0.10598900000000001,-0.867044,1.0624360000000002
2019-03-22T12:35:14.194817Z,-0.651092,-2.9543630000000003,-0.045456
2019-03-22T12:35:14.396817Z,-0.564094,-2.849569,-0.009236
2019-03-22T12:35:14.597817Z,0.014523,-2.377361,0.421996
2019-03-22T12:35:14.800817Z,-0.39379699999999995,-2.020111,2.054236
2019-03-22T12:35:15.002817Z,-1.343781,-0.906449,0.627563
2019-03-22T12:35:15.214817Z,-0.247047,-0.627913,0.286654
2019-03-22T12:35:15.406817Z,-0.43172299999999997,-0.72945,0.000532
2019-03-22T12:35:15.635817Z,-1.423541,-1.117133,-1.5940969999999999
2019-03-22T12:35:15.811817Z,-1.231299,-1.0821049999999999,0.190557
2019-03-22T12:35:16.011817Z,-1.093652,-0.380457,0.310782
2019-03-22T12:35:16.213817Z,-1.436843,-0.383293,0.20180599999999999
2019-03-22T12:35:16.414817Z,-1.036107,0.318266,0.039746
2019-03-22T12:35:16.616817Z,-1.4591,0.142573,0.698226
2019-03-22T12:35:16.818817Z,-2.091043,0.8722129999999999,0.501217
2019-03-22T12:35:17.020817Z,-2.055604,-0.697218,0.163466
2019-03-22T12:35:17.222817Z,-2.448178,-0.5656399999999999,-0.103154
2019-03-22T12:35:17.423817Z,-2.700695,0.14714100000000002,0.636383
2019-03-22T12:35:17.626817Z,-2.289148,0.337957,0.909852
2019-03-22T12:35:17.828817Z,-2.328452,-1.3342450000000001,0.923916
2019-03-22T12:35:18.029817Z,-2.380338,-1.5891979999999999,0.6378590000000001
2019-03-22T12:35:18.231817Z,-1.919128,-0.278829,0.8626010000000001
2019-03-22T12:35:18.433817Z,-2.672156,-0.459967,0.46715200000000007
2019-03-22T12:35:18.635817Z,-1.560819,-0.20435999999999999,-0.30527
2019-03-22T12:35:18.859817Z,-1.801516,0.111528,0.9283379999999999
2019-03-22T12:35:19.039817Z,-1.669874,0.263944,-0.031664
2019-03-22T12:35:19.241817Z,-2.0197439999999998,0.629204,-0.22250799999999998
2019-03-22T12:35:19.443817Z,-1.447592,1.01425,-0.347196
2019-03-22T12:35:19.645817Z,-0.49185100000000004,1.310489,-0.5796479999999999
2019-03-22T12:35:19.846817Z,-0.627229,1.355312,-0.042729
2019-03-22T12:35:20.048817Z,-0.584905,-0.548746,0.163029
2019-03-22T12:35:20.250817Z,-1.106144,-0.097601,-0.483749
2019-03-22T12:35:20.452817Z,-0.646303,1.2559280000000002,0.20883800000000002
2019-03-22T12:35:20.654817Z,-0.890841,1.565012,0.288356
2019-03-22T12:35:20.856817Z,-0.074512,0.232408,-0.194275
2019-03-22T12:35:21.058817Z,-0.12631199999999998,-0.627217,0.101587
2019-03-22T12:35:21.260817Z,-0.569234,-0.151773,0.08025399999999999
2019-03-22T12:35:21.461817Z,0.366541,-0.06099500000000001,0.516329
2019-03-22T12:35:21.664817Z,-0.326877,-1.506197,0.21073899999999998
2019-03-22T12:35:21.865817Z,-1.309393,-0.982967,0.14311
2019-03-22T12:35:22.067817Z,-0.660189,-0.559002,0.28089200000000003
2019-03-22T12:35:22.269817Z,-1.2019540000000002,-0.817692,0.739769
2019-03-22T12:35:22.471817Z,-1.04026,-0.89092,-0.157386
2019-03-22T12:35:22.673817Z,-1.266709,-0.32719299999999996,1.161835
2019-03-22T12:35:22.877817Z,-0.456503,-1.191857,-0.631641
2019-03-22T12:35:23.077817Z,1.003937,-1.027562,0.532067
2019-03-22T12:35:23.278817Z,1.63431,-0.28785,-0.450034
2019-03-22T12:35:23.481817Z,2.022583,-0.590697,0.541456
2019-03-22T12:35:23.683817Z,1.605453,-0.747988,0.680052
2019-03-22T12:35:23.884817Z,1.978579,-0.859296,0.491471
2019-03-22T12:35:24.086817Z,1.4460680000000001,-0.54062,0.424741
2019-03-22T12:35:24.288817Z,1.0672760000000001,-0.43263,0.48426899999999995
2019-03-22T12:35:24.490817Z,1.8864720000000001,0.625735,0.37704499999999996
2019-03-22T12:35:24.692817Z,2.0557529999999997,1.2390139999999998,-0.310295
2019-03-22T12:35:24.894817Z,2.00947,0.774089,0.661432
2019-03-22T12:35:25.095817Z,1.077313,-0.943225,1.044772
2019-03-22T12:35:25.297817Z,0.939426,0.173005,-0.76931
2019-03-22T12:35:25.499817Z,0.761099,1.0471059999999999,-0.075113
2019-03-22T12:35:25.702817Z,-0.617823,0.773809,2.480897
2019-03-22T12:35:25.903817Z,-1.648308,-0.852767,-1.412626
2019-03-22T12:35:26.105817Z,-0.7609020000000001,1.399884,-0.5923619999999999
2019-03-22T12:35:26.307817Z,-0.881818,1.740937,0.07478
2019-03-22T12:35:26.509817Z,-1.177144,-0.269729,0.028691
2019-03-22T12:35:26.711817Z,0.647915,-0.12073900000000001,-0.504383
2019-03-22T12:35:26.913817Z,0.428968,1.0088059999999999,-0.23491700000000001
2019-03-22T12:35:27.114817Z,0.612128,0.151014,0.35231799999999996
2019-03-22T12:35:27.316817Z,0.468312,-0.699764,0.057138999999999995
2019-03-22T12:35:27.519817Z,0.840039,-1.353785,0.607401
2019-03-22T12:35:27.721817Z,0.748765,-1.155621,0.7738619999999999
2019-03-22T12:35:27.923817Z,1.3837270000000002,-1.093861,0.18345999999999998
2019-03-22T12:35:28.123817Z,1.056452,-1.352846,0.368718
2019-03-22T12:35:28.325817Z,1.102578,-0.603033,0.492433
2019-03-22T12:35:28.527817Z,0.548245,0.033145999999999995,0.287182
2019-03-22T12:35:28.729817Z,0.82739,-0.15298699999999998,-0.677896
2019-03-22T12:35:28.931817Z,1.157235,0.278863,0.743858
2019-03-22T12:35:29.133817Z,1.526065,-0.470476,0.9137540000000001
2019-03-22T12:35:29.336817Z,1.864002,-1.594802,0.134752
2019-03-22T12:35:29.537817Z,1.0167540000000002,0.26002,-0.181555
2019-03-22T12:35:29.739817Z,0.9079020000000001,1.052917,-0.147083
2019-03-22T12:35:29.940817Z,0.964534,-0.7760600000000001,1.289303
2019-03-22T12:35:30.142817Z,1.0505120000000001,-0.733533,0.085293
2019-03-22T12:35:30.344817Z,1.3862510000000001,0.268045,-0.38211100000000003
2019-03-22T12:35:30.547817Z,0.561555,-0.144006,0.03549
2019-03-22T12:35:30.748817Z,0.955829,0.535891,-0.215048
2019-03-22T12:35:30.950817Z,0.5116569999999999,0.102254,0.348515
2019-03-22T12:35:31.152817Z,0.690782,0.43175600000000003,0.402945
2019-03-22T12:35:31.354817Z,0.186525,0.779546,0.059867
2019-03-22T12:35:31.556817Z,0.140032,0.8026260000000001,-0.158557
2019-03-22T12:35:31.757817Z,0.002102,0.608541,-0.069283
2019-03-22T12:35:31.959817Z,0.575414,-0.070301,0.883735
2019-03-22T12:35:32.161817Z,1.0645229999999999,-0.329341,0.541845
2019-03-22T12:35:32.363817Z,1.1424299999999998,0.657537,-0.011008
2019-03-22T12:35:32.565817Z,1.085434,0.904473,0.061194000000000005
2019-03-22T12:35:32.766817Z,-0.140923,0.577969,1.14215
2019-03-22T12:35:32.968817Z,-1.345502,-1.119677,-0.146772
2019-03-22T12:35:33.170817Z,-1.905864,-0.6385529999999999,0.012263
2019-03-22T12:35:33.373817Z,-1.9204439999999998,0.461078,0.252222
2019-03-22T12:35:33.586817Z,-1.470361,-0.153581,0.575292
2019-03-22T12:35:33.776817Z,-0.725012,-0.46471,0.332248
2019-03-22T12:35:33.977817Z,-1.156312,0.8532790000000001,-0.739907
2019-03-22T12:35:34.179817Z,-1.405584,0.778705,0.718596
2019-03-22T12:35:34.381817Z,-1.783614,0.753149,-0.145291
2019-03-22T12:35:34.583817Z,-1.143274,1.02546,-0.48305
2019-03-22T12:35:34.785817Z,-1.453985,0.7173229999999999,0.23874099999999998
2019-03-22T12:35:34.987817Z,-0.931217,0.71628,-0.524756
2019-03-22T12:35:35.189817Z,-0.554483,0.636549,-0.24864499999999998
2019-03-22T12:35:35.390817Z,-0.5230739999999999,0.506799,-0.025248
2019-03-22T12:35:35.592817Z,0.7910520000000001,1.115366,-0.36857
2019-03-22T12:35:35.794817Z,0.701125,0.45304300000000003,1.503717
2019-03-22T12:35:35.996817Z,-0.153766,-0.338565,-0.168975
2019-03-22T12:35:36.198817Z,-0.9670629999999999,-0.404697,-0.647655
2019-03-22T12:35:36.399817Z,-0.535822,0.619529,0.41381999999999997
2019-03-22T12:35:36.602817Z,-0.397809,1.119069,0.105975
2019-03-22T12:35:36.804817Z,0.256293,-0.25606799999999996,-0.024771
2019-03-22T12:35:37.005817Z,0.6796449999999999,0.10306900000000001,0.005295
2019-03-22T12:35:37.207817Z,1.219878,0.590897,-0.043886
2019-03-22T12:35:37.409817Z,1.087573,0.5629069999999999,-0.0215
2019-03-22T12:35:37.611817Z,1.336186,1.094875,-0.406474
2019-03-22T12:35:37.813817Z,1.338006,0.8566940000000001,0.053399
2019-03-22T12:35:38.014817Z,1.036311,0.706531,-0.41474700000000003
2019-03-22T12:35:38.216817Z,1.326125,0.861991,0.192199
2019-03-22T12:35:38.418817Z,0.861416,0.758242,0.022777000000000002
2019-03-22T12:35:38.620817Z,0.956011,0.813577,-0.595422
2019-03-22T12:35:38.822817Z,0.846037,0.669596,0.185338
2019-03-22T12:35:39.024817Z,0.8000970000000001,1.012163,0.017591
2019-03-22T12:35:39.225817Z,0.9049520000000001,0.828108,0.66562
2019-03-22T12:35:39.427817Z,1.0726959999999999,1.1540540000000001,0.25159499999999996
2019-03-22T12:35:39.629817Z,1.3067739999999999,-0.734078,0.29878000000000005
2019-03-22T12:35:39.831817Z,0.720751,-0.6118939999999999,-0.793003
2019-03-22T12:35:40.033817Z,0.5845130000000001,0.20167100000000002,0.6459020000000001
2019-03-22T12:35:40.234817Z,0.131968,-0.290653,-2.2e-05
2019-03-22T12:35:40.436817Z,1.2423620000000002,-2.241962,0.337341
2019-03-22T12:35:40.638817Z,-0.420862,-1.6695799999999998,0.078944
2019-03-22T12:35:40.840817Z,-1.1404020000000001,-0.9368790000000001,1.146837
2019-03-22T12:35:41.042817Z,-0.93284,-1.156496,0.602165
2019-03-22T12:35:41.243817Z,0.327521,-1.347664,1.394444
2019-03-22T12:35:41.446817Z,-0.394418,-0.811458,-0.02592
2019-03-22T12:35:41.648817Z,-0.927084,-0.725781,0.390015
2019-03-22T12:35:41.849817Z,0.053603,-0.637966,0.330843
2019-03-22T12:35:42.052817Z,0.03555,-0.255309,0.23666500000000001
2019-03-22T12:35:42.253817Z,0.404277,-0.245723,0.336771
2019-03-22T12:35:42.457817Z,0.9064909999999999,-0.48265600000000003,0.5708340000000001
2019-03-22T12:35:42.657817Z,0.273457,-0.76227,0.45782399999999995
2019-03-22T12:35:42.859817Z,0.948701,-0.399108,0.301365
2019-03-22T12:35:43.060817Z,1.312284,-0.09525299999999999,0.22983699999999999
2019-03-22T12:35:43.262817Z,1.354593,0.43426099999999995,-0.171972
2019-03-22T12:35:43.464817Z,0.336921,0.9022319999999999,0.005054
2019-03-22T12:35:43.666817Z,0.858717,-0.336566,0.233918
2019-03-22T12:35:43.867817Z,0.28991100000000003,-1.000108,-0.174801
2019-03-22T12:35:44.069817Z,0.8438190000000001,0.35416,-0.052588
2019-03-22T12:35:44.271817Z,1.131648,0.066037,0.746406
2019-03-22T12:35:44.474817Z,1.468479,-1.6388490000000002,0.532937
2019-03-22T12:35:44.675817Z,0.691934,-0.389569,-0.084078
2019-03-22T12:35:44.877817Z,0.351984,0.11686099999999999,0.43054
2019-03-22T12:35:45.079817Z,0.7706109999999999,-1.51776,0.056186
2019-03-22T12:35:45.280817Z,1.348012,-1.7862689999999999,-0.179015
2019-03-22T12:35:45.484817Z,1.085027,-0.46758900000000003,0.318278
2019-03-22T12:35:45.684817Z,1.925455,-0.18099,0.9463799999999999
2019-03-22T12:35:45.886817Z,2.412906,-1.4770590000000001,0.772202
2019-03-22T12:35:46.088817Z,2.435689,-1.077389,1.204285
2019-03-22T12:35:46.290817Z,1.418393,-0.537037,0.643404
2019-03-22T12:35:46.493817Z,0.7703479999999999,-0.847456,0.5849439999999999
2019-03-22T12:35:46.694817Z,1.888711,-1.954636,0.900802
2019-03-22T12:35:46.896817Z,1.670378,-1.924757,1.057634
2019-03-22T12:35:47.098817Z,2.127421,-2.0706700000000002,1.879932
2019-03-22T12:35:47.316817Z,1.579317,-1.6715659999999999,2.4566209999999997
2019-03-22T12:35:47.501817Z,1.7435759999999998,-1.329619,0.806828
2019-03-22T12:35:47.703817Z,0.973727,-1.5101120000000001,0.644861
2019-03-22T12:35:47.904817Z,0.74043,-1.460415,0.9986709999999999
2019-03-22T12:35:48.106817Z,0.00895,-1.667793,0.624269
2019-03-22T12:35:48.308817Z,-0.064965,-1.059472,0.8517819999999999
2019-03-22T12:35:48.510817Z,0.148483,-1.203631,1.153744
2019-03-22T12:35:48.711817Z,0.8781329999999999,-0.922164,-0.093149
2019-03-22T12:35:48.913817Z,0.7658689999999999,-1.1215950000000001,0.5015539999999999
2019-03-22T12:35:49.115817Z,0.177101,-0.570497,0.536293
2019-03-22T12:35:49.317817Z,0.802519,-0.9498719999999999,-0.015672
2019-03-22T12:35:49.520817Z,-0.253887,-1.9454310000000001,0.824069
2019-03-22T12:35:49.721817Z,-0.310886,-1.653548,1.08606
2019-03-22T12:35:49.923817Z,-0.315679,-1.5278040000000002,-0.041657
2019-03-22T12:35:50.124817Z,0.204489,-1.403618,0.099695
2019-03-22T12:35:50.326817Z,0.27555,-1.140433,0.538197
2019-03-22T12:35:50.528817Z,0.078442,-1.0240559999999999,0.630341
2019-03-22T12:35:50.729817Z,-0.079638,-0.9102530000000001,0.022969999999999997
2019-03-22T12:35:50.931817Z,-0.344587,-0.152082,0.053062
2019-03-22T12:35:51.133817Z,-0.19377,-0.066916,0.041753
2019-03-22T12:35:51.335817Z,0.5311100000000001,-1.118675,0.683208
2019-03-22T12:35:51.537817Z,0.9743809999999999,-1.074075,0.060717999999999994
2019-03-22T12:35:51.739817Z,0.482124,-0.19423900000000002,0.375562
2019-03-22T12:35:51.940817Z,-0.160749,-1.252163,1.109702
2019-03-22T12:35:52.142817Z,-0.817887,-1.748017,0.779508
2019-03-22T12:35:52.344817Z,-0.288708,-1.441499,1.108185
2019-03-22T12:35:52.547817Z,-0.756012,-1.183742,0.205869
2019-03-22T12:35:52.748817Z,-0.44632200000000005,-0.9631569999999999,-0.286263
2019-03-22T12:35:52.950817Z,-0.8484079999999999,-0.662794,0.276553
2019-03-22T12:35:53.151817Z,-0.810438,-0.642671,0.12393299999999999
2019-03-22T12:35:53.353817Z,-0.7646569999999999,-1.268405,0.640304
2019-03-22T12:35:53.555817Z,-0.931602,-0.330239,-0.5156850000000001
2019-03-22T12:35:53.757817Z,-1.064584,-0.5554640000000001,0.2825
2019-03-22T12:35:53.959817Z,-0.049164,-0.08176,0.42011499999999996
2019-03-22T12:35:54.160817Z,0.122601,-0.816803,1.066133
2019-03-22T12:35:54.362817Z,-0.871921,-0.975843,0.334212
2019-03-22T12:35:54.564817Z,-1.752821,-0.42424300000000004,-0.35685
2019-03-22T12:35:54.766817Z,-1.553495,0.347033,-0.204269
2019-03-22T12:35:54.968817Z,-2.1774720000000003,1.221301,0.8603870000000001
2019-03-22T12:35:55.169817Z,-1.796211,-0.070547,1.423106
2019-03-22T12:35:55.372817Z,-0.053723,-0.539628,-1.091505
2019-03-22T12:35:55.573817Z,-1.098631,0.8790870000000001,0.37400700000000003
2019-03-22T12:35:55.775817Z,-0.761046,0.6960569999999999,0.811416
2019-03-22T12:35:55.977817Z,-0.47655200000000003,1.435092,0.24366500000000002
2019-03-22T12:35:56.178817Z,1.9477630000000001,1.286276,-0.018331999999999998
2019-03-22T12:35:56.381817Z,0.822131,2.219263,-0.104279
2019-03-22T12:35:56.582817Z,0.278165,2.7990779999999997,-0.051364
2019-03-22T12:35:56.784817Z,1.364454,0.7035279999999999,0.5048090000000001
2019-03-22T12:35:56.986817Z,0.623584,1.5152709999999998,-0.884001
2019-03-22T12:35:57.188817Z,-0.097991,1.571874,-0.766718
2019-03-22T12:35:57.390817Z,-0.598668,1.695915,0.075771
2019-03-22T12:35:57.592817Z,-0.510127,2.097999,-0.46511199999999997
2019-03-22T12:35:57.794817Z,-0.226239,1.7986099999999998,-0.065425
2019-03-22T12:35:57.995817Z,-0.032494,1.8501020000000001,-0.41875500000000004
2019-03-22T12:35:58.197817Z,0.029757,1.3552549999999999,-0.056322000000000004
2019-03-22T12:35:58.399817Z,-0.55575,1.135324,-0.23379
2019-03-22T12:35:58.600817Z,-0.62607,1.457414,0.499622
2019-03-22T12:35:58.802817Z,-0.40454,1.61285,0.37954
2019-03-22T12:35:59.004817Z,-0.441488,-0.34642,-0.343618
2019-03-22T12:35:59.205817Z,-0.54099,0.11053099999999999,-0.791974
2019-03-22T12:35:59.408817Z,-0.45482,1.437733,0.13116
2019-03-22T12:35:59.609817Z,-0.533492,0.778687,0.17058900000000002
2019-03-22T12:35:59.811817Z,0.45164399999999993,-1.175562,1.2908870000000001
2019-03-22T12:36:00.013817Z,-1.035642,-0.899971,-0.35694499999999996
2019-03-22T12:36:00.215817Z,-1.560682,-0.55371,0.603735
2019-03-22T12:36:00.417817Z,-0.654129,-0.302498,0.803525
2019-03-22T12:36:00.618817Z,-0.188659,-0.503501,0.146862
2019-03-22T12:36:00.820817Z,-1.142527,-0.12373800000000001,-0.12836
2019-03-22T12:36:01.022817Z,-2.222711,-0.010565999999999999,0.41412299999999996
2019-03-22T12:36:01.223817Z,-2.1653279999999997,-0.053933,0.327462
2019-03-22T12:36:01.426817Z,-1.722762,0.82283,0.19561099999999998
2019-03-22T12:36:01.627817Z,-1.638051,0.290375,0.264945
2019-03-22T12:36:01.842817Z,-1.260626,0.48368199999999995,0.08605299999999999
2019-03-22T12:36:02.031817Z,-1.464017,0.664089,0.084686
2019-03-22T12:36:02.234817Z,-1.122587,0.616367,0.100594
2019-03-22T12:36:02.436817Z,-0.5554060000000001,0.720879,0.061541
2019-03-22T12:36:02.637817Z,-0.27724299999999996,0.229967,0.286436
2019-03-22T12:36:02.839817Z,-0.036812,-0.28679899999999997,-0.42450699999999997
2019-03-22T12:36:03.041817Z,-1.550664,0.42503500000000005,-0.338381
2019-03-22T12:36:03.242817Z,-1.1087989999999999,0.285175,-0.9230379999999999
2019-03-22T12:36:03.444817Z,-1.642424,-1.140158,0.446037
2019-03-22T12:36:03.645817Z,-1.9860259999999998,-1.181604,-0.094777
2019-03-22T12:36:03.847817Z,-1.670923,-0.22517199999999998,0.384443
2019-03-22T12:36:04.049817Z,-1.2424520000000001,-0.294493,-0.345993
2019-03-22T12:36:04.250817Z,-0.685249,-1.452329,0.259423
2019-03-22T12:36:04.453817Z,-1.431924,-1.7348759999999999,-0.276045
2019-03-22T12:36:04.654817Z,-1.00508,-0.7561,0.520558
2019-03-22T12:36:04.856817Z,-1.067911,-0.710901,0.7598659999999999
2019-03-22T12:36:05.058817Z,-1.3076780000000001,-0.707486,-0.094261
2019-03-22T12:36:05.260817Z,-1.030471,0.19409,-0.685349
2019-03-22T12:36:05.462817Z,-1.045179,0.098674,0.078444
2019-03-22T12:36:05.663817Z,-0.642473,0.373967,-0.272971
2019-03-22T12:36:05.870817Z,-0.970979,0.79961,0.44952700000000007
2019-03-22T12:36:06.067817Z,-1.18957,0.7462300000000001,-0.5576
2019-03-22T12:36:06.268817Z,-0.9491639999999999,0.567311,0.36390700000000004
2019-03-22T12:36:06.484817Z,-0.265988,0.733314,0.49725600000000003
2019-03-22T12:36:06.687817Z,-0.698689,0.303322,0.41371
2019-03-22T12:36:06.886817Z,-1.011083,0.125107,0.577984
2019-03-22T12:36:07.075817Z,-0.540013,-0.461021,-1.434616
2019-03-22T12:36:07.278817Z,-0.422224,1.183846,0.015832
2019-03-22T12:36:07.479817Z,-0.547635,1.179665,0.027812
2019-03-22T12:36:07.681817Z,0.229654,-0.386942,0.199998
2019-03-22T12:36:07.883817Z,-0.74644,-0.795934,-0.452788
2019-03-22T12:36:08.084817Z,-0.353657,0.100708,0.10279400000000001
2019-03-22T12:36:08.286817Z,0.11026300000000001,0.394208,-0.033875
2019-03-22T12:36:08.488817Z,0.928858,-1.372476,-0.5715560000000001
2019-03-22T12:36:08.690817Z,0.155222,-0.391387,-0.6340939999999999
2019-03-22T12:36:08.891817Z,0.388812,-0.160332,0.264059
2019-03-22T12:36:09.093817Z,-0.020012000000000002,-0.6418560000000001,1.473905
2019-03-22T12:36:09.295817Z,-0.513408,-0.8772790000000001,-0.379496
2019-03-22T12:36:09.497817Z,-0.670646,-0.190473,0.017117
2019-03-22T12:36:09.699817Z,-0.27981300000000003,-0.138023,-0.153201
2019-03-22T12:36:09.900817Z,0.305606,0.502128,0.593961
2019-03-22T12:36:10.102817Z,-0.041235,0.459246,-0.246498
2019-03-22T12:36:10.304817Z,0.43327299999999996,0.33402600000000005,0.46386000000000005
2019-03-22T12:36:10.519817Z,0.23939899999999997,0.45647200000000004,0.5915600000000001
2019-03-22T12:36:10.708817Z,-0.561893,0.112693,-0.10845199999999999
2019-03-22T12:36:10.909817Z,-1.373842,0.42349899999999996,-0.115846
2019-03-22T12:36:11.111817Z,-2.094429,0.9022,-0.29132600000000003
2019-03-22T12:36:11.313817Z,-1.2278959999999999,0.378384,0.0017809999999999998
2019-03-22T12:36:11.515817Z,-1.590904,-0.904883,0.957773
2019-03-22T12:36:11.716817Z,-1.66567,0.94094,-1.9599080000000002
2019-03-22T12:36:11.918817Z,-0.790736,2.524135,-1.587872
2019-03-22T12:36:12.120817Z,0.18293099999999998,3.420294,-0.147386
2019-03-22T12:36:12.322817Z,0.050016000000000005,3.889123,-0.070039
2019-03-22T12:36:12.524817Z,0.810153,2.552701,0.746568
2019-03-22T12:36:12.726817Z,1.2505600000000001,1.879805,0.341043
2019-03-22T12:36:12.928817Z,1.0794700000000002,3.582375,0.520246
2019-03-22T12:36:13.129817Z,1.466032,3.023524,-0.063087
2019-03-22T12:36:13.331817Z,1.285571,2.889135,-0.039593
2019-03-22T12:36:13.533817Z,1.5379,3.534042,0.312616
2019-03-22T12:36:13.748817Z,1.127813,3.7623849999999996,1.072968
2019-03-22T12:36:13.936817Z,0.988326,3.292817,0.067062
2019-03-22T12:36:14.138817Z,0.5209090000000001,3.225804,-0.12721300000000002
2019-03-22T12:36:14.340817Z,0.143307,3.28025,-0.399127
2019-03-22T12:36:14.542817Z,0.357086,3.6295669999999998,-0.051403
2019-03-22T12:36:14.743817Z,0.26559499999999997,3.6771529999999997,0.516649
2019-03-22T12:36:14.945817Z,0.387319,2.0564970000000002,0.196776
2019-03-22T12:36:15.147817Z,1.10514,1.2532889999999999,0.088225
2019-03-22T12:36:15.349817Z,1.3987,3.0228349999999997,0.24000700000000003
2019-03-22T12:36:15.551817Z,0.379954,2.9194430000000002,0.47755699999999995
2019-03-22T12:36:15.754817Z,1.058778,2.11936,1.5106389999999998
2019-03-22T12:36:15.954817Z,-0.17912999999999998,1.3116729999999999,1.14888
2019-03-22T12:36:16.156817Z,-1.017974,2.016164,-0.713512
2019-03-22T12:36:16.358817Z,-1.1652879999999999,1.958881,0.382983
2019-03-22T12:36:16.559817Z,-0.921156,1.181578,-0.122502
2019-03-22T12:36:16.761817Z,-0.318226,0.936068,0.027658999999999996
2019-03-22T12:36:16.963817Z,-0.916301,0.947363,0.093718
2019-03-22T12:36:17.165817Z,-1.8172490000000001,1.3852950000000002,-0.772285
2019-03-22T12:36:17.367817Z,-1.548948,0.8548950000000001,0.28802
2019-03-22T12:36:17.569817Z,-2.0838509999999997,0.9204889999999999,0.304333
2019-03-22T12:36:17.770817Z,-2.064052,0.748082,0.244533
2019-03-22T12:36:17.972817Z,-1.6138649999999999,0.921106,0.367228
