Datetime,accx,accy,accz
2019-03-21T14:26:10.851297Z,0.705622,0.208614,0.250724
2019-03-21T14:26:11.051297Z,0.922869,0.0735,0.469394
2019-03-21T14:26:11.249297Z,0.748314,0.239498,-0.207474
2019-03-21T14:26:11.448297Z,0.745297,0.7660779999999999,-0.49195
2019-03-21T14:26:11.647297Z,-0.318164,0.425857,0.960101
2019-03-21T14:26:11.846297Z,-0.279344,-1.3693870000000001,0.675696
2019-03-21T14:26:12.046297Z,0.15753,-1.530231,0.380979
2019-03-21T14:26:12.245297Z,0.17341900000000002,-0.736527,0.22575900000000002
2019-03-21T14:26:12.444297Z,-0.752005,-0.527876,1.348127
2019-03-21T14:26:12.643297Z,-0.385667,-1.815398,1.4822520000000001
2019-03-21T14:26:12.842297Z,-0.37414400000000003,-1.526757,0.584864
2019-03-21T14:26:13.041297Z,-0.30949499999999996,-1.129983,0.8853409999999999
2019-03-21T14:26:13.240297Z,-0.60438,-1.091305,1.618942
2019-03-21T14:26:13.439297Z,-0.671987,-1.056301,1.034377
2019-03-21T14:26:13.639297Z,-1.7461659999999999,-1.9385860000000001,0.140995
2019-03-21T14:26:13.848297Z,-1.8770360000000001,-1.3760629999999998,1.077446
2019-03-21T14:26:14.037297Z,-1.6108049999999998,-0.5311140000000001,0.7442810000000001
2019-03-21T14:26:14.236297Z,-2.859986,-1.020124,-0.045732999999999996
2019-03-21T14:26:14.435297Z,-2.719893,-0.7161109999999999,0.140452
2019-03-21T14:26:14.634297Z,-2.576838,-0.58639,0.8434379999999999
2019-03-21T14:26:14.833297Z,-2.6214169999999997,-0.9721870000000001,1.129648
2019-03-21T14:26:15.032297Z,-2.176395,-0.689873,0.8616540000000001
2019-03-21T14:26:15.231297Z,-2.131817,-0.838701,0.908536
2019-03-21T14:26:15.430297Z,-1.931786,-0.9057940000000001,0.7340869999999999
2019-03-21T14:26:15.629297Z,-1.078662,-0.5653239999999999,0.5240090000000001
2019-03-21T14:26:15.828297Z,0.333611,0.31346199999999996,0.818479
2019-03-21T14:26:16.027297Z,-2.109529,-1.198684,-0.048214
2019-03-21T14:26:16.226297Z,-1.3650520000000002,0.432037,0.34232199999999996
2019-03-21T14:26:16.425297Z,-0.553543,0.438626,1.280885
2019-03-21T14:26:16.625297Z,-1.354726,-2.085083,1.327796
2019-03-21T14:26:16.823297Z,-1.5283440000000001,-0.5219159999999999,-0.354464
2019-03-21T14:26:17.023297Z,-1.985079,0.495684,-0.488969
2019-03-21T14:26:17.222297Z,-2.073092,0.888632,0.097742
2019-03-21T14:26:17.421297Z,-2.0419240000000003,-0.9287040000000001,2.2350630000000002
2019-03-21T14:26:17.620297Z,-0.660798,-1.061029,-0.6495449999999999
2019-03-21T14:26:17.819297Z,-1.596144,0.06578200000000001,-0.036937
2019-03-21T14:26:18.018297Z,-0.850994,0.699469,0.100749
2019-03-21T14:26:18.217297Z,-0.542747,0.8177260000000001,0.645072
2019-03-21T14:26:18.416297Z,-1.324666,-0.6892,0.09375700000000001
2019-03-21T14:26:18.616297Z,-1.8151009999999999,-0.733593,-0.250751
2019-03-21T14:26:18.815297Z,-1.42297,0.266417,0.11782100000000001
2019-03-21T14:26:19.014297Z,-2.17593,-0.384289,0.069342
2019-03-21T14:26:19.213297Z,-1.854655,-0.086299,0.025969
2019-03-21T14:26:19.412297Z,-1.2784790000000001,0.0891,0.224361
2019-03-21T14:26:19.628297Z,-0.965124,-0.154384,0.43803500000000006
2019-03-21T14:26:19.809297Z,-0.9311459999999999,-0.216423,-0.731544
2019-03-21T14:26:20.008297Z,-0.7824949999999999,0.07244500000000001,0.645953
2019-03-21T14:26:20.207297Z,-0.574164,0.423494,-0.0931
2019-03-21T14:26:20.406297Z,-0.771374,0.168328,0.00042699999999999997
2019-03-21T14:26:20.606297Z,-0.684905,0.07448300000000001,0.074792
2019-03-21T14:26:20.805297Z,-0.309935,-0.08355499999999999,-0.18190499999999998
2019-03-21T14:26:21.004297Z,0.111104,-0.130251,0.10363199999999999
2019-03-21T14:26:21.203297Z,0.724954,-0.02111,0.783752
2019-03-21T14:26:21.402297Z,0.476786,-0.125675,-0.450704
2019-03-21T14:26:21.601297Z,1.2805959999999998,0.799266,-0.265998
2019-03-21T14:26:21.800297Z,0.158745,-0.047268,0.5483180000000001
2019-03-21T14:26:21.999297Z,0.112577,-0.343089,-0.021636000000000002
2019-03-21T14:26:22.198297Z,-0.23903000000000002,0.192169,-0.580451
2019-03-21T14:26:22.397297Z,-0.511905,1.2357850000000001,-0.289721
2019-03-21T14:26:22.596297Z,-0.575946,1.394867,-0.12700699999999998
2019-03-21T14:26:22.795297Z,0.025735,-0.982791,0.475092
2019-03-21T14:26:22.994297Z,1.5307959999999998,-0.88307,-0.004176
2019-03-21T14:26:23.193297Z,0.46478800000000003,-0.42250699999999997,0.509888
2019-03-21T14:26:23.392297Z,0.724796,-0.008935,0.677755
2019-03-21T14:26:23.591297Z,0.182474,-1.357341,0.581136
2019-03-21T14:26:23.790297Z,-0.733428,-0.68002,0.00892
2019-03-21T14:26:23.989297Z,-0.186647,-0.011133,0.026231
2019-03-21T14:26:24.188297Z,-1.188246,0.233765,0.569403
2019-03-21T14:26:24.387297Z,-1.365105,0.725204,-1.108139
2019-03-21T14:26:24.586297Z,-1.4909370000000002,0.651856,-0.477233
2019-03-21T14:26:24.785297Z,-1.7319060000000002,0.841674,-0.252357
2019-03-21T14:26:24.986297Z,-1.602436,0.624903,-0.156121
2019-03-21T14:26:25.184297Z,-0.313894,0.738328,-0.352035
2019-03-21T14:26:25.382297Z,-0.714701,1.258993,-0.713762
2019-03-21T14:26:25.581297Z,-0.427897,1.889291,-0.671064
2019-03-21T14:26:25.780297Z,-1.064946,1.407909,0.818166
2019-03-21T14:26:25.980297Z,-0.680858,0.400244,-1.101248
2019-03-21T14:26:26.178297Z,-1.402654,1.084502,-1.005888
2019-03-21T14:26:26.377297Z,-2.999743,1.893647,-0.557158
2019-03-21T14:26:26.577297Z,-2.807631,2.0121740000000004,0.161454
2019-03-21T14:26:26.775297Z,-2.09972,-0.8630969999999999,0.19653900000000002
2019-03-21T14:26:26.975297Z,-1.590913,0.935893,-0.060707000000000004
2019-03-21T14:26:27.174297Z,-2.886061,0.440197,0.040651
2019-03-21T14:26:27.373297Z,-0.425754,1.476269,-0.23139899999999997
2019-03-21T14:26:27.572297Z,-0.194307,0.679451,-0.072255
2019-03-21T14:26:27.771297Z,-0.591348,0.8764569999999999,0.075447
2019-03-21T14:26:27.970297Z,-1.683183,1.368442,-0.42462700000000003
2019-03-21T14:26:28.721297Z,0.0,0.0,0.0
2019-03-21T14:26:28.921297Z,-0.194358,-0.16203,-0.079039
2019-03-21T14:26:29.119297Z,-0.432317,-0.079363,-0.071301
2019-03-21T14:26:29.327297Z,-0.45733,0.002228,0.012804
2019-03-21T14:26:29.540297Z,-0.603426,-0.035755,-0.11549300000000001
2019-03-21T14:26:29.716297Z,-0.43002700000000005,0.084578,-0.053489999999999996
2019-03-21T14:26:29.915297Z,-0.358505,0.049904000000000004,-0.062782
2019-03-21T14:26:30.114297Z,-0.203837,0.074211,-0.014072999999999999
2019-03-21T14:26:30.312297Z,-0.060964,-0.030024000000000002,0.0172
2019-03-21T14:26:30.511297Z,-0.017064,0.032507999999999995,-0.09689299999999999
2019-03-21T14:26:30.711297Z,-0.8716709999999999,-0.058234,-0.30178499999999997
2019-03-21T14:26:30.909297Z,-1.156874,0.17803,-0.28915
2019-03-21T14:26:31.108297Z,-0.6103729999999999,0.202498,0.457521
2019-03-21T14:26:31.307297Z,-1.249023,-0.167329,0.233704
2019-03-21T14:26:31.506297Z,0.41756400000000005,-0.301613,-0.23427699999999999
2019-03-21T14:26:31.707297Z,0.043838999999999996,-0.081816,-0.016725999999999998
2019-03-21T14:26:32.014297Z,1.0384520000000002,1.25336,0.354586
2019-03-21T14:26:32.213297Z,0.317496,-0.564997,1.565599
2019-03-21T14:26:32.412297Z,-1.531279,-2.8491869999999997,1.072476
2019-03-21T14:26:32.611297Z,0.207511,0.18065499999999998,-1.919878
2019-03-21T14:26:32.810297Z,-0.312102,1.609624,-0.46402899999999997
2019-03-21T14:26:33.009297Z,0.44633900000000004,0.526265,0.096777
2019-03-21T14:26:33.208297Z,0.648921,-0.373781,-0.308911
2019-03-21T14:26:33.407297Z,0.123993,0.9762799999999999,-0.040726
2019-03-21T14:26:33.606297Z,0.284039,1.578859,-0.626141
2019-03-21T14:26:33.805297Z,0.350075,1.2603440000000001,-1.139002
2019-03-21T14:26:34.030297Z,0.46448199999999995,1.576376,-0.34913299999999997
2019-03-21T14:26:34.214297Z,0.372965,2.026888,-0.157503
2019-03-21T14:26:34.401297Z,-0.132008,2.0198720000000003,-1.258669
2019-03-21T14:26:34.601297Z,-0.186594,1.928498,-0.30874
2019-03-21T14:26:34.799297Z,-0.152951,1.988111,-1.0533549999999998
2019-03-21T14:26:34.999297Z,-0.17029,1.8868599999999998,-0.953434
2019-03-21T14:26:35.197297Z,0.446975,2.005617,0.17944100000000002
2019-03-21T14:26:35.396297Z,0.040842,1.621371,-0.6847409999999999
2019-03-21T14:26:35.595297Z,0.31796199999999997,1.524735,-0.347855
2019-03-21T14:26:35.794297Z,1.2593,1.282171,0.108852
2019-03-21T14:26:35.993297Z,1.619885,1.611233,-1.0343930000000001
2019-03-21T14:26:36.192297Z,1.5561399999999999,2.098746,-1.432352
2019-03-21T14:26:36.391297Z,1.430872,2.437607,-0.285206
2019-03-21T14:26:36.590297Z,0.44873100000000005,-1.19644,1.5134290000000001
2019-03-21T14:26:36.809297Z,0.786621,-0.439377,-0.900186
2019-03-21T14:26:37.043297Z,0.5297270000000001,0.773522,0.1256
2019-03-21T14:26:37.241297Z,1.11801,1.65803,-0.573326
2019-03-21T14:26:37.440297Z,0.878534,1.873255,-0.670741
2019-03-21T14:26:37.640297Z,0.7106180000000001,1.809286,-0.07502400000000001
2019-03-21T14:26:37.839297Z,0.957526,0.317498,0.530993
2019-03-21T14:26:38.038297Z,1.2709219999999999,1.2102680000000001,-0.8617319999999999
2019-03-21T14:26:38.237297Z,1.17541,0.8916459999999999,0.32888
2019-03-21T14:26:38.435297Z,2.343449,0.26952,0.672025
2019-03-21T14:26:38.648297Z,2.837047,0.297743,0.9125770000000001
2019-03-21T14:26:38.833297Z,2.477247,0.532625,0.5974649999999999
2019-03-21T14:26:39.033297Z,1.9866139999999999,0.544395,0.781213
2019-03-21T14:26:39.231297Z,2.065851,0.33822399999999997,0.678226
2019-03-21T14:26:39.430297Z,1.1904540000000001,0.238723,0.34991700000000003
2019-03-21T14:26:39.640297Z,0.701965,0.41812299999999997,0.076274
2019-03-21T14:26:39.829297Z,0.492986,0.22102800000000003,0.112277
2019-03-21T14:26:40.039297Z,0.423788,0.125888,0.019819
2019-03-21T14:26:40.240297Z,1.0427950000000001,0.121302,-0.171356
2019-03-21T14:26:40.529297Z,0.663038,0.786211,-1.067339
2019-03-21T14:26:40.728297Z,0.772045,1.308003,-0.217547
2019-03-21T14:26:40.928297Z,0.871289,-0.48190500000000003,1.8306349999999998
2019-03-21T14:26:41.126297Z,0.6270439999999999,-1.053238,-0.893592
2019-03-21T14:26:41.325297Z,0.7925399999999999,-0.31405500000000003,-0.186668
2019-03-21T14:26:41.524297Z,0.9786389999999999,0.745931,-0.316894
2019-03-21T14:26:41.722297Z,0.954845,0.365101,2.225747
2019-03-21T14:26:41.922297Z,2.851703,-0.046976,0.32762199999999997
2019-03-21T14:26:42.121297Z,0.8414780000000001,0.446683,-0.061073
2019-03-21T14:26:42.319297Z,1.6898060000000001,0.187723,0.314279
2019-03-21T14:26:42.518297Z,3.365334,1.3672959999999998,0.10041
2019-03-21T14:26:42.717297Z,1.409529,1.100057,-1.7737470000000002
2019-03-21T14:26:42.916297Z,0.071961,1.878577,-0.070779
2019-03-21T14:26:43.115297Z,0.230458,-0.13139800000000001,-0.5873689999999999
2019-03-21T14:26:43.314297Z,0.026026,0.602696,-1.3027
2019-03-21T14:26:43.514297Z,-0.636447,1.759025,-1.0076690000000001
2019-03-21T14:26:43.712297Z,-0.102452,2.187121,0.9651280000000001
2019-03-21T14:26:43.911297Z,-0.905433,1.0078790000000002,-2.2982400000000003
2019-03-21T14:26:44.110297Z,-0.531008,2.474565,-1.824761
2019-03-21T14:26:44.309297Z,-1.479719,2.821627,-0.13000599999999998
2019-03-21T14:26:44.508297Z,-0.730796,1.1133600000000001,-0.43089700000000003
2019-03-21T14:26:44.706297Z,-0.06590599999999999,0.730824,-0.589832
2019-03-21T14:26:44.923297Z,0.31937600000000005,1.34128,0.547381
2019-03-21T14:26:45.105297Z,-0.921259,0.9061799999999999,-0.080246
2019-03-21T14:26:45.328297Z,-0.750512,0.655805,-0.709014
2019-03-21T14:26:45.567297Z,-0.693666,0.795844,-0.146756
2019-03-21T14:26:45.766297Z,-0.372239,0.7418170000000001,-0.361896
2019-03-21T14:26:45.964297Z,-0.153934,0.315746,-0.39361599999999997
2019-03-21T14:26:46.163297Z,-0.19539700000000002,0.7777109999999999,-0.05450599999999999
2019-03-21T14:26:46.363297Z,0.145766,0.72785,-0.225858
2019-03-21T14:26:46.561297Z,-0.25998000000000004,1.047743,-0.662099
2019-03-21T14:26:46.760297Z,0.066865,1.124206,-0.42005699999999996
2019-03-21T14:26:46.959297Z,0.203307,0.791787,0.257839
2019-03-21T14:26:47.159297Z,0.13713699999999998,0.005482,-0.364921
2019-03-21T14:26:47.357297Z,-1.260941,-0.09383999999999999,-0.346961
2019-03-21T14:26:47.556297Z,-1.345582,0.417125,-0.225502
2019-03-21T14:26:47.755297Z,-1.823393,0.837327,-0.550158
2019-03-21T14:26:47.953297Z,-2.066065,1.61446,0.10444400000000001
2019-03-21T14:26:48.152297Z,-1.430187,-0.245169,0.590808
2019-03-21T14:26:48.351297Z,-0.8477040000000001,1.1219700000000001,-0.885616
2019-03-21T14:26:48.550297Z,-0.198631,0.523709,-0.569588
2019-03-21T14:26:48.762297Z,2.085032,1.7319779999999998,-1.334332
2019-03-21T14:26:49.069297Z,1.662826,2.4134599999999997,-0.660088
2019-03-21T14:26:49.267297Z,-0.198097,2.371614,-1.390236
2019-03-21T14:26:49.465297Z,0.40555399999999997,3.265947,-0.9795
2019-03-21T14:26:49.664297Z,0.562401,2.931861,-2.420905
2019-03-21T14:26:49.864297Z,0.42763100000000004,3.407001,-1.447492
2019-03-21T14:26:50.062297Z,-0.731985,2.707131,-0.279897
2019-03-21T14:26:50.262297Z,-0.500196,2.239077,-1.282461
2019-03-21T14:26:50.460297Z,-0.373055,1.9693490000000002,-1.558851
2019-03-21T14:26:50.659297Z,-0.032151,2.1722349999999997,-1.370616
2019-03-21T14:26:50.858297Z,0.392349,1.113054,1.3077530000000002
2019-03-21T14:26:51.057297Z,0.48917200000000005,-1.209902,1.358142
2019-03-21T14:26:51.255297Z,1.281963,-0.874592,0.591475
2019-03-21T14:26:51.454297Z,1.0893110000000001,0.278982,0.10851300000000001
2019-03-21T14:26:51.654297Z,0.13916199999999998,0.651061,-0.5131859999999999
2019-03-21T14:26:51.852297Z,0.502042,0.709754,1.542508
2019-03-21T14:26:52.072297Z,0.659691,0.5000560000000001,-1.856687
2019-03-21T14:26:52.280297Z,0.189679,1.479155,-0.9497399999999999
2019-03-21T14:26:52.451297Z,0.5175069999999999,1.41946,-0.349691
2019-03-21T14:26:52.648297Z,0.139302,1.033097,-0.7184619999999999
2019-03-21T14:26:52.847297Z,0.8296049999999999,1.524338,-1.1612149999999999
2019-03-21T14:26:53.045297Z,0.172424,1.317445,-0.7984899999999999
2019-03-21T14:26:53.244297Z,0.804367,1.551641,-1.020302
2019-03-21T14:26:53.443297Z,0.346508,1.49889,-1.233932
2019-03-21T14:26:53.642297Z,0.514476,1.752853,-0.336365
2019-03-21T14:26:53.842297Z,-0.7461909999999999,0.409753,-0.874159
2019-03-21T14:26:54.090297Z,-0.345354,0.7822060000000001,-0.36175799999999997
2019-03-21T14:26:54.291297Z,-0.34010300000000004,1.772331,-0.529209
2019-03-21T14:26:54.487297Z,-0.890216,1.0152079999999999,-0.515879
2019-03-21T14:26:54.685297Z,-0.40773000000000004,1.212697,-0.545281
2019-03-21T14:26:54.884297Z,-0.378158,1.250859,-0.80696
2019-03-21T14:26:55.084297Z,0.151555,1.585228,-0.969728
2019-03-21T14:26:55.282297Z,0.186114,1.6467880000000001,-0.8417450000000001
2019-03-21T14:26:55.481297Z,0.6332979999999999,1.647527,-1.163948
2019-03-21T14:26:55.680297Z,0.5836720000000001,1.411046,-0.809287
2019-03-21T14:26:55.879297Z,0.355487,0.966023,0.873862
2019-03-21T14:26:56.078297Z,0.152542,0.171479,-0.779993
2019-03-21T14:26:56.277297Z,-0.8737299999999999,-0.32014499999999996,0.586009
2019-03-21T14:26:56.476297Z,-1.004329,-0.23521999999999998,0.46298
2019-03-21T14:26:56.674297Z,-1.088363,-0.942466,0.815705
2019-03-21T14:26:56.873297Z,-0.08141799999999999,-1.062492,0.711505
2019-03-21T14:26:57.072297Z,0.037377999999999995,-0.771989,0.924884
2019-03-21T14:26:57.293297Z,0.14310599999999998,-0.658321,0.693292
2019-03-21T14:26:57.579297Z,0.401476,-0.421408,0.40375500000000003
2019-03-21T14:26:57.779297Z,1.038767,-0.066611,0.472213
2019-03-21T14:26:57.977297Z,0.615731,-0.637965,0.164328
2019-03-21T14:26:58.176297Z,1.286475,0.762473,-0.129179
2019-03-21T14:26:58.375297Z,0.839736,0.075943,1.229286
2019-03-21T14:26:58.574297Z,0.566017,-1.8296720000000002,1.50118
2019-03-21T14:26:58.773297Z,0.281976,-2.302796,0.18155
2019-03-21T14:26:58.972297Z,0.115656,-0.621326,0.652718
2019-03-21T14:26:59.171297Z,0.348261,-0.086002,-0.021498
2019-03-21T14:26:59.369297Z,2.008593,-0.293236,1.270316
2019-03-21T14:26:59.568297Z,2.2237970000000002,-0.322675,-0.610636
2019-03-21T14:26:59.767297Z,2.200088,0.9968940000000001,-0.283093
2019-03-21T14:26:59.966297Z,1.063519,0.6504989999999999,-0.080821
2019-03-21T14:27:00.165297Z,1.267874,0.608174,-0.198006
2019-03-21T14:27:00.363297Z,0.042851,-0.675872,0.312409
2019-03-21T14:27:00.562297Z,1.056184,-0.48851700000000003,-0.36451100000000003
2019-03-21T14:27:00.762297Z,0.544189,0.171308,0.6468659999999999
2019-03-21T14:27:00.960297Z,0.198132,0.640137,-0.050582
2019-03-21T14:27:01.159297Z,0.8386629999999999,0.999914,-0.426842
2019-03-21T14:27:01.372297Z,1.033514,0.732733,0.317184
2019-03-21T14:27:01.557297Z,0.9174379999999999,0.691735,0.224016
2019-03-21T14:27:01.755297Z,0.566317,1.230696,-0.5489890000000001
2019-03-21T14:27:01.955297Z,0.403379,0.783904,-0.387544
2019-03-21T14:27:02.153297Z,-0.060065,0.790273,-1.195191
2019-03-21T14:27:02.352297Z,-0.24313400000000002,1.17416,-0.17743299999999998
2019-03-21T14:27:02.551297Z,-0.464315,-0.481936,1.9573200000000002
2019-03-21T14:27:02.750297Z,-0.522469,-1.3285719999999999,0.08302000000000001
2019-03-21T14:27:02.949297Z,0.812666,0.642096,-0.445141
2019-03-21T14:27:03.148297Z,0.32378,0.25179,-0.161228
2019-03-21T14:27:03.346297Z,-0.905925,-0.018193,0.706734
2019-03-21T14:27:03.545297Z,0.058199,-0.429429,0.287876
2019-03-21T14:27:03.744297Z,-0.277935,-0.6137630000000001,0.247493
2019-03-21T14:27:03.943297Z,-0.185927,0.125196,0.741172
2019-03-21T14:27:04.142297Z,-1.7341790000000001,-0.859093,0.86449
2019-03-21T14:27:04.341297Z,-1.53341,-0.6872119999999999,0.737716
2019-03-21T14:27:04.539297Z,-1.1912260000000001,-0.335283,0.565547
2019-03-21T14:27:04.761297Z,-1.374757,-0.47495200000000004,0.288486
2019-03-21T14:27:04.938297Z,-0.948633,0.18478699999999998,0.8260709999999999
2019-03-21T14:27:05.136297Z,-0.7448359999999999,-0.042962,0.15273299999999998
2019-03-21T14:27:05.335297Z,-0.559304,0.128436,-0.225352
2019-03-21T14:27:05.534297Z,-0.9745450000000001,0.517433,0.122129
2019-03-21T14:27:05.732297Z,-0.9456120000000001,0.553026,-0.252035
2019-03-21T14:27:05.931297Z,-1.519893,-0.126055,0.30352199999999996
2019-03-21T14:27:06.130297Z,-1.222752,-1.2674969999999999,-0.5194310000000001
2019-03-21T14:27:06.329297Z,-1.65212,-1.257357,0.392203
2019-03-21T14:27:06.528297Z,-1.112574,-0.051727999999999996,-0.153846
2019-03-21T14:27:06.730297Z,-0.6564439999999999,0.283001,0.697633
2019-03-21T14:27:06.925297Z,-0.796798,0.590529,0.249227
2019-03-21T14:27:07.125297Z,-0.964852,-0.450824,-0.17039
2019-03-21T14:27:07.323297Z,-0.24285700000000002,0.096092,-0.178396
2019-03-21T14:27:07.522297Z,-0.856145,0.372105,-0.045056
2019-03-21T14:27:07.720297Z,0.14464000000000002,0.62183,0.24876199999999998
2019-03-21T14:27:07.919297Z,0.026913999999999997,0.42134499999999997,-0.19656700000000002
2019-03-21T14:27:08.131297Z,-0.377643,1.095927,-0.677233
2019-03-21T14:27:08.317297Z,-0.9154100000000001,1.083294,-0.087564
2019-03-21T14:27:08.516297Z,-1.296354,0.7915909999999999,-0.14790799999999998
2019-03-21T14:27:08.715297Z,-1.1351200000000001,1.015326,-0.397079
2019-03-21T14:27:08.913297Z,-0.8577620000000001,0.624178,-0.450805
2019-03-21T14:27:09.113297Z,-0.44941800000000004,0.387115,0.003896
2019-03-21T14:27:09.311297Z,0.689605,0.817058,-0.203795
2019-03-21T14:27:09.510297Z,-0.558303,0.493249,-0.839563
2019-03-21T14:27:09.709297Z,-0.315344,1.412453,0.476207
2019-03-21T14:27:09.907297Z,1.202023,0.25735,1.6595229999999999
2019-03-21T14:27:10.106297Z,1.0134450000000002,-0.14394200000000001,-1.0169139999999999
2019-03-21T14:27:10.305297Z,-0.523505,-0.359084,-0.196766
2019-03-21T14:27:10.505297Z,-0.654795,0.615963,-0.37750900000000004
2019-03-21T14:27:10.703297Z,-0.58586,0.9436760000000001,-0.018798
2019-03-21T14:27:10.902297Z,-0.009609,-0.8871040000000001,-0.22880999999999999
2019-03-21T14:27:11.100297Z,-0.079426,0.059017999999999994,0.21709499999999998
2019-03-21T14:27:11.299297Z,-0.604221,-0.079576,-0.091458
2019-03-21T14:27:11.498297Z,0.518894,0.42033999999999994,0.743055
2019-03-21T14:27:11.697297Z,0.47785500000000003,-0.26272399999999996,0.6369
2019-03-21T14:27:11.896297Z,-0.586076,-1.52207,0.528321
2019-03-21T14:27:12.095297Z,-0.384823,-0.481146,0.383168
2019-03-21T14:27:12.293297Z,-0.015822,-0.371112,-0.126654
2019-03-21T14:27:12.492297Z,-0.354522,-0.286148,-0.23262800000000003
2019-03-21T14:27:12.691297Z,-0.28483200000000003,-0.192657,0.167889
2019-03-21T14:27:12.890297Z,0.500212,0.109205,-0.17231
2019-03-21T14:27:13.090297Z,0.611484,0.24047600000000002,0.255123
2019-03-21T14:27:13.288297Z,0.957247,0.156384,-0.229598
2019-03-21T14:27:13.486297Z,0.397855,-0.41206000000000004,0.7325020000000001
2019-03-21T14:27:13.685297Z,1.910119,1.240995,-0.833044
2019-03-21T14:27:13.884297Z,2.233315,1.6398150000000002,-0.969325
2019-03-21T14:27:14.082297Z,1.3168879999999998,2.0916770000000002,0.321048
2019-03-21T14:27:14.281297Z,0.793067,-2.393173,0.975699
2019-03-21T14:27:14.481297Z,1.747885,-0.640215,-0.189419
2019-03-21T14:27:14.679297Z,0.837241,0.684937,-0.41625200000000007
2019-03-21T14:27:14.878297Z,0.49886800000000003,1.136915,-1.034374
2019-03-21T14:27:15.077297Z,-0.420579,1.1720760000000001,0.9817600000000001
2019-03-21T14:27:15.275297Z,0.215429,0.513562,-0.342004
2019-03-21T14:27:15.474297Z,0.773804,0.7607,-0.793253
2019-03-21T14:27:15.673297Z,0.051498,1.0228540000000002,-0.142202
2019-03-21T14:27:15.883297Z,1.707746,0.589541,-0.087125
2019-03-21T14:27:16.070297Z,1.544546,-0.317388,-0.023983
2019-03-21T14:27:16.269297Z,1.425424,0.104228,0.021389
2019-03-21T14:27:16.468297Z,2.1355009999999996,0.33074499999999996,-0.5336850000000001
2019-03-21T14:27:16.667297Z,1.932393,0.747368,-0.428545
2019-03-21T14:27:16.866297Z,2.4898580000000003,1.3503040000000002,-1.088306
2019-03-21T14:27:17.065297Z,2.894225,3.113009,1.026752
2019-03-21T14:27:17.263297Z,1.919963,1.644968,1.489367
2019-03-21T14:27:17.462297Z,0.133652,1.7600919999999998,2.284807
2019-03-21T14:27:17.660297Z,1.8498869999999998,-0.675355,0.224825
2019-03-21T14:27:17.859297Z,2.005457,0.14876199999999998,-2.32198
2019-03-21T14:27:18.058297Z,0.98754,1.752013,-1.40724
2019-03-21T14:27:18.257297Z,1.4923959999999998,1.828512,-0.490026
2019-03-21T14:27:18.456297Z,1.6778490000000001,-0.373737,1.280198
2019-03-21T14:27:18.655297Z,0.914982,-0.558636,0.08893200000000001
2019-03-21T14:27:18.854297Z,0.727596,-0.647308,0.648103
2019-03-21T14:27:19.052297Z,1.2750350000000001,-0.0045579999999999996,0.928874
2019-03-21T14:27:19.253297Z,1.675084,-0.928981,1.0320610000000001
2019-03-21T14:27:19.450297Z,0.5728989999999999,-2.08302,1.8112669999999997
2019-03-21T14:27:19.648297Z,1.015219,-1.3282479999999999,1.777554
2019-03-21T14:27:19.848297Z,0.861293,-1.2817100000000001,0.527447
2019-03-21T14:27:20.046297Z,0.755595,-0.802525,1.146534
2019-03-21T14:27:20.245297Z,0.626011,-0.796188,0.9500549999999999
2019-03-21T14:27:20.444297Z,2.746064,0.174024,-0.192247
2019-03-21T14:27:20.642297Z,2.862373,0.5573140000000001,0.092064
2019-03-21T14:27:20.841297Z,1.4204709999999998,-0.08236900000000001,0.50147
2019-03-21T14:27:21.040297Z,1.8029220000000001,-0.17133099999999998,2.255684
2019-03-21T14:27:21.239297Z,1.17874,-2.611754,0.122681
2019-03-21T14:27:21.438297Z,0.46131099999999997,-2.242348,1.011202
2019-03-21T14:27:21.637297Z,0.36740500000000004,-1.319697,1.173403
2019-03-21T14:27:21.835297Z,0.585184,-0.336617,0.638468
2019-03-21T14:27:22.034297Z,1.27686,-0.359097,1.040043
2019-03-21T14:27:22.233297Z,0.92542,-2.0683529999999997,1.548041
2019-03-21T14:27:22.432297Z,4.995652,4.128222,-0.9717399999999999
2019-03-21T14:27:22.630297Z,1.529151,3.163319,0.072274
2019-03-21T14:27:22.829297Z,-0.250823,2.930452,0.217075
2019-03-21T14:27:23.028297Z,-2.625257,2.228646,-0.25706799999999996
2019-03-21T14:27:23.227297Z,-2.112587,2.338525,-0.590569
2019-03-21T14:27:23.426297Z,-1.003354,2.569077,-1.4047180000000001
2019-03-21T14:27:23.624297Z,-1.134757,2.13882,-1.1453229999999999
2019-03-21T14:27:23.823297Z,-1.558993,2.064157,-1.03682
2019-03-21T14:27:24.022297Z,-0.654752,1.496828,0.039039
2019-03-21T14:27:24.220297Z,-0.472866,1.8362150000000002,0.28662
2019-03-21T14:27:24.419297Z,-0.241864,2.336849,-0.863676
2019-03-21T14:27:24.618297Z,-1.728329,1.653836,-1.212616
2019-03-21T14:27:24.816297Z,-0.8215180000000001,2.027302,-1.706738
2019-03-21T14:27:25.015297Z,-1.255723,1.114576,0.45980600000000005
2019-03-21T14:27:25.214297Z,-0.907032,-0.10766500000000001,-0.144293
2019-03-21T14:27:25.413297Z,-1.650836,-0.674612,0.847442
2019-03-21T14:27:25.612297Z,-0.869748,0.374803,-0.486046
2019-03-21T14:27:25.812297Z,0.916132,0.166035,-0.669752
2019-03-21T14:27:26.024297Z,1.716074,-0.225377,1.061243
2019-03-21T14:27:26.208297Z,1.608538,0.103498,-0.042009
2019-03-21T14:27:26.408297Z,1.562768,0.33219299999999996,0.11375999999999999
2019-03-21T14:27:26.606297Z,1.457701,0.6200359999999999,-0.309584
2019-03-21T14:27:26.804297Z,1.669429,1.0624959999999999,-0.273457
2019-03-21T14:27:27.003297Z,0.73253,-0.029331,2.648776
2019-03-21T14:27:27.202297Z,0.615685,-0.23181,-1.028511
2019-03-21T14:27:27.401297Z,0.40089,1.093639,-0.9674659999999999
2019-03-21T14:27:27.600297Z,-0.26323,1.369501,-1.044375
2019-03-21T14:27:27.798297Z,0.17297300000000002,2.15274,-0.468904
2019-03-21T14:27:27.997297Z,-0.31872399999999995,-0.810303,1.25064
2019-03-21T14:27:28.196297Z,-0.651428,0.14749400000000001,-0.798635
2019-03-21T14:27:28.415297Z,0.108384,0.899508,0.36251700000000003
2019-03-21T14:27:28.615297Z,0.23912199999999997,0.19963399999999998,-0.203283
2019-03-21T14:27:28.793297Z,0.305815,0.38934,0.160066
2019-03-21T14:27:28.992297Z,-0.470771,-0.018489,-0.19281199999999998
2019-03-21T14:27:29.190297Z,-1.058085,0.7550979999999999,-0.680473
2019-03-21T14:27:29.389297Z,-0.492225,1.993742,-0.897275
2019-03-21T14:27:29.587297Z,-0.81968,1.298029,0.134172
2019-03-21T14:27:29.786297Z,0.8434370000000001,-0.43667,0.065165
2019-03-21T14:27:29.985297Z,1.111416,-0.868189,0.137506
2019-03-21T14:27:30.183297Z,-0.277289,-1.044271,0.611288
2019-03-21T14:27:30.382297Z,0.586759,-0.505832,1.4102700000000001
2019-03-21T14:27:30.581297Z,-0.37172,-2.258461,0.247322
2019-03-21T14:27:30.780297Z,-0.9479059999999999,-1.623757,0.7815529999999999
2019-03-21T14:27:30.980297Z,-0.486121,-0.550908,0.670764
2019-03-21T14:27:31.181297Z,-0.421249,-0.29089499999999996,-0.708271
2019-03-21T14:27:31.376297Z,-0.084638,-0.394741,-0.684238
2019-03-21T14:27:31.575297Z,0.417991,-0.746199,0.27571
2019-03-21T14:27:31.774297Z,1.7007860000000001,-0.748117,0.485013
2019-03-21T14:27:31.972297Z,1.625536,0.215425,0.288618
2019-03-21T14:27:32.171297Z,1.194544,0.1259,1.097193
2019-03-21T14:27:32.370297Z,1.1472,-0.156863,1.880395
2019-03-21T14:27:32.568297Z,1.2091450000000001,-0.5684359999999999,0.026652
2019-03-21T14:27:32.767297Z,-0.055796000000000005,0.398823,-1.55815
2019-03-21T14:27:32.966297Z,-0.047899000000000004,1.6633509999999998,-0.20013
2019-03-21T14:27:33.164297Z,0.252735,1.405512,0.81743
2019-03-21T14:27:33.364297Z,0.785732,-0.8111619999999999,0.753414
2019-03-21T14:27:33.562297Z,-0.480756,-0.148047,0.37648400000000004
2019-03-21T14:27:33.761297Z,-0.042175,0.265011,0.18093099999999998
2019-03-21T14:27:33.960297Z,-0.14188699999999999,0.035660000000000004,0.145209
2019-03-21T14:27:34.159297Z,-0.533833,0.299662,0.001523
2019-03-21T14:27:34.371297Z,-0.357515,0.750125,0.8051020000000001
2019-03-21T14:27:34.555297Z,-0.72165,0.10057100000000001,0.19991099999999998
2019-03-21T14:27:34.755297Z,-0.302228,0.325907,-0.29393600000000003
2019-03-21T14:27:34.953297Z,0.504104,0.723014,-0.927451
2019-03-21T14:27:35.152297Z,-1.0511549999999998,0.8503139999999999,-0.477009
2019-03-21T14:27:35.351297Z,-0.440931,0.691868,1.6809
2019-03-21T14:27:35.549297Z,-1.0525579999999999,-1.9611310000000002,0.607258
2019-03-21T14:27:35.748297Z,0.112532,-2.1606799999999997,0.569175
2019-03-21T14:27:35.947297Z,-0.188937,-0.9341450000000001,0.092271
2019-03-21T14:27:36.145297Z,1.028938,-1.474075,2.479028
2019-03-21T14:27:36.344297Z,1.879134,-3.876936,5.580048000000001
2019-03-21T14:27:36.543297Z,3.931,-0.2133,0.28634499999999996
2019-03-21T14:27:36.742297Z,1.8490389999999999,-0.287446,-0.222415
2019-03-21T14:27:36.940297Z,-0.204067,0.47938800000000004,-1.0333510000000001
2019-03-21T14:27:37.139297Z,0.08026799999999999,0.702702,-0.455395
2019-03-21T14:27:37.358297Z,-0.566955,0.595582,-1.065972
2019-03-21T14:27:37.536297Z,0.31397800000000003,0.536061,-0.07334500000000001
2019-03-21T14:27:37.736297Z,0.6302270000000001,0.8686280000000001,-0.214254
2019-03-21T14:27:37.934297Z,0.877691,1.454009,-1.6184370000000001
2019-03-21T14:27:38.132297Z,0.39924699999999996,1.9786569999999999,-1.21298
2019-03-21T14:27:38.331297Z,1.2874860000000001,2.770927,-0.9370360000000001
2019-03-21T14:27:38.530297Z,0.124596,0.749154,1.274356
2019-03-21T14:27:38.728297Z,-3.353579,-0.8917719999999999,0.29081999999999997
2019-03-21T14:27:38.927297Z,-3.472346,-0.027126,-0.9954780000000001
2019-03-21T14:27:39.126297Z,-2.719023,1.9874599999999998,0.9975440000000001
2019-03-21T14:27:39.338297Z,-2.064771,2.143584,1.123286
2019-03-21T14:27:39.534297Z,-1.606178,-0.36082600000000004,0.390372
2019-03-21T14:27:39.722297Z,-1.024605,0.801473,-0.06500399999999999
2019-03-21T14:27:39.920297Z,-0.9453280000000001,1.100323,-0.8690450000000001
2019-03-21T14:27:40.120297Z,0.431964,1.8020650000000002,-0.27934000000000003
2019-03-21T14:27:40.318297Z,-2.4861869999999997,-1.754721,0.57406
2019-03-21T14:27:40.516297Z,-2.661613,-0.5568,0.685632
2019-03-21T14:27:40.716297Z,-0.178499,0.725114,1.720086
2019-03-21T14:27:40.914297Z,-1.7515889999999998,-0.359207,-1.3569309999999999
2019-03-21T14:27:41.112297Z,-1.401646,0.8462290000000001,-1.0680530000000001
2019-03-21T14:27:41.312297Z,-0.6927439999999999,0.12847999999999998,1.04595
2019-03-21T14:27:41.510297Z,-1.2398280000000002,0.7541479999999999,-2.183352
2019-03-21T14:27:41.732297Z,-1.656941,1.403222,-1.6659990000000002
2019-03-21T14:27:41.908297Z,-1.1348129999999998,1.280707,-0.099867
2019-03-21T14:27:42.106297Z,-1.608225,1.507015,-0.40871399999999997
2019-03-21T14:27:42.305297Z,-3.3881339999999995,1.548219,-0.577661
2019-03-21T14:27:42.504297Z,-1.2910620000000002,2.520755,0.251354
2019-03-21T14:27:42.702297Z,1.387284,1.700706,-1.6618240000000002
2019-03-21T14:27:42.901297Z,2.000626,2.694325,-1.4844870000000001
2019-03-21T14:27:43.100297Z,1.372494,2.803074,0.0065569999999999995
2019-03-21T14:27:43.298297Z,1.26563,1.17814,2.042549
2019-03-21T14:27:43.497297Z,1.5024540000000002,-0.649265,-0.102777
2019-03-21T14:27:43.696297Z,1.912865,0.543132,-0.837607
2019-03-21T14:27:43.894297Z,0.545968,1.188313,0.136045
2019-03-21T14:27:44.093297Z,1.888752,-0.287761,0.8248469999999999
2019-03-21T14:27:44.292297Z,0.063064,-0.395505,0.28999400000000003
2019-03-21T14:27:44.490297Z,1.173746,-0.648762,0.6452260000000001
2019-03-21T14:27:44.689297Z,0.435504,-0.913299,1.118723
2019-03-21T14:27:44.910297Z,0.11255799999999999,-0.275787,1.646866
2019-03-21T14:27:45.087297Z,0.32914499999999997,0.296511,0.35186799999999996
2019-03-21T14:27:45.285297Z,0.196961,0.026311,-0.295324
2019-03-21T14:27:45.484297Z,1.562656,1.578347,-0.654756
2019-03-21T14:27:45.683297Z,0.556121,1.385602,-0.682605
2019-03-21T14:27:45.881297Z,0.611025,0.9734940000000001,2.416011
2019-03-21T14:27:46.080297Z,-0.980613,-1.7572299999999998,-0.352287
2019-03-21T14:27:46.279297Z,-1.082624,-0.978318,-0.590799
2019-03-21T14:27:46.477297Z,0.760138,1.569952,0.33984899999999996
2019-03-21T14:27:46.676297Z,1.2343469999999999,1.001717,0.9572579999999999
2019-03-21T14:27:46.875297Z,0.748728,0.154343,-1.2043270000000001
2019-03-21T14:27:47.073297Z,-0.674619,1.747727,0.67637
2019-03-21T14:27:47.272297Z,-0.370735,0.704071,-0.10385
2019-03-21T14:27:47.471297Z,1.0547520000000001,0.9431440000000001,-1.391907
2019-03-21T14:27:47.670297Z,0.705051,1.014677,-0.632726
2019-03-21T14:27:47.870297Z,0.458682,1.008726,-1.093277
2019-03-21T14:27:48.067297Z,0.433037,1.2354610000000001,-1.081015
2019-03-21T14:27:48.266297Z,-1.2886309999999999,-0.044199,0.588942
2019-03-21T14:27:48.465297Z,-1.065954,-1.7846830000000002,1.338919
2019-03-21T14:27:48.663297Z,0.062801,-2.1800509999999997,-0.954485
2019-03-21T14:27:48.862297Z,2.06373,-3.8958559999999998,1.989312
2019-03-21T14:27:49.061297Z,0.426467,-2.919754,1.318851
2019-03-21T14:27:49.259297Z,1.807037,-2.5442560000000003,1.581987
2019-03-21T14:27:49.458297Z,1.919093,0.20729499999999998,0.5907479999999999
2019-03-21T14:27:49.656297Z,0.157135,0.18632200000000002,0.263494
2019-03-21T14:27:49.855297Z,0.5613060000000001,0.33036,-0.528904
2019-03-21T14:27:50.054297Z,1.060813,0.710481,1.078006
2019-03-21T14:27:50.253297Z,0.41302799999999995,1.860225,-1.794721
2019-03-21T14:27:50.451297Z,0.22687600000000002,2.478595,-0.11648399999999999
2019-03-21T14:27:50.650297Z,-0.221735,0.7214470000000001,1.674353
2019-03-21T14:27:50.849297Z,0.004448,-0.872029,-0.6477430000000001
2019-03-21T14:27:51.047297Z,-0.208261,0.146616,0.12579100000000001
2019-03-21T14:27:51.246297Z,-0.830675,1.1034709999999999,0.331733
2019-03-21T14:27:51.445297Z,-0.844959,0.6548149999999999,-0.519783
2019-03-21T14:27:51.644297Z,-1.896993,-1.7255619999999998,0.6218560000000001
2019-03-21T14:27:51.842297Z,-1.10611,-0.302085,-0.401592
2019-03-21T14:27:52.041297Z,-0.614283,-0.5118659999999999,-0.505273
2019-03-21T14:27:52.239297Z,-1.398996,-1.078389,0.173123
2019-03-21T14:27:52.438297Z,-0.97615,-0.6007899999999999,0.267313
2019-03-21T14:27:52.637297Z,-0.074564,-0.10638299999999999,0.649092
2019-03-21T14:27:52.835297Z,0.130926,0.18248699999999998,0.047425999999999996
2019-03-21T14:27:53.034297Z,1.423891,1.224481,0.481187
2019-03-21T14:27:53.233297Z,-1.586678,-0.695233,0.5974
2019-03-21T14:27:53.431297Z,-2.53709,-1.885257,2.142534
2019-03-21T14:27:53.630297Z,-0.860648,-1.620433,0.909749
2019-03-21T14:27:53.829297Z,-1.319067,-0.998202,-0.197748
2019-03-21T14:27:54.028297Z,-0.909911,-0.037922000000000004,-0.080106
2019-03-21T14:27:54.227297Z,-0.11508900000000001,-1.779109,1.39331
2019-03-21T14:27:54.425297Z,0.49326000000000003,-1.6557099999999998,-0.436622
2019-03-21T14:27:54.656297Z,1.305554,-1.029366,0.973116
2019-03-21T14:27:54.863297Z,0.78746,-1.379605,0.12470899999999999
2019-03-21T14:27:55.034297Z,0.065637,-1.074423,-2.148228
2019-03-21T14:27:55.219297Z,-0.639681,-0.98406,1.941798
2019-03-21T14:27:55.418297Z,-1.5346629999999999,-1.350797,2.528038
2019-03-21T14:27:55.617297Z,1.108295,-1.62345,0.665904
2019-03-21T14:27:55.815297Z,2.045757,-0.028831,-0.35229099999999997
2019-03-21T14:27:56.014297Z,1.032702,1.500016,-0.9866469999999999
2019-03-21T14:27:56.213297Z,-2.350701,0.63589,2.937744
2019-03-21T14:27:56.411297Z,-2.96104,-0.736772,0.668258
2019-03-21T14:27:56.610297Z,-1.180334,0.738699,-1.549647
2019-03-21T14:27:56.809297Z,-0.758788,1.742373,-0.065923
2019-03-21T14:27:57.007297Z,0.654617,0.017099,1.102636
2019-03-21T14:27:57.206297Z,0.8276389999999999,-0.365733,-0.8959219999999999
2019-03-21T14:27:57.405297Z,1.015734,0.92911,0.27510999999999997
2019-03-21T14:27:57.603297Z,0.871706,0.028907,0.6485609999999999
2019-03-21T14:27:57.802297Z,1.135468,0.17613499999999999,-1.485144
2019-03-21T14:27:58.047297Z,0.652892,0.216948,0.7381409999999999
2019-03-21T14:27:58.199297Z,0.8654059999999999,1.620578,-0.43259
2019-03-21T14:27:58.398297Z,0.610224,1.861518,-0.40425700000000003
2019-03-21T14:27:58.597297Z,0.024395,2.3351,-0.599999
2019-03-21T14:27:58.795297Z,-0.004913,1.350193,-1.8257849999999998
2019-03-21T14:27:58.994297Z,1.0611190000000001,2.5904529999999997,2.219875
2019-03-21T14:27:59.193297Z,0.322732,-0.42314700000000005,0.370456
2019-03-21T14:27:59.391297Z,-0.10551700000000001,-0.314663,-0.709148
2019-03-21T14:27:59.590297Z,-1.6996939999999998,0.8299,-2.394259
2019-03-21T14:27:59.789297Z,-1.499261,1.8183220000000002,-0.222848
2019-03-21T14:27:59.988297Z,-0.116094,-1.043863,-0.981309
2019-03-21T14:28:00.190297Z,-1.108117,-0.133248,1.298309
2019-03-21T14:28:00.385297Z,-1.057601,-0.264596,1.59071
2019-03-21T14:28:00.584297Z,-0.699397,0.00563,0.18538
2019-03-21T14:28:00.782297Z,-0.042677,-0.095637,-0.131004
2019-03-21T14:28:00.982297Z,1.040008,0.364485,0.22790100000000002
2019-03-21T14:28:01.179297Z,0.346951,0.525618,-0.972534
2019-03-21T14:28:01.378297Z,-0.259794,1.0117200000000002,0.5762229999999999
2019-03-21T14:28:01.577297Z,-0.35418299999999997,-0.278341,3.057816
2019-03-21T14:28:01.775297Z,-0.06879299999999999,-0.676419,-0.44751599999999997
2019-03-21T14:28:01.974297Z,-1.6968880000000002,-0.107108,-1.509136
2019-03-21T14:28:02.173297Z,-1.9921490000000002,0.939831,-0.291517
2019-03-21T14:28:02.371297Z,-1.107557,0.7034590000000001,2.136845
2019-03-21T14:28:02.570297Z,-1.812085,0.07522899999999999,-0.146297
2019-03-21T14:28:02.769297Z,-1.380174,0.351,0.26055900000000004
2019-03-21T14:28:02.967297Z,-0.707464,0.792383,0.3147
2019-03-21T14:28:03.166297Z,-0.04678,1.122633,-1.640695
2019-03-21T14:28:03.365297Z,-2.10983,0.178535,-0.902429
2019-03-21T14:28:03.563297Z,-1.833225,0.926544,0.198936
2019-03-21T14:28:03.762297Z,-1.153322,1.15654,-0.005841
2019-03-21T14:28:03.970297Z,-1.6299780000000001,1.214208,-1.171506
2019-03-21T14:28:04.159297Z,-0.991186,2.904012,-1.658795
2019-03-21T14:28:04.358297Z,-2.832782,1.351911,0.6639970000000001
2019-03-21T14:28:04.557297Z,-2.238106,1.9062259999999998,-0.25451399999999996
2019-03-21T14:28:04.755297Z,-1.595034,1.5203010000000001,-1.440433
2019-03-21T14:28:04.954297Z,-1.7591009999999998,2.094778,1.1119059999999998
2019-03-21T14:28:05.153297Z,-2.308408,-0.458133,1.025658
2019-03-21T14:28:05.351297Z,-2.227682,-0.949734,0.545365
2019-03-21T14:28:05.550297Z,-1.488228,-1.835834,0.802609
2019-03-21T14:28:05.749297Z,-2.617327,-1.385885,-1.191387
2019-03-21T14:28:05.947297Z,-3.03939,-0.5443,1.772056
2019-03-21T14:28:06.146297Z,-2.142697,-0.212365,0.47315
2019-03-21T14:28:06.346297Z,-3.17607,-1.475616,3.021979
2019-03-21T14:28:06.543297Z,0.5289119999999999,0.025761000000000003,-0.251395
2019-03-21T14:28:06.742297Z,-0.120777,0.985324,0.298086
2019-03-21T14:28:06.941297Z,-0.9965450000000001,0.6981539999999999,0.184178
2019-03-21T14:28:07.139297Z,-1.1501,-0.202692,0.413969
2019-03-21T14:28:07.338297Z,-1.506517,0.98261,-0.720673
2019-03-21T14:28:07.536297Z,-1.885766,0.864233,-0.505576
2019-03-21T14:28:07.735297Z,-2.126084,0.603139,0.098411
2019-03-21T14:28:07.934297Z,-1.9484810000000001,0.932386,0.434093
2019-03-21T14:28:08.133297Z,-1.5873899999999999,0.556144,0.250285
2019-03-21T14:28:08.331297Z,-0.610925,1.49016,-0.07972699999999999
2019-03-21T14:28:08.529297Z,0.091213,1.8590790000000001,0.703084
2019-03-21T14:28:08.729297Z,-3.8131489999999997,-1.017733,0.477862
2019-03-21T14:28:08.927297Z,-1.337027,-0.500213,1.2441360000000001
2019-03-21T14:28:09.125297Z,-0.236168,1.2053559999999999,0.252166
2019-03-21T14:28:09.324297Z,-1.255814,0.785987,-0.060001
2019-03-21T14:28:09.523297Z,-1.312828,-1.7204490000000001,1.644923
2019-03-21T14:28:09.722297Z,-0.321404,-0.484792,0.006848999999999999
2019-03-21T14:28:09.921297Z,-0.622704,-0.379375,0.990597
2019-03-21T14:28:10.119297Z,-0.170482,-0.556743,-0.163116
2019-03-21T14:28:10.317297Z,0.396473,0.250773,0.060278
2019-03-21T14:28:10.548297Z,-0.274248,0.223829,-0.7845340000000001
2019-03-21T14:28:10.727297Z,-1.206468,0.6520520000000001,-2.092279
2019-03-21T14:28:10.913297Z,-1.311148,0.48258,-0.420412
2019-03-21T14:28:11.112297Z,-1.388426,0.506498,0.8534280000000001
2019-03-21T14:28:11.310297Z,-0.698108,0.6232449999999999,0.159795
2019-03-21T14:28:11.509297Z,-0.499699,1.078306,-0.998682
2019-03-21T14:28:11.708297Z,0.152531,0.6740510000000001,0.9897100000000001
2019-03-21T14:28:11.906297Z,0.7011029999999999,-1.38616,0.279778
2019-03-21T14:28:12.105297Z,-0.349999,-1.255671,0.566236
2019-03-21T14:28:12.304297Z,0.520788,-0.506848,0.322327
2019-03-21T14:28:12.502297Z,0.281963,-0.065443,0.257475
2019-03-21T14:28:12.701297Z,1.3079370000000001,0.6149399999999999,0.478425
2019-03-21T14:28:12.900297Z,-0.393088,0.12156700000000001,0.9665799999999999
2019-03-21T14:28:13.098297Z,-0.001533,-0.106653,-0.094248
2019-03-21T14:28:13.297297Z,-0.33291,-0.17171199999999998,-1.317496
2019-03-21T14:28:13.496297Z,0.23672800000000002,0.590097,1.0129549999999998
2019-03-21T14:28:13.694297Z,-0.901689,0.768336,-0.314808
2019-03-21T14:28:13.913297Z,-0.9484100000000001,0.443767,-0.6127319999999999
2019-03-21T14:28:14.092297Z,-0.7452949999999999,0.628718,-0.678281
2019-03-21T14:28:14.290297Z,-0.415166,-0.025651999999999998,0.026431
2019-03-21T14:28:14.488297Z,-0.30185300000000004,0.672746,-0.494724
2019-03-21T14:28:14.688297Z,-0.440013,1.2699129999999998,-0.555434
2019-03-21T14:28:14.885297Z,-0.720923,1.291385,-0.07979800000000001
2019-03-21T14:28:15.084297Z,-0.6935279999999999,-0.524355,0.960884
2019-03-21T14:28:15.283297Z,-0.916431,-0.06971799999999999,-1.6619490000000001
2019-03-21T14:28:15.481297Z,-0.844916,0.48822200000000004,-1.061767
2019-03-21T14:28:15.680297Z,-0.851967,1.126893,0.014757
2019-03-21T14:28:15.878297Z,-0.44013500000000005,1.245495,-0.251646
2019-03-21T14:28:16.077297Z,-0.763551,-1.202575,0.28831
2019-03-21T14:28:16.277297Z,0.151559,-0.709399,0.597065
2019-03-21T14:28:16.475297Z,-0.8116220000000001,0.061349,0.06833600000000001
2019-03-21T14:28:16.673297Z,-0.5931310000000001,0.665986,0.124226
2019-03-21T14:28:16.872297Z,-0.408661,-0.04338,-0.855267
2019-03-21T14:28:17.070297Z,-0.15932000000000002,0.8723350000000001,-1.26015
2019-03-21T14:28:17.269297Z,-0.813067,0.9879379999999999,-0.612911
2019-03-21T14:28:17.467297Z,0.209715,1.425084,-1.631894
2019-03-21T14:28:17.666297Z,0.5470119999999999,1.702943,-1.8278599999999998
2019-03-21T14:28:17.866297Z,-1.818714,0.152886,3.876289
2019-03-21T14:28:18.087297Z,-2.3379779999999997,0.487429,-0.9852209999999999
2019-03-21T14:28:18.262297Z,-2.805042,1.127257,0.16489700000000002
2019-03-21T14:28:18.460297Z,-2.464695,1.51807,1.123232
2019-03-21T14:28:18.659297Z,-0.567728,2.095468,-1.3400040000000002
2019-03-21T14:28:18.858297Z,-3.047372,0.805198,-0.921851
2019-03-21T14:28:19.056297Z,-3.293211,2.034712,0.0074329999999999995
2019-03-21T14:28:19.254297Z,-2.212582,2.302205,0.9863280000000001
2019-03-21T14:28:19.453297Z,-1.408421,2.679975,-0.008803
2019-03-21T14:28:19.652297Z,0.170036,2.793703,-0.539672
2019-03-21T14:28:19.850297Z,0.7762020000000001,3.084975,-1.379204
2019-03-21T14:28:20.049297Z,0.251354,3.135234,-1.1948159999999999
2019-03-21T14:28:20.248297Z,1.169629,3.061065,-0.212141
2019-03-21T14:28:20.446297Z,0.44159499999999996,1.291093,-0.9279790000000001
2019-03-21T14:28:20.645297Z,-0.331725,1.5218909999999999,-0.175007
2019-03-21T14:28:20.843297Z,-0.44596099999999994,2.300837,-0.173421
2019-03-21T14:28:21.042297Z,0.504279,1.146048,0.015333000000000001
2019-03-21T14:28:21.241297Z,0.517411,-1.8239169999999998,1.412032
2019-03-21T14:28:21.439297Z,-0.219962,-1.965825,0.40274
2019-03-21T14:28:21.638297Z,-0.723327,-1.859516,2.0211189999999997
2019-03-21T14:28:21.837297Z,0.0035960000000000002,-1.1362649999999999,0.78998
2019-03-21T14:28:22.035297Z,-0.643179,-0.695122,0.31166900000000003
2019-03-21T14:28:22.233297Z,-0.68603,-1.022385,0.28946500000000003
2019-03-21T14:28:22.432297Z,-0.31632899999999997,-0.378452,1.652495
2019-03-21T14:28:22.630297Z,-0.528754,-0.719796,0.8943549999999999
2019-03-21T14:28:22.859297Z,0.153955,0.096044,-0.20677399999999999
2019-03-21T14:28:23.028297Z,0.7911199999999999,0.050433,-0.320798
2019-03-21T14:28:23.226297Z,0.9900540000000001,0.599875,0.344231
2019-03-21T14:28:23.425297Z,-0.283104,0.400027,1.8824290000000001
2019-03-21T14:28:23.624297Z,-0.9112600000000001,-1.577951,-0.28224299999999997
2019-03-21T14:28:23.822297Z,-0.8751909999999999,-0.835326,-0.522309
2019-03-21T14:28:24.021297Z,-0.846671,0.293018,-0.6459199999999999
2019-03-21T14:28:24.219297Z,-1.092967,0.244273,0.09170700000000001
2019-03-21T14:28:24.418297Z,-0.67624,-1.107469,1.685773
2019-03-21T14:28:24.616297Z,0.689708,-0.10086,-0.416944
2019-03-21T14:28:24.815297Z,0.00571,0.225629,0.8881049999999999
2019-03-21T14:28:25.014297Z,0.850922,0.31702600000000003,0.45436000000000004
2019-03-21T14:28:25.212297Z,0.546903,-0.27666999999999997,1.0113530000000002
2019-03-21T14:28:25.422297Z,-0.489155,-0.141816,-0.35023699999999997
2019-03-21T14:28:25.609297Z,-0.670151,-0.27168000000000003,-0.052603
2019-03-21T14:28:25.823297Z,-0.597688,-0.431109,0.595863
2019-03-21T14:28:26.040297Z,-0.7000390000000001,0.48969700000000005,-0.9017709999999999
2019-03-21T14:28:26.205297Z,-0.251512,0.630894,0.256577
2019-03-21T14:28:26.404297Z,0.265027,1.183033,0.264048
2019-03-21T14:28:26.603297Z,-0.7540140000000001,1.558629,-0.581875
2019-03-21T14:28:26.801297Z,-2.5459959999999997,1.8052849999999998,0.358209
2019-03-21T14:28:27.000297Z,-2.036064,2.440579,1.754852
2019-03-21T14:28:27.200297Z,-2.840547,0.347665,-0.24111100000000002
2019-03-21T14:28:27.396297Z,-2.676566,0.168809,-0.746575
2019-03-21T14:28:27.595297Z,-1.7460830000000003,1.5395459999999999,-0.013557
2019-03-21T14:28:27.794297Z,-1.629882,1.796831,-0.41561800000000004
2019-03-21T14:28:27.993297Z,-1.8193270000000001,1.7264389999999998,0.8909440000000001
2019-03-21T14:28:28.191297Z,-1.649473,0.235769,-0.599581
2019-03-21T14:28:28.390297Z,-1.334669,0.931177,0.255042
2019-03-21T14:28:28.589297Z,-1.246443,1.4409399999999999,0.166658
2019-03-21T14:28:28.787297Z,-1.406974,1.585543,-0.131154
2019-03-21T14:28:28.986297Z,-1.764721,1.5399690000000001,-0.436853
2019-03-21T14:28:29.184297Z,-1.273509,1.902626,-0.080528
2019-03-21T14:28:29.383297Z,-1.272373,1.992159,0.46402899999999997
2019-03-21T14:28:29.582297Z,-1.0068110000000001,2.4250580000000004,0.162045
2019-03-21T14:28:29.780297Z,-1.711375,1.223985,0.244623
2019-03-21T14:28:29.979297Z,-2.080493,1.277663,-0.379759
2019-03-21T14:28:30.178297Z,-1.933229,2.201632,-0.241044
2019-03-21T14:28:30.376297Z,-1.87473,2.039341,-0.620616
2019-03-21T14:28:30.574297Z,-2.230523,2.075894,-0.46545699999999995
2019-03-21T14:28:30.773297Z,-2.0621959999999997,0.798948,2.0543169999999997
2019-03-21T14:28:30.984297Z,-1.732389,1.2509709999999998,-0.509415
2019-03-21T14:28:31.171297Z,-1.543145,1.441184,-0.298984
2019-03-21T14:28:31.369297Z,-1.4965760000000001,1.812484,0.356405
2019-03-21T14:28:31.567297Z,-0.9677870000000001,1.5573290000000002,-0.818553
2019-03-21T14:28:31.766297Z,-1.366403,2.741176,-0.617635
2019-03-21T14:28:31.965297Z,-1.357004,2.6005580000000004,-0.170734
2019-03-21T14:28:32.163297Z,-1.8770349999999998,1.5614860000000002,-0.593202
2019-03-21T14:28:32.361297Z,-1.536822,0.320769,0.020605000000000002
2019-03-21T14:28:32.560297Z,-1.132735,0.6328239999999999,-0.714268
2019-03-21T14:28:32.759297Z,-0.770331,0.948116,0.325586
2019-03-21T14:28:32.957297Z,-0.591544,1.148607,0.243846
2019-03-21T14:28:33.156297Z,-0.41909300000000005,-1.03247,1.022268
2019-03-21T14:28:33.354297Z,-0.444409,0.047206,0.343684
2019-03-21T14:28:33.553297Z,-0.448902,0.056039,0.345668
2019-03-21T14:28:33.752297Z,-0.12549200000000002,0.496676,-0.732302
2019-03-21T14:28:33.983297Z,-0.751159,0.753081,-0.037617000000000005
2019-03-21T14:28:34.149297Z,-0.028707999999999997,0.986237,-0.475392
2019-03-21T14:28:34.348297Z,0.350211,1.033635,-0.43213500000000005
2019-03-21T14:28:34.546297Z,0.020622,1.51474,0.508975
2019-03-21T14:28:34.744297Z,0.00023999999999999998,0.01987,1.383256
2019-03-21T14:28:34.944297Z,-0.844801,-1.000168,-0.25054699999999996
2019-03-21T14:28:35.141297Z,-1.371033,-0.122557,-1.238861
2019-03-21T14:28:35.340297Z,-0.966714,-0.044610000000000004,0.175122
2019-03-21T14:28:35.539297Z,-1.0511030000000001,0.907489,0.9287569999999999
2019-03-21T14:28:35.737297Z,-1.425535,-1.6596349999999997,-0.030964999999999996
2019-03-21T14:28:35.936297Z,-1.443233,-1.6868040000000002,1.104938
2019-03-21T14:28:36.135297Z,-2.495052,-1.802073,0.9777440000000001
2019-03-21T14:28:36.333297Z,-1.510759,-0.947261,1.0329540000000001
2019-03-21T14:28:36.531297Z,-1.158147,-0.327156,0.917115
2019-03-21T14:28:36.730297Z,-1.611022,0.396262,0.54893
2019-03-21T14:28:36.968297Z,-2.307137,1.049758,-0.546107
2019-03-21T14:28:37.127297Z,-2.602616,1.179033,-0.163635
2019-03-21T14:28:37.326297Z,-2.854075,0.988419,-0.9189139999999999
2019-03-21T14:28:37.524297Z,-2.947321,1.84962,-0.126091
2019-03-21T14:28:37.723297Z,-2.819248,1.739883,0.725533
2019-03-21T14:28:37.922297Z,-1.8699439999999998,2.901128,-0.153684
2019-03-21T14:28:38.120297Z,-2.268231,3.511575,-0.044633
2019-03-21T14:28:38.319297Z,-1.761082,2.455191,1.755795
2019-03-21T14:28:38.518297Z,-1.515651,0.553018,-0.695138
2019-03-21T14:28:38.715297Z,-1.506823,1.728606,-1.093038
2019-03-21T14:28:38.914297Z,-0.386945,2.24651,-0.16326400000000002
2019-03-21T14:28:39.113297Z,0.298212,2.6296,-0.345928
2019-03-21T14:28:39.311297Z,-0.062676,2.657393,-0.205913
2019-03-21T14:28:39.510297Z,-0.642569,2.191275,-0.819469
2019-03-21T14:28:39.709297Z,-1.3634030000000001,1.964403,-0.7525189999999999
2019-03-21T14:28:39.907297Z,-0.7584029999999999,2.4540349999999997,-1.238531
2019-03-21T14:28:40.105297Z,0.380412,2.817502,0.04023
2019-03-21T14:28:40.304297Z,-0.8587040000000001,2.3363110000000002,-0.819715
2019-03-21T14:28:40.503297Z,-0.43493699999999996,2.569226,0.035133
2019-03-21T14:28:40.701297Z,-0.991244,0.11760899999999999,1.028567
2019-03-21T14:28:40.900297Z,-0.19931400000000002,-0.239513,-1.0535
2019-03-21T14:28:41.098297Z,0.636799,1.877204,-2.792093
2019-03-21T14:28:41.297297Z,0.24023899999999998,1.3850959999999999,-0.567756
2019-03-21T14:28:41.496297Z,0.600223,-1.249876,1.463655
2019-03-21T14:28:41.694297Z,0.823881,0.131636,0.22392399999999998
2019-03-21T14:28:41.892297Z,1.952121,1.051183,0.21659099999999998
2019-03-21T14:28:42.129297Z,1.716752,0.46733199999999997,-0.21388600000000002
2019-03-21T14:28:42.311297Z,1.428758,1.51735,-0.73982
2019-03-21T14:28:42.489297Z,1.295113,0.977187,-0.901694
2019-03-21T14:28:42.688297Z,2.0742849999999997,1.307104,-0.12250899999999999
2019-03-21T14:28:42.885297Z,1.851707,2.2667439999999996,-1.359584
2019-03-21T14:28:43.084297Z,1.09351,1.8310279999999999,0.8175720000000001
2019-03-21T14:28:43.282297Z,0.979261,-0.208858,0.502258
2019-03-21T14:28:43.481297Z,0.628104,-0.898043,-0.711549
2019-03-21T14:28:43.679297Z,1.19077,0.995402,-1.8794099999999998
2019-03-21T14:28:43.878297Z,0.419512,1.157319,0.785377
2019-03-21T14:28:44.076297Z,0.49814899999999995,1.66537,-0.377393
2019-03-21T14:28:44.291297Z,0.35391999999999996,-1.1618540000000002,2.968451
2019-03-21T14:28:44.474297Z,0.221737,0.029299000000000002,-1.161842
2019-03-21T14:28:44.672297Z,-1.586869,1.302098,0.227318
2019-03-21T14:28:44.871297Z,0.11601700000000001,1.117969,0.43091599999999997
2019-03-21T14:28:45.093297Z,0.388572,1.321135,-1.515088
2019-03-21T14:28:45.296297Z,-0.44110600000000005,1.832602,-1.816485
2019-03-21T14:28:45.466297Z,-0.37364200000000003,1.5559889999999998,-0.614881
2019-03-21T14:28:45.665297Z,-1.562307,1.7381209999999998,-0.98335
2019-03-21T14:28:45.863297Z,-0.7915300000000001,1.4870940000000001,0.762836
2019-03-21T14:28:46.062297Z,0.45318,2.2698490000000002,-0.5878369999999999
2019-03-21T14:28:46.261297Z,0.063064,2.157755,1.17669
2019-03-21T14:28:46.459297Z,1.6774369999999998,-0.9308190000000001,0.644746
2019-03-21T14:28:46.658297Z,1.2055850000000001,-0.143557,-1.658983
2019-03-21T14:28:46.856297Z,1.9672020000000001,0.502223,-0.07518899999999999
2019-03-21T14:28:47.054297Z,1.932336,0.362334,0.33965500000000004
2019-03-21T14:28:47.253297Z,0.113325,-2.0270349999999997,2.125773
2019-03-21T14:28:47.452297Z,0.697986,-0.501382,0.11821400000000001
2019-03-21T14:28:47.650297Z,-0.149423,1.114333,0.276064
2019-03-21T14:28:47.849297Z,-0.908367,0.5663,-0.6364029999999999
2019-03-21T14:28:48.048297Z,0.09242,-0.452113,1.070432
2019-03-21T14:28:48.246297Z,-0.6522600000000001,0.874292,-0.7850630000000001
2019-03-21T14:28:48.444297Z,-0.873351,0.595647,-0.038487
2019-03-21T14:28:48.643297Z,-1.516424,0.162607,-1.068833
2019-03-21T14:28:48.842297Z,-0.028908999999999997,0.798259,-0.08115800000000001
2019-03-21T14:28:49.040297Z,0.508454,1.138498,-0.9197649999999999
2019-03-21T14:28:49.239297Z,-0.059801,0.894706,-0.320215
2019-03-21T14:28:49.437297Z,-1.4766780000000002,-0.293246,2.613609
2019-03-21T14:28:49.635297Z,-0.013813999999999998,-1.370945,-0.499084
2019-03-21T14:28:49.834297Z,-1.481147,-0.477206,-0.041857
2019-03-21T14:28:50.032297Z,-1.407915,0.128359,-0.9177629999999999
2019-03-21T14:28:50.231297Z,-1.1271719999999998,-1.708063,2.390391
2019-03-21T14:28:50.430297Z,1.6674349999999998,1.682589,-1.498357
2019-03-21T14:28:50.628297Z,1.395041,1.713593,0.273314
2019-03-21T14:28:50.827297Z,2.125666,0.43917700000000004,-0.154751
2019-03-21T14:28:51.025297Z,1.589258,0.380971,-0.37906999999999996
2019-03-21T14:28:51.250297Z,1.7646099999999998,1.111438,-0.210812
2019-03-21T14:28:51.422297Z,2.332768,0.9283469999999999,0.187383
2019-03-21T14:28:51.621297Z,2.7539599999999997,1.347161,-0.251492
2019-03-21T14:28:51.819297Z,2.444451,1.20612,-0.173758
2019-03-21T14:28:52.018297Z,1.406475,1.615888,-0.88444
2019-03-21T14:28:52.217297Z,1.332224,2.488959,0.44428500000000004
2019-03-21T14:28:52.415297Z,-1.051199,0.21055300000000002,-1.4853299999999998
2019-03-21T14:28:52.613297Z,-0.126899,0.736151,-1.5296049999999999
2019-03-21T14:28:52.812297Z,1.501271,2.4571330000000002,-1.056367
2019-03-21T14:28:53.010297Z,1.025899,2.928255,-1.026656
2019-03-21T14:28:53.209297Z,1.578023,2.852171,0.410046
2019-03-21T14:28:53.427297Z,1.661916,2.299107,-1.363068
2019-03-21T14:28:53.639297Z,0.339488,3.1402330000000003,-1.113119
2019-03-21T14:28:53.804297Z,1.457945,2.361586,-0.683079
2019-03-21T14:28:54.003297Z,1.960368,2.740653,-0.249185
2019-03-21T14:28:54.201297Z,1.787046,2.7215439999999997,-1.059382
2019-03-21T14:28:54.400297Z,1.098054,3.020632,-0.227284
2019-03-21T14:28:54.599297Z,0.192052,2.385278,1.34412
2019-03-21T14:28:54.797297Z,0.8584879999999999,1.0318200000000002,-0.660465
2019-03-21T14:28:54.996297Z,0.364561,1.2854780000000001,-1.576135
2019-03-21T14:28:55.194297Z,0.436953,2.200175,-0.750525
2019-03-21T14:28:55.393297Z,1.19435,3.028824,1.171916
2019-03-21T14:28:55.591297Z,0.6167739999999999,2.267978,-1.353177
2019-03-21T14:28:55.791297Z,1.032564,3.729628,-0.9265549999999999
2019-03-21T14:28:55.988297Z,0.666696,2.3289869999999997,0.164195
2019-03-21T14:28:56.187297Z,0.683275,3.711295,-2.806491
2019-03-21T14:28:56.385297Z,1.7382080000000002,3.58373,0.036863
2019-03-21T14:28:56.584297Z,0.874333,2.885967,-0.331782
2019-03-21T14:28:56.782297Z,0.732212,2.8129,-3.7979190000000003
2019-03-21T14:28:56.981297Z,0.386029,2.905893,-1.776575
2019-03-21T14:28:57.180297Z,-1.135438,3.530563,-0.245718
2019-03-21T14:28:57.390297Z,0.954002,2.065081,0.055675999999999996
2019-03-21T14:28:57.577297Z,1.8366689999999999,0.80719,0.906243
2019-03-21T14:28:57.775297Z,2.447295,0.688391,-1.8397270000000001
2019-03-21T14:28:57.973297Z,1.6978540000000002,0.18102000000000001,1.060734
2019-03-21T14:28:58.172297Z,0.49815299999999996,1.228823,2.38565
2019-03-21T14:28:58.370297Z,0.8767870000000001,-1.1732120000000001,1.915446
2019-03-21T14:28:58.569297Z,1.036254,-2.319203,-0.370965
2019-03-21T14:28:58.768297Z,0.7220449999999999,0.359634,0.308618
2019-03-21T14:28:58.967297Z,0.888806,0.121652,2.17373
2019-03-21T14:28:59.164297Z,1.48596,-1.580383,2.28735
2019-03-21T14:28:59.363297Z,-0.551739,-1.645359,1.0446950000000002
2019-03-21T14:28:59.561297Z,-1.480453,-1.2619200000000002,1.579599
2019-03-21T14:28:59.773297Z,-0.9708959999999999,-0.846266,1.6799979999999999
2019-03-21T14:28:59.971297Z,-2.439005,-0.265714,-0.243577
2019-03-21T14:29:00.157297Z,-2.163518,-0.28629299999999996,0.14285499999999998
2019-03-21T14:29:00.355297Z,-1.226297,0.11053800000000001,0.10376099999999999
2019-03-21T14:29:00.554297Z,-1.309761,0.590983,-0.024935
2019-03-21T14:29:00.752297Z,-0.845281,0.5315409999999999,0.9081319999999999
2019-03-21T14:29:00.951297Z,-0.705339,-0.385467,1.136113
2019-03-21T14:29:01.150297Z,-0.862036,-2.4889810000000003,0.25497600000000004
2019-03-21T14:29:01.348297Z,-1.09907,-1.898148,1.7726389999999999
2019-03-21T14:29:01.546297Z,-0.5982569999999999,-0.531212,-0.564755
2019-03-21T14:29:01.745297Z,0.624654,0.203716,1.4696690000000001
2019-03-21T14:29:01.944297Z,0.9671850000000001,-2.002837,1.396767
2019-03-21T14:29:02.142297Z,-0.799602,-1.6840509999999997,1.203799
2019-03-21T14:29:02.342297Z,-0.5615319999999999,-1.5753620000000002,1.7049990000000002
2019-03-21T14:29:02.539297Z,-1.095227,-1.898455,0.415703
