Datetime,accx,accy,accz
2019-05-23T04:15:55.594916Z,-0.298059,-0.304896,-0.096321
2019-05-23T04:15:55.629916Z,0.061262,0.233931,-0.332405
2019-05-23T04:15:55.670916Z,-0.044364,0.143216,0.00499
2019-05-23T04:15:55.711916Z,-0.284964,0.22297199999999998,-0.044982
2019-05-23T04:15:55.750916Z,-0.100176,-0.118376,0.643121
2019-05-23T04:15:55.790916Z,-0.017769,-0.188332,0.451967
2019-05-23T04:15:55.830916Z,-0.267408,-0.196189,0.43971899999999997
2019-05-23T04:15:55.871916Z,-0.331897,0.001768,-0.13588
2019-05-23T04:15:55.911916Z,0.225068,0.060083000000000004,-0.583326
2019-05-23T04:15:55.951916Z,0.242002,0.27321799999999996,-0.62985
2019-05-23T04:15:55.990916Z,0.387129,0.135701,-0.165106
2019-05-23T04:15:56.029916Z,0.10190700000000001,-0.102344,-0.234582
2019-05-23T04:15:56.071916Z,0.117628,-0.108001,-0.22913499999999998
2019-05-23T04:15:56.111916Z,-0.108251,-0.095466,0.169214
2019-05-23T04:15:56.150916Z,-0.274266,0.098991,-0.233631
2019-05-23T04:15:56.194916Z,-0.281037,0.064934,-0.222706
2019-05-23T04:15:56.230916Z,-0.298747,0.41983400000000004,-0.13885799999999998
2019-05-23T04:15:56.270916Z,-0.49094399999999994,0.49368999999999996,-0.173095
2019-05-23T04:15:56.310916Z,-0.4519,0.454825,-0.163178
2019-05-23T04:15:56.350916Z,-0.372233,0.689422,-0.121857
2019-05-23T04:15:56.391916Z,0.11889100000000001,0.8930620000000001,0.5560609999999999
2019-05-23T04:15:56.431916Z,0.15923299999999999,0.802033,0.566243
2019-05-23T04:15:56.472916Z,-0.23360300000000003,0.53155,1.0955190000000001
2019-05-23T04:15:56.511916Z,0.37144499999999997,0.264279,0.96319
2019-05-23T04:15:56.551916Z,0.250203,0.18925799999999998,0.9671719999999999
2019-05-23T04:15:56.592916Z,0.647279,0.429971,0.49876099999999995
2019-05-23T04:15:56.632916Z,0.595989,-0.842614,2.188728
2019-05-23T04:15:56.672916Z,0.692079,-0.9085290000000001,2.17614
2019-05-23T04:15:56.713916Z,0.020781,-1.581149,0.543035
2019-05-23T04:15:56.753916Z,-0.283939,-1.9879959999999999,-0.26187699999999997
2019-05-23T04:15:56.792916Z,-0.371753,-2.138088,-0.192404
2019-05-23T04:15:56.832916Z,-0.5975550000000001,-1.902045,-0.467213
2019-05-23T04:15:56.872916Z,-0.034301,-1.4599959999999998,-0.333488
2019-05-23T04:15:56.913916Z,0.11793900000000002,-1.435007,-0.32745799999999997
2019-05-23T04:15:56.951916Z,-0.079666,-1.40137,0.47652100000000003
2019-05-23T04:15:56.993916Z,-0.544041,-1.181826,-0.12435399999999999
2019-05-23T04:15:57.031916Z,-0.48208999999999996,-1.226974,-0.096098
2019-05-23T04:15:57.072916Z,-0.292557,-0.6570819999999999,-0.655358
2019-05-23T04:15:57.112916Z,-0.674661,-0.506469,-0.434832
2019-05-23T04:15:57.152916Z,-0.8240129999999999,-0.5261170000000001,-0.41956099999999996
2019-05-23T04:15:57.192916Z,-0.48377200000000004,-0.34823699999999996,-0.16159
2019-05-23T04:15:57.233916Z,-0.26769,-0.189492,0.216698
2019-05-23T04:15:57.273916Z,-0.14769300000000002,-0.236302,0.23413499999999998
2019-05-23T04:15:57.312916Z,0.252139,0.044884,-0.122482
2019-05-23T04:15:57.353916Z,0.132195,0.468934,-0.157744
2019-05-23T04:15:57.391916Z,0.134202,0.45333900000000005,-0.151643
2019-05-23T04:15:57.432916Z,-0.994883,0.5284220000000001,-0.921731
2019-05-23T04:15:57.502916Z,-0.192935,0.822635,0.9724649999999999
2019-05-23T04:15:57.515916Z,-0.225183,0.951881,0.8964
2019-05-23T04:15:57.553916Z,-1.027352,0.044196,-0.8080649999999999
2019-05-23T04:15:57.591916Z,-0.698837,-0.292969,2.2363009999999997
2019-05-23T04:15:57.632916Z,-0.7111649999999999,-0.290221,2.2009830000000004
2019-05-23T04:15:57.672916Z,0.523874,-1.208797,0.558036
2019-05-23T04:15:57.716916Z,0.344516,-0.460721,0.12750899999999998
2019-05-23T04:15:57.751916Z,0.30746599999999996,-0.300831,0.072725
2019-05-23T04:15:57.791916Z,0.334283,-0.54902,-0.425231
2019-05-23T04:15:57.831916Z,-0.135772,-0.731336,0.357139
2019-05-23T04:15:57.872916Z,-0.353798,-0.8707379999999999,0.41967899999999997
2019-05-23T04:15:57.914916Z,-0.44178900000000004,-1.274416,-0.096428
2019-05-23T04:15:57.951916Z,-0.24689499999999998,-0.9894629999999999,-0.450078
2019-05-23T04:15:57.992916Z,-0.242206,-1.086459,-0.402574
2019-05-23T04:15:58.032916Z,0.028314999999999996,-0.38143499999999997,-0.070219
2019-05-23T04:15:58.071916Z,-0.21323000000000003,-0.270602,-0.522826
2019-05-23T04:15:58.114916Z,-0.207321,-0.45599300000000004,-0.440771
2019-05-23T04:15:58.155916Z,-0.135156,-0.166519,0.511316
2019-05-23T04:15:58.191916Z,0.187574,0.836735,0.11032
2019-05-23T04:15:58.232916Z,0.124359,0.8832139999999999,0.092908
2019-05-23T04:15:58.273916Z,-0.10864700000000001,0.22555999999999998,1.523849
2019-05-23T04:15:58.312916Z,0.118801,0.34967600000000004,0.292092
2019-05-23T04:15:58.354916Z,-0.149095,0.461578,0.279842
2019-05-23T04:15:58.393916Z,0.10166599999999999,0.170072,1.724867
2019-05-23T04:15:58.434916Z,0.733604,-1.173139,1.604371
2019-05-23T04:15:58.472916Z,0.97331,-1.092233,1.521507
2019-05-23T04:15:58.514916Z,0.14361600000000002,-1.157908,0.29351900000000003
2019-05-23T04:15:58.554916Z,0.318822,-1.285907,-0.42195200000000005
2019-05-23T04:15:58.595916Z,0.482184,-1.334031,-0.403936
2019-05-23T04:15:58.634916Z,0.405387,-1.010832,-0.9057299999999999
2019-05-23T04:15:58.674916Z,0.095437,-0.784369,-0.991711
2019-05-23T04:15:58.712916Z,0.193329,-0.775528,-0.977534
2019-05-23T04:15:58.752916Z,-0.11626500000000001,-0.674717,-1.102955
2019-05-23T04:15:58.828916Z,-0.303267,-0.235959,-0.340543
2019-05-23T04:15:58.842916Z,-0.34069699999999997,-0.287392,-0.31361500000000003
2019-05-23T04:15:58.877916Z,-0.798329,-0.313728,-0.048804
2019-05-23T04:15:58.916916Z,-0.345652,0.263175,0.447111
2019-05-23T04:15:58.953916Z,-0.409001,0.188646,0.46816
2019-05-23T04:15:58.993916Z,-0.676709,0.18171800000000002,0.7519680000000001
2019-05-23T04:15:59.035916Z,0.212029,0.321467,0.600493
2019-05-23T04:15:59.073916Z,-0.004075,0.43268100000000004,0.560331
2019-05-23T04:15:59.113916Z,0.71936,-0.463297,1.8873209999999998
2019-05-23T04:15:59.154916Z,0.873925,-1.5770899999999999,0.77466
2019-05-23T04:15:59.207916Z,0.9523389999999999,-1.550109,0.758977
2019-05-23T04:15:59.233916Z,-0.280918,-0.871449,0.27353299999999997
2019-05-23T04:15:59.274916Z,0.065461,-1.122149,-0.507602
2019-05-23T04:15:59.314916Z,0.1276,-1.0909209999999998,-0.505754
2019-05-23T04:15:59.353916Z,0.269115,-0.72992,-1.195889
2019-05-23T04:15:59.393916Z,-0.123457,-0.6871079999999999,-0.48081899999999994
2019-05-23T04:15:59.433916Z,-0.137458,-0.763178,-0.439428
2019-05-23T04:15:59.474916Z,-0.338469,-0.9552430000000001,0.345157
2019-05-23T04:15:59.514916Z,-0.23219,-0.511265,-0.151233
2019-05-23T04:15:59.554916Z,-0.275231,-0.545933,-0.128879
2019-05-23T04:15:59.595916Z,0.079497,-0.128075,-0.15901600000000002
2019-05-23T04:15:59.635916Z,-0.222694,0.030156,0.17432899999999998
2019-05-23T04:15:59.675916Z,-0.20725900000000003,-0.10307000000000001,0.23042800000000002
2019-05-23T04:15:59.716916Z,-0.032542,0.33133,0.96672
2019-05-23T04:15:59.754916Z,0.092751,0.366902,0.219207
2019-05-23T04:15:59.795916Z,0.195614,0.26564699999999997,0.264474
2019-05-23T04:15:59.835916Z,0.37592800000000004,-0.006032,0.121447
2019-05-23T04:15:59.875916Z,0.062846,0.099093,-0.312562
2019-05-23T04:15:59.915916Z,-0.020831,0.293827,-0.407969
2019-05-23T04:15:59.955916Z,0.858728,0.156142,0.780618
2019-05-23T04:15:59.996916Z,0.8721469999999999,-0.992541,0.397094
2019-05-23T04:16:00.036916Z,0.9813930000000001,-0.830089,0.331839
2019-05-23T04:16:00.075916Z,0.42930799999999997,-0.682517,-0.122571
2019-05-23T04:16:00.116916Z,0.451097,-1.025258,-0.20994200000000002
2019-05-23T04:16:00.155916Z,0.510428,-0.851943,-0.262834
2019-05-23T04:16:00.196916Z,0.400258,-0.815906,-0.9838979999999999
2019-05-23T04:16:00.235916Z,0.293288,-0.688228,0.083786
2019-05-23T04:16:00.276916Z,0.268219,-0.786245,0.12151500000000001
2019-05-23T04:16:00.316916Z,0.315299,-0.36845,-0.44365699999999997
2019-05-23T04:16:00.355916Z,0.26682,0.133851,-0.537415
2019-05-23T04:16:00.395916Z,0.176015,0.11084400000000001,-0.523964
2019-05-23T04:16:00.436916Z,0.142931,-0.009909000000000001,0.6864399999999999
2019-05-23T04:16:00.476916Z,0.424803,0.157629,1.048314
2019-05-23T04:16:00.516916Z,0.399547,0.054354,1.070519
2019-05-23T04:16:00.558916Z,1.123916,0.3341,0.739577
2019-05-23T04:16:00.596916Z,1.139592,-0.27099,1.255527
2019-05-23T04:16:00.636916Z,0.951625,-0.322911,1.2656
2019-05-23T04:16:00.676916Z,1.844291,-1.284242,2.207051
2019-05-23T04:16:00.716916Z,1.952863,-1.247895,0.9148540000000001
2019-05-23T04:16:00.756916Z,2.008264,-1.245935,0.9029149999999999
2019-05-23T04:16:00.797916Z,1.341967,-1.2926030000000002,-0.366573
2019-05-23T04:16:00.834916Z,0.882017,-1.612059,-0.125841
2019-05-23T04:16:00.875916Z,0.949794,-1.616033,-0.11479400000000001
2019-05-23T04:16:00.915916Z,0.9638620000000001,-1.1150870000000002,-0.267409
2019-05-23T04:16:00.955916Z,0.8556799999999999,-0.646725,-0.24409
2019-05-23T04:16:00.996916Z,0.942051,-0.633166,-0.24238200000000001
2019-05-23T04:16:01.035916Z,0.574038,-0.771537,0.071368
2019-05-23T04:16:01.076916Z,0.107001,-0.8943260000000001,0.44030699999999995
2019-05-23T04:16:01.116916Z,0.11434200000000001,-0.9981629999999999,0.482491
2019-05-23T04:16:01.155916Z,-0.12602,-1.139528,0.883591
2019-05-23T04:16:01.196916Z,-0.14818299999999998,-0.908384,0.404278
2019-05-23T04:16:01.236916Z,-0.165899,-0.923032,0.410789
2019-05-23T04:16:01.275916Z,-0.287095,-1.149289,0.663856
2019-05-23T04:16:01.316916Z,-0.658736,-1.411666,0.899068
2019-05-23T04:16:01.355916Z,-0.55471,-1.4260760000000001,0.902335
2019-05-23T04:16:01.395916Z,-0.49937700000000007,-1.631597,0.592637
2019-05-23T04:16:01.435916Z,-0.834833,-1.635158,-0.380152
2019-05-23T04:16:01.501916Z,-0.8173699999999999,-1.6115030000000001,-0.372066
2019-05-23T04:16:01.518916Z,-0.368111,-1.1521,-0.066709
2019-05-23T04:16:01.560916Z,-0.546632,-1.13849,0.078829
2019-05-23T04:16:01.595916Z,-0.509195,-1.031408,0.042335000000000005
2019-05-23T04:16:01.635916Z,-0.698358,-1.02387,0.061599
2019-05-23T04:16:01.676916Z,-0.282959,-0.957067,0.817226
2019-05-23T04:16:01.716916Z,-0.24351599999999998,-0.886027,0.784266
2019-05-23T04:16:01.757916Z,-0.350724,-0.728522,0.437668
2019-05-23T04:16:01.796916Z,-0.221482,-0.5973229999999999,0.166494
2019-05-23T04:16:01.836916Z,-0.19478099999999998,-0.581753,0.163332
2019-05-23T04:16:01.875916Z,-0.13511800000000002,-0.607491,0.117499
2019-05-23T04:16:01.916916Z,-0.206432,-0.674461,0.130099
2019-05-23T04:16:01.956916Z,-0.23856799999999997,-0.635862,0.115423
2019-05-23T04:16:01.995916Z,-0.296234,-0.463334,-0.104306
2019-05-23T04:16:02.036916Z,-0.055419,-0.26721999999999996,0.17028800000000002
2019-05-23T04:16:02.076916Z,0.035095,-0.184855,0.147339
2019-05-23T04:16:02.117916Z,0.08391,-0.114074,-0.081415
2019-05-23T04:16:02.157916Z,-0.157855,-0.106912,-0.354119
2019-05-23T04:16:02.196916Z,-0.154195,-0.039476,-0.368658
2019-05-23T04:16:02.236916Z,-0.167568,0.037687,-0.337173
2019-05-23T04:16:02.276916Z,-0.185098,-0.058611,-0.40234200000000003
2019-05-23T04:16:02.374916Z,-0.310857,0.12904300000000002,-0.45959300000000003
2019-05-23T04:16:02.376916Z,-0.23479899999999998,0.6873199999999999,-0.459002
2019-05-23T04:16:02.405916Z,-0.613108,0.021009,0.957441
2019-05-23T04:16:02.435916Z,-0.717434,-0.10899600000000001,0.9725
2019-05-23T04:16:02.476916Z,-0.547501,0.406032,0.058025
2019-05-23T04:16:02.516916Z,-0.5254310000000001,0.44077799999999995,0.28472
2019-05-23T04:16:02.556916Z,-0.555114,0.394473,0.290421
2019-05-23T04:16:02.598916Z,-0.239777,0.12309200000000001,0.21621100000000001
2019-05-23T04:16:02.636916Z,0.086841,-0.799659,0.96509
2019-05-23T04:16:02.676916Z,-0.017095,-0.9750129999999999,1.010756
2019-05-23T04:16:02.751916Z,0.42356499999999997,-1.392128,1.609171
2019-05-23T04:16:02.758916Z,0.38710900000000004,-0.483663,-0.5186
2019-05-23T04:16:02.798916Z,0.313763,-0.60512,-0.462236
2019-05-23T04:16:02.838916Z,0.071389,-0.963828,0.264612
2019-05-23T04:16:02.876916Z,0.11623499999999999,-0.7743270000000001,0.12828599999999998
2019-05-23T04:16:02.916916Z,0.056748,-1.04372,0.256678
2019-05-23T04:16:02.956916Z,-0.124169,-1.077264,-0.148537
2019-05-23T04:16:02.996916Z,0.236069,-0.19917,-0.847016
2019-05-23T04:16:03.037916Z,0.27583,-0.130126,-0.867575
2019-05-23T04:16:03.077916Z,-0.007375,-0.484446,-0.136214
2019-05-23T04:16:03.117916Z,-0.014336000000000002,-0.261083,0.810001
2019-05-23T04:16:03.159916Z,0.107267,-0.284204,0.811801
2019-05-23T04:16:03.198916Z,-0.311519,-0.06856799999999999,-0.41286999999999996
2019-05-23T04:16:03.238916Z,-0.319589,0.280848,-0.159912
2019-05-23T04:16:03.279916Z,-0.386761,0.266731,-0.15465
2019-05-23T04:16:03.318916Z,-0.542103,0.371837,0.529317
2019-05-23T04:16:03.358916Z,-0.337461,-0.14768399999999998,1.539116
2019-05-23T04:16:03.399916Z,-0.149341,-0.13181500000000002,1.51271
2019-05-23T04:16:03.439916Z,0.127416,0.300097,-0.618187
2019-05-23T04:16:03.478916Z,0.125025,-0.489212,0.647295
2019-05-23T04:16:03.519916Z,0.136318,-0.548184,0.671601
2019-05-23T04:16:03.558916Z,-0.133277,-1.711014,0.8371780000000001
2019-05-23T04:16:03.597916Z,-0.10736,-1.2844520000000001,-0.9277540000000001
2019-05-23T04:16:03.639916Z,-0.12352300000000001,-1.1215600000000001,-0.9827459999999999
2019-05-23T04:16:03.676916Z,0.022837,-1.3576219999999999,-0.403418
2019-05-23T04:16:03.717916Z,-0.28667800000000004,-1.354083,-0.8646780000000001
2019-05-23T04:16:03.794916Z,-0.361848,-1.33905,-0.851333
2019-05-23T04:16:03.805916Z,0.005838,-0.43223900000000004,-0.478392
2019-05-23T04:16:03.837916Z,-0.652816,-0.21645999999999999,-1.1264290000000001
2019-05-23T04:16:03.877916Z,-0.741082,-0.13874,-1.145035
2019-05-23T04:16:03.917916Z,-0.64604,0.08114,-0.011553
2019-05-23T04:16:03.957916Z,-0.361423,0.173074,0.68052
2019-05-23T04:16:03.998916Z,-0.384365,0.23479099999999997,0.6409520000000001
2019-05-23T04:16:04.038916Z,-0.281303,0.391058,0.5983390000000001
2019-05-23T04:16:04.077916Z,0.29715,0.535696,0.9633719999999999
2019-05-23T04:16:04.117916Z,0.37496399999999996,0.7224,0.872556
2019-05-23T04:16:04.157916Z,0.574979,-0.159965,1.066708
2019-05-23T04:16:04.198916Z,0.722659,-1.3540729999999999,2.224366
2019-05-23T04:16:04.237916Z,0.714808,-1.48956,2.251762
2019-05-23T04:16:04.279916Z,0.652798,-0.9908049999999999,0.435116
2019-05-23T04:16:04.317916Z,0.45096099999999995,-0.884524,-0.642265
2019-05-23T04:16:04.357916Z,0.353425,-0.9139889999999999,-0.617611
2019-05-23T04:16:04.397916Z,0.362081,-0.9414110000000001,-0.82989
2019-05-23T04:16:04.437916Z,0.010278,-0.637824,-0.481365
2019-05-23T04:16:04.477916Z,0.139808,-0.439504,-0.541941
2019-05-23T04:16:04.518916Z,-0.136741,0.38563000000000003,-1.479692
2019-05-23T04:16:04.558916Z,-0.123127,0.3695,-0.55355
2019-05-23T04:16:04.598916Z,-0.24142399999999997,0.52962,-0.609518
2019-05-23T04:16:04.642916Z,0.072647,0.84239,0.365057
2019-05-23T04:16:04.679916Z,0.363295,0.702194,0.521171
2019-05-23T04:16:04.719916Z,0.19159,0.656918,0.51813
2019-05-23T04:16:04.761916Z,0.337294,0.387995,0.854512
2019-05-23T04:16:04.798916Z,0.216975,0.092667,0.855817
2019-05-23T04:16:04.839916Z,0.43266899999999997,0.160805,0.826666
2019-05-23T04:16:04.879916Z,0.12032899999999999,0.367027,-0.324413
2019-05-23T04:16:04.919916Z,-0.557362,-0.859482,1.5744049999999998
2019-05-23T04:16:04.958916Z,-0.491249,-0.982029,1.593297
2019-05-23T04:16:05.000916Z,0.395511,-1.208216,0.21873099999999998
2019-05-23T04:16:05.038916Z,0.333427,-0.58462,-0.74303
2019-05-23T04:16:05.078916Z,0.350632,-0.432783,-0.7729159999999999
2019-05-23T04:16:05.140916Z,-0.16116,-0.608402,-0.44676899999999997
2019-05-23T04:16:05.169916Z,-0.122464,-0.601982,-0.065252
2019-05-23T04:16:05.199916Z,-0.196355,-0.652776,-0.048099
2019-05-23T04:16:05.239916Z,0.142266,-0.08017300000000001,-0.42926499999999995
2019-05-23T04:16:05.279916Z,-0.039037,0.130194,-0.692419
2019-05-23T04:16:05.319916Z,-0.07821499999999999,0.079766,-0.6670520000000001
2019-05-23T04:16:05.359916Z,-0.267436,0.104019,0.065191
2019-05-23T04:16:05.399916Z,-0.250794,0.152418,0.352815
2019-05-23T04:16:05.439916Z,-0.21799200000000002,0.184645,0.335924
2019-05-23T04:16:05.479916Z,-0.47104300000000005,0.29727,0.547151
2019-05-23T04:16:05.520916Z,0.052758000000000006,0.729719,1.047787
2019-05-23T04:16:05.559916Z,0.002971,0.886804,0.9791479999999999
2019-05-23T04:16:05.599916Z,0.19831500000000002,0.30442800000000003,0.44223500000000004
2019-05-23T04:16:05.639916Z,0.9249569999999999,-1.421334,1.2912860000000002
2019-05-23T04:16:05.680916Z,0.9393469999999999,-1.397399,1.2706819999999999
2019-05-23T04:16:05.721916Z,0.373315,-0.6367010000000001,-0.42519700000000005
2019-05-23T04:16:05.760916Z,0.44887200000000005,-0.694469,-0.342746
2019-05-23T04:16:05.799916Z,0.440546,-0.6443810000000001,-0.34752
2019-05-23T04:16:05.839916Z,0.178287,-0.596776,-0.399542
2019-05-23T04:16:05.878916Z,0.27777199999999996,-0.39706199999999997,-0.685001
2019-05-23T04:16:05.965916Z,0.260069,-0.323834,-0.690991
2019-05-23T04:16:05.967916Z,0.004707,0.16480899999999998,-0.570874
2019-05-23T04:16:06.003916Z,-0.23902199999999998,0.047939999999999997,-0.173421
2019-05-23T04:16:06.039916Z,-0.26815500000000003,-0.061609000000000004,-0.14237
2019-05-23T04:16:06.079916Z,0.068738,0.7434729999999999,-0.288444
2019-05-23T04:16:06.120916Z,-0.20502399999999998,0.864201,-0.41083800000000004
2019-05-23T04:16:06.160916Z,-0.257488,0.842728,-0.403356
2019-05-23T04:16:06.199916Z,-0.347431,0.281136,0.9319350000000001
2019-05-23T04:16:06.240916Z,-0.275312,0.42602299999999993,0.676349
2019-05-23T04:16:06.280916Z,-0.409258,0.493909,0.6395460000000001
2019-05-23T04:16:06.320916Z,-0.279397,0.047538,1.579238
2019-05-23T04:16:06.360916Z,0.002179,-1.648832,1.62153
2019-05-23T04:16:06.405916Z,0.115265,-1.581827,1.5862530000000001
2019-05-23T04:16:06.440916Z,-0.428859,-1.046101,-0.370444
2019-05-23T04:16:06.481916Z,-0.41996300000000003,-1.333538,-0.37414400000000003
2019-05-23T04:16:06.520916Z,-0.48348900000000006,-1.410082,-0.33907800000000005
2019-05-23T04:16:06.560916Z,0.020707,-0.7943180000000001,-0.7047979999999999
2019-05-23T04:16:06.600916Z,-0.055277,-0.347088,-1.115969
2019-05-23T04:16:06.640916Z,-0.025639,-0.435891,-1.066166
2019-05-23T04:16:06.681916Z,0.104156,-0.435846,-0.333467
2019-05-23T04:16:06.721916Z,0.03236,-0.004632,-0.589108
2019-05-23T04:16:06.763916Z,0.065027,-0.047693,-0.562048
2019-05-23T04:16:06.803916Z,0.046619,0.702829,-0.155495
2019-05-23T04:16:06.840916Z,0.130851,0.824225,0.10278699999999999
2019-05-23T04:16:06.880916Z,0.10026399999999999,0.8662059999999999,0.078971
2019-05-23T04:16:06.921916Z,-0.100103,0.7664989999999999,0.409401
2019-05-23T04:16:06.992916Z,0.18645899999999999,0.890257,0.763187
2019-05-23T04:16:07.004916Z,-0.042072000000000005,0.9775280000000001,0.701888
2019-05-23T04:16:07.040916Z,-0.40380900000000003,-0.348346,0.499734
2019-05-23T04:16:07.080916Z,0.823473,-0.8304459999999999,0.564177
2019-05-23T04:16:07.122916Z,0.72853,-0.6894779999999999,0.510269
2019-05-23T04:16:07.161916Z,0.29727600000000004,-0.741404,0.34487399999999996
2019-05-23T04:16:07.200916Z,0.37913,-0.92037,-0.10374000000000001
2019-05-23T04:16:07.240916Z,0.4439,-0.8503350000000001,-0.118251
2019-05-23T04:16:07.280916Z,0.178835,-0.573575,-0.9055110000000001
2019-05-23T04:16:07.320916Z,-0.17286400000000002,-0.5179520000000001,-0.9376059999999999
2019-05-23T04:16:07.360916Z,-0.209537,-0.632742,-0.882508
2019-05-23T04:16:07.401916Z,0.024088,-0.498669,0.004523
2019-05-23T04:16:07.443916Z,0.266549,-0.266314,0.958131
2019-05-23T04:16:07.480916Z,0.366027,-0.409165,1.00217
2019-05-23T04:16:07.521916Z,0.122124,0.432609,-0.618609
2019-05-23T04:16:07.560916Z,0.32304499999999997,0.660983,0.113032
2019-05-23T04:16:07.600916Z,0.350042,0.521216,0.164908
2019-05-23T04:16:07.646916Z,-0.210323,0.342931,0.663812
2019-05-23T04:16:07.680916Z,-0.544611,0.510245,-0.011182
2019-05-23T04:16:07.721916Z,-0.792062,0.689156,-0.092305
2019-05-23T04:16:07.763916Z,-0.552751,0.11151199999999999,0.9059280000000001
2019-05-23T04:16:07.800916Z,-0.06611,-1.098702,1.1440489999999999
2019-05-23T04:16:07.841916Z,0.048994,-0.9738690000000001,1.08474
2019-05-23T04:16:07.881916Z,0.205677,-0.975809,-0.11594600000000001
2019-05-23T04:16:07.922916Z,-0.044099,-0.721692,-1.0669170000000001
2019-05-23T04:16:07.960916Z,0.018738,-0.556687,-1.096782
2019-05-23T04:16:08.000916Z,-0.152582,-0.803721,-0.5611
2019-05-23T04:16:08.042916Z,0.428886,-0.6168600000000001,0.118038
2019-05-23T04:16:08.082916Z,0.47153,-0.662984,0.1366
2019-05-23T04:16:08.121916Z,0.37807199999999996,0.090776,-0.8472709999999999
2019-05-23T04:16:08.194916Z,0.334326,0.856038,-1.016219
2019-05-23T04:16:08.210916Z,0.329354,0.886078,-1.01273
2019-05-23T04:16:08.241916Z,-0.445276,0.543992,-0.08633500000000001
2019-05-23T04:16:08.281916Z,-0.7740600000000001,0.71735,0.16048800000000002
2019-05-23T04:16:08.321916Z,-0.8388049999999999,0.666457,0.167818
2019-05-23T04:16:08.361916Z,-0.285812,0.7225239999999999,0.778921
2019-05-23T04:16:08.404916Z,0.101136,0.539589,0.345181
2019-05-23T04:16:08.441916Z,0.09297799999999999,0.690292,0.288721
2019-05-23T04:16:08.481916Z,0.153003,-0.012856,0.672485
2019-05-23T04:16:08.523916Z,1.158103,-0.658859,1.162018
2019-05-23T04:16:08.561916Z,1.160793,-0.822227,1.202623
2019-05-23T04:16:08.601916Z,0.321676,-0.716769,0.124126
2019-05-23T04:16:08.641916Z,0.160924,-0.749158,-0.022606
2019-05-23T04:16:08.681916Z,0.080808,-0.660462,-0.050767
2019-05-23T04:16:08.722916Z,0.117282,-0.342983,-0.777207
2019-05-23T04:16:08.761916Z,0.29025100000000004,-0.358993,-0.587971
2019-05-23T04:16:08.802916Z,0.33402600000000005,-0.233031,-0.6152920000000001
2019-05-23T04:16:08.842916Z,0.184942,0.196635,-0.859836
2019-05-23T04:16:08.882916Z,0.085576,0.34524499999999997,-0.64185
2019-05-23T04:16:08.922916Z,0.05015,0.35601900000000003,-0.636446
2019-05-23T04:16:08.963916Z,-0.29366,0.191143,0.175895
2019-05-23T04:16:09.003916Z,0.084257,0.510642,0.047421
2019-05-23T04:16:09.042916Z,0.025306,0.5340560000000001,0.036363
2019-05-23T04:16:09.083916Z,0.065513,0.851568,0.694916
2019-05-23T04:16:09.123916Z,0.34798,0.965563,1.013562
2019-05-23T04:16:09.163916Z,0.31995300000000004,1.010176,0.977126
2019-05-23T04:16:09.204916Z,0.027543,0.883867,0.015804
2019-05-23T04:16:09.243916Z,-0.43968900000000005,-1.127666,1.812273
2019-05-23T04:16:09.283916Z,-0.311575,-1.241366,1.8240189999999998
2019-05-23T04:16:09.323916Z,-0.465292,-1.473484,0.362026
2019-05-23T04:16:09.364916Z,-0.432519,-0.7462529999999999,-0.910075
2019-05-23T04:16:09.402916Z,-0.361717,-0.617934,-0.929875
2019-05-23T04:16:09.443916Z,-0.440175,-0.664035,-1.422177
2019-05-23T04:16:09.514916Z,-0.353256,-0.20848899999999998,-0.515161
2019-05-23T04:16:09.526916Z,-0.437172,-0.282067,-0.487987
2019-05-23T04:16:09.563916Z,-1.247428,-0.613716,-0.166916
2019-05-23T04:16:09.602916Z,-0.430201,0.26965700000000004,-0.075536
2019-05-23T04:16:09.644916Z,-0.40310999999999997,0.21776199999999998,-0.05903099999999999
2019-05-23T04:16:09.683916Z,-0.015722,0.522034,-0.385493
2019-05-23T04:16:09.723916Z,-0.025581,0.595809,0.073847
2019-05-23T04:16:09.765916Z,-0.091822,0.492947,0.10523199999999999
2019-05-23T04:16:09.803916Z,-0.179378,0.322604,0.13374
2019-05-23T04:16:09.842916Z,0.098564,0.457351,0.615889
2019-05-23T04:16:09.888916Z,0.206931,0.5101760000000001,0.582337
2019-05-23T04:16:09.924916Z,0.876099,1.017966,-0.7155819999999999
2019-05-23T04:16:09.963916Z,-0.21459299999999998,-0.783809,1.0184309999999999
2019-05-23T04:16:10.003916Z,-0.150825,-0.8320489999999999,1.018674
2019-05-23T04:16:10.046916Z,1.315581,-0.8465239999999999,0.737062
2019-05-23T04:16:10.083916Z,0.742409,0.438503,-0.343472
2019-05-23T04:16:10.123916Z,0.65141,0.446952,-0.3386
2019-05-23T04:16:10.164916Z,0.203707,-0.207715,0.305079
2019-05-23T04:16:10.204916Z,0.282001,-0.22612800000000002,0.264279
2019-05-23T04:16:10.243916Z,0.348283,-0.245168,0.263914
2019-05-23T04:16:10.284916Z,-0.097956,-0.264629,-0.649991
2019-05-23T04:16:10.323916Z,-0.028357,-0.059826,-1.204567
2019-05-23T04:16:10.365916Z,-0.042844,-0.030715,-1.1926809999999999
2019-05-23T04:16:10.404916Z,-0.16283699999999998,0.072376,-0.683461
2019-05-23T04:16:10.446916Z,0.11654,0.269404,0.11071600000000001
2019-05-23T04:16:10.486916Z,0.018511,0.185866,0.137879
2019-05-23T04:16:10.524916Z,0.059458000000000004,0.394539,0.8536889999999999
2019-05-23T04:16:10.565916Z,-0.453345,-0.04349,1.38897
2019-05-23T04:16:10.606916Z,-0.139547,0.032389,1.3373629999999999
2019-05-23T04:16:10.645916Z,-0.580434,0.303016,-0.390505
2019-05-23T04:16:10.685916Z,-0.853058,-0.49358,1.1164379999999998
2019-05-23T04:16:10.726916Z,-0.654881,-0.4941,1.101473
2019-05-23T04:16:10.766916Z,0.769059,-0.23544600000000002,0.10629200000000001
2019-05-23T04:16:10.806916Z,-0.086437,-0.20585100000000003,-1.187819
2019-05-23T04:16:10.845916Z,-0.027170999999999997,-0.08238999999999999,-1.197099
2019-05-23T04:16:10.886916Z,-0.7517689999999999,-0.5278609999999999,-0.7425649999999999
2019-05-23T04:16:10.925916Z,-0.453425,-0.7703979999999999,0.21224400000000002
2019-05-23T04:16:10.963916Z,-0.31645,-0.7673270000000001,0.224003
2019-05-23T04:16:11.004916Z,-0.6664680000000001,-0.636966,-0.372257
2019-05-23T04:16:11.084916Z,-0.281804,-0.539854,-0.468092
2019-05-23T04:16:11.128916Z,-0.282085,-0.546439,-0.456837
2019-05-23T04:16:11.130916Z,-0.7339319999999999,-0.871583,-0.037961
2019-05-23T04:16:11.170916Z,-0.66789,-1.0886930000000001,0.23120700000000002
2019-05-23T04:16:11.203916Z,-0.607129,-1.079496,0.235974
2019-05-23T04:16:11.244916Z,-0.6887439999999999,-0.8922959999999999,-0.059573
2019-05-23T04:16:11.284916Z,-0.628537,-1.21085,0.345481
2019-05-23T04:16:11.324916Z,-0.815156,-1.225576,0.32800799999999997
2019-05-23T04:16:11.365916Z,-0.320587,-1.277315,0.556864
2019-05-23T04:16:11.409916Z,0.112727,-1.055307,0.895473
2019-05-23T04:16:11.445916Z,0.06404,-1.049795,0.880339
2019-05-23T04:16:11.485916Z,0.185907,-0.773917,0.92491
2019-05-23T04:16:11.524916Z,0.250853,-0.79302,0.9092120000000001
2019-05-23T04:16:11.565916Z,0.362694,-0.83904,0.9210870000000001
2019-05-23T04:16:11.604916Z,0.27343,-0.744925,0.081341
2019-05-23T04:16:11.645916Z,0.10878399999999999,-0.462442,-0.383479
2019-05-23T04:16:11.685916Z,-0.0128,-0.506867,-0.37358
2019-05-23T04:16:11.725916Z,-0.025653,-0.47615100000000005,-0.126852
2019-05-23T04:16:11.765916Z,0.724721,-0.47196400000000005,0.400569
2019-05-23T04:16:11.804916Z,0.764095,-0.498014,0.408452
2019-05-23T04:16:11.845916Z,1.248263,-0.217602,0.127523
2019-05-23T04:16:11.885916Z,1.354733,-0.157022,0.175426
2019-05-23T04:16:11.926916Z,1.3886379999999998,-0.2193,0.198977
2019-05-23T04:16:11.966916Z,1.674827,-0.136276,0.053
2019-05-23T04:16:12.006916Z,1.875889,-0.136891,0.050470999999999995
2019-05-23T04:16:12.044916Z,1.845586,-0.196891,0.071751
2019-05-23T04:16:12.084916Z,1.7372040000000002,-0.27466599999999997,0.185141
2019-05-23T04:16:12.125916Z,1.877475,-0.275136,0.352463
2019-05-23T04:16:12.165916Z,1.8911759999999997,-0.316143,0.366584
2019-05-23T04:16:12.205916Z,2.1240669999999997,-0.362592,0.569475
2019-05-23T04:16:12.246916Z,1.93091,-0.07718799999999999,-0.09514700000000001
2019-05-23T04:16:12.287916Z,1.956294,-0.092632,-0.08236
2019-05-23T04:16:12.326916Z,1.890972,0.021147,-0.45151199999999997
2019-05-23T04:16:12.366916Z,1.7272509999999999,0.09194400000000001,-0.414221
2019-05-23T04:16:12.407916Z,1.7508169999999998,0.13228199999999998,-0.41772600000000004
2019-05-23T04:16:12.447916Z,1.3082120000000002,-0.10175,-0.253134
2019-05-23T04:16:12.487916Z,0.925499,0.004247,-0.156878
2019-05-23T04:16:12.527916Z,0.9297290000000001,0.06920499999999999,-0.174758
2019-05-23T04:16:12.569916Z,0.5781430000000001,0.081802,-0.130414
2019-05-23T04:16:12.607916Z,0.509662,0.136441,0.250985
2019-05-23T04:16:12.648916Z,0.511029,0.174433,0.23466399999999998
2019-05-23T04:16:12.687916Z,0.502576,0.17840699999999998,0.394983
2019-05-23T04:16:12.726916Z,0.677531,0.173595,0.17745
2019-05-23T04:16:12.766916Z,0.730677,0.195529,0.173204
2019-05-23T04:16:12.807916Z,0.730455,0.154828,-0.044565
2019-05-23T04:16:12.847916Z,0.31904099999999996,0.144764,-0.287392
2019-05-23T04:16:12.886916Z,0.281526,0.15085,-0.28870100000000004
2019-05-23T04:16:12.925916Z,0.26779000000000003,-0.052385,0.270176
2019-05-23T04:16:12.966916Z,0.412584,-0.0076760000000000005,0.370911
2019-05-23T04:16:13.006916Z,0.405642,-0.02621,0.37052399999999996
2019-05-23T04:16:13.046916Z,0.643105,0.122805,0.094625
2019-05-23T04:16:13.086916Z,0.612052,0.12541,-0.10215
2019-05-23T04:16:13.126916Z,0.6009140000000001,0.12315899999999999,-0.100487
2019-05-23T04:16:13.170916Z,0.6376029999999999,0.07394099999999999,-0.024552
2019-05-23T04:16:13.207916Z,0.461999,-0.110277,-0.048529
2019-05-23T04:16:13.247916Z,0.469737,-0.094348,-0.050561
2019-05-23T04:16:13.287916Z,0.472937,-0.058776,-0.21162899999999998
2019-05-23T04:16:13.326916Z,0.696588,-0.042072000000000005,0.137062
2019-05-23T04:16:13.368916Z,0.6813279999999999,-0.04154,0.134491
2019-05-23T04:16:13.406916Z,1.018034,0.023201,0.28496
2019-05-23T04:16:13.448916Z,1.125124,0.156074,0.154435
2019-05-23T04:16:13.486916Z,1.090032,0.140264,0.15450999999999998
2019-05-23T04:16:13.526916Z,1.170999,0.24432600000000002,0.19214
2019-05-23T04:16:13.567916Z,0.9818819999999999,0.12391700000000001,-0.01082
2019-05-23T04:16:13.606916Z,0.9262530000000001,0.07073,0.002392
2019-05-23T04:16:13.646916Z,0.995094,0.130555,-0.035512
2019-05-23T04:16:13.687916Z,1.036884,0.109471,-0.28284499999999996
2019-05-23T04:16:13.728916Z,1.012908,0.134036,-0.287062
2019-05-23T04:16:13.767916Z,0.615276,-0.0032340000000000003,-0.267552
2019-05-23T04:16:13.807916Z,0.36304899999999996,-0.166884,0.09640499999999999
2019-05-23T04:16:13.848916Z,0.382321,-0.137479,0.088378
2019-05-23T04:16:13.888916Z,0.338805,-0.086846,0.180515
2019-05-23T04:16:13.927916Z,0.370944,0.08248899999999999,0.08479
2019-05-23T04:16:13.968916Z,0.378472,0.08586,0.082964
2019-05-23T04:16:14.008916Z,0.406546,0.160917,0.023451
2019-05-23T04:16:14.048916Z,0.276931,0.19613699999999998,-0.11923399999999999
2019-05-23T04:16:14.088916Z,0.292184,0.230525,-0.126806
2019-05-23T04:16:14.128916Z,-0.016809,0.198798,-0.20458099999999999
2019-05-23T04:16:14.167916Z,-0.016734,-0.017678,0.154027
2019-05-23T04:16:14.209916Z,-0.007043000000000001,-0.021386000000000002,0.153361
2019-05-23T04:16:14.248916Z,0.142206,0.048826999999999995,-0.060334000000000006
2019-05-23T04:16:14.288916Z,0.0561,0.024106,-0.068583
2019-05-23T04:16:14.329916Z,0.077265,0.039993,-0.07042000000000001
2019-05-23T04:16:14.367916Z,-0.041393,0.0029170000000000003,-0.068761
2019-05-23T04:16:14.408916Z,-0.187809,-0.125396,0.06603200000000001
2019-05-23T04:16:14.449916Z,-0.13208399999999998,-0.099712,0.06275599999999999
2019-05-23T04:16:14.489916Z,-0.046215,-0.12106800000000001,0.120083
2019-05-23T04:16:14.529916Z,-0.099552,-0.061108,-0.228292
2019-05-23T04:16:14.570916Z,-0.10305,-0.043882,-0.229589
2019-05-23T04:16:14.608916Z,-0.178758,0.090718,-0.130474
2019-05-23T04:16:14.648916Z,-0.113757,-0.365481,0.715368
2019-05-23T04:16:14.689916Z,-0.020434,-0.355604,0.711761
2019-05-23T04:16:14.729916Z,-0.022454,-0.384355,0.38013600000000003
2019-05-23T04:16:14.769916Z,-0.462186,-0.750506,0.5241399999999999
2019-05-23T04:16:14.811916Z,-0.38005900000000004,-0.826926,0.551054
2019-05-23T04:16:14.851916Z,-0.5380560000000001,-1.094709,-0.012084000000000001
2019-05-23T04:16:14.889916Z,-0.6084069999999999,-1.18692,-0.190492
2019-05-23T04:16:14.930916Z,-0.643521,-1.231174,-0.173272
2019-05-23T04:16:14.971916Z,-0.46196000000000004,-1.322352,-0.041418
2019-05-23T04:16:15.011916Z,0.132687,-1.2847680000000001,0.721707
2019-05-23T04:16:15.049916Z,0.125444,-1.277509,0.713771
2019-05-23T04:16:15.089916Z,0.45101099999999994,-0.969216,0.167959
2019-05-23T04:16:15.130916Z,0.44728900000000005,-0.8452940000000001,0.397782
2019-05-23T04:16:15.173916Z,0.41767600000000005,-0.801323,0.37916300000000003
2019-05-23T04:16:15.210916Z,0.30498800000000004,-1.134691,0.649459
2019-05-23T04:16:15.249916Z,0.781242,-1.25865,1.212415
2019-05-23T04:16:15.291916Z,0.799437,-1.3229520000000001,1.222831
2019-05-23T04:16:15.329916Z,1.2254969999999998,-1.083438,0.646357
2019-05-23T04:16:15.369916Z,0.9179219999999999,-0.42130200000000007,-0.806343
2019-05-23T04:16:15.411916Z,0.914947,-0.062491,-0.88084
2019-05-23T04:16:15.449916Z,0.552505,-0.6233380000000001,0.375798
2019-05-23T04:16:15.487916Z,1.046154,-1.995425,-0.104206
2019-05-23T04:16:15.528916Z,0.998749,-2.3480830000000004,-0.004987
2019-05-23T04:16:15.568916Z,1.2576459999999998,-1.9591720000000001,0.8857860000000001
2019-05-23T04:16:15.610916Z,1.062708,-0.6258729999999999,-1.193541
2019-05-23T04:16:15.649916Z,1.101068,-0.474662,-1.207506
2019-05-23T04:16:15.689916Z,1.422992,-1.139069,1.1219
2019-05-23T04:16:15.731916Z,1.282478,-0.865133,0.575231
2019-05-23T04:16:15.773916Z,1.26505,-0.8121079999999999,0.55593
2019-05-23T04:16:15.811916Z,1.386825,-0.289973,0.494616
2019-05-23T04:16:15.851916Z,1.344281,0.11695499999999999,0.386842
2019-05-23T04:16:15.889916Z,1.322074,0.23165100000000002,0.349853
2019-05-23T04:16:15.930916Z,1.559017,0.39554,0.618082
2019-05-23T04:16:15.970916Z,1.455683,-0.07143,1.43468
2019-05-23T04:16:16.012916Z,1.539035,-0.357723,1.494308
2019-05-23T04:16:16.052916Z,1.348386,-0.8712790000000001,1.501975
2019-05-23T04:16:16.089916Z,1.605156,-1.09018,0.471021
2019-05-23T04:16:16.130916Z,1.6669889999999998,-1.180819,0.505644
2019-05-23T04:16:16.170916Z,1.8276720000000002,-1.682447,1.289895
2019-05-23T04:16:16.211916Z,1.402113,-1.7207150000000002,-0.20180399999999998
2019-05-23T04:16:16.249916Z,1.4835260000000001,-1.8506049999999998,-0.129201
2019-05-23T04:16:16.291916Z,1.38334,-1.732896,-0.161716
2019-05-23T04:16:16.330916Z,1.307177,-1.137899,-0.72419
2019-05-23T04:16:16.372916Z,1.2173969999999998,-1.130843,-0.717737
2019-05-23T04:16:16.411916Z,1.0190569999999999,-0.567964,-0.570627
2019-05-23T04:16:16.450916Z,0.8535729999999999,-0.692238,0.48603900000000005
2019-05-23T04:16:16.491916Z,0.971138,-0.607599,0.46829
2019-05-23T04:16:16.530916Z,1.049703,-0.534918,0.129625
2019-05-23T04:16:16.572916Z,0.746322,-0.264653,0.164613
2019-05-23T04:16:16.613916Z,0.77442,-0.235379,0.16003199999999998
2019-05-23T04:16:16.650916Z,0.80752,0.021409,0.050792000000000004
2019-05-23T04:16:16.692916Z,0.7612329999999999,0.258494,-0.088651
2019-05-23T04:16:16.731916Z,0.826361,0.36120399999999997,-0.107573
2019-05-23T04:16:16.774916Z,0.783529,0.396041,0.096006
2019-05-23T04:16:16.811916Z,0.770173,0.46374799999999994,0.19555799999999998
2019-05-23T04:16:16.849916Z,0.814671,0.454481,0.20457999999999998
2019-05-23T04:16:16.909916Z,0.70289,0.184839,0.48972
2019-05-23T04:16:16.937916Z,0.505369,0.197987,0.24794699999999997
2019-05-23T04:16:16.968916Z,0.353632,0.098083,0.247204
2019-05-23T04:16:17.010916Z,0.021828,-0.474782,-0.084691
2019-05-23T04:16:17.048916Z,0.46534899999999996,-0.326324,0.069136
2019-05-23T04:16:17.088916Z,0.428234,-0.310795,0.060110000000000004
2019-05-23T04:16:17.128916Z,0.442388,-0.523837,-0.154373
2019-05-23T04:16:17.169916Z,0.28879099999999996,-0.558063,0.062076
2019-05-23T04:16:17.209916Z,0.168622,-0.544136,0.045308
2019-05-23T04:16:17.273916Z,0.14613800000000002,-0.52666,0.155271
2019-05-23T04:16:17.290916Z,0.54791,-0.259331,0.007051999999999999
2019-05-23T04:16:17.330916Z,0.537367,-0.21758200000000003,-0.004986
2019-05-23T04:16:17.370916Z,0.472138,0.287043,-0.6909810000000001
2019-05-23T04:16:17.410916Z,0.428907,0.400416,-0.7141649999999999
2019-05-23T04:16:17.450916Z,0.415066,0.45891499999999996,-0.722426
2019-05-23T04:16:17.490916Z,0.5465409999999999,0.660083,-0.5346479999999999
2019-05-23T04:16:17.531916Z,0.5043890000000001,0.578483,-0.139994
2019-05-23T04:16:17.570916Z,0.6043029999999999,0.598946,-0.133622
2019-05-23T04:16:17.610916Z,0.379948,0.9143700000000001,-0.124355
2019-05-23T04:16:17.650916Z,0.105966,0.6169819999999999,0.7873220000000001
2019-05-23T04:16:17.690916Z,0.19630799999999998,0.60213,0.787357
2019-05-23T04:16:17.732916Z,0.45083100000000004,0.882526,0.974615
2019-05-23T04:16:17.771916Z,0.5545,0.8404879999999999,1.0484209999999998
2019-05-23T04:16:17.811916Z,0.744109,0.965176,1.029699
2019-05-23T04:16:17.851916Z,0.348595,-0.242513,1.505415
2019-05-23T04:16:17.890916Z,0.147137,-0.734811,1.1002889999999999
2019-05-23T04:16:17.930916Z,0.126477,-0.971959,1.143785
2019-05-23T04:16:17.971916Z,-0.10771199999999999,-0.985778,-0.441097
2019-05-23T04:16:18.031916Z,0.160275,-0.4122,-1.2489620000000001
2019-05-23T04:16:18.061916Z,-0.087324,-0.556068,-1.220944
2019-05-23T04:16:18.089916Z,-1.481833,-0.995239,-0.532666
2019-05-23T04:16:18.130916Z,-0.454383,-0.551976,-0.365146
2019-05-23T04:16:18.170916Z,-0.419983,-0.664035,-0.310427
2019-05-23T04:16:18.211916Z,-0.23338000000000003,-0.163933,-1.805591
2019-05-23T04:16:18.250916Z,0.227661,0.38724699999999995,-0.535558
2019-05-23T04:16:18.293916Z,-0.094829,0.6935,-0.6620090000000001
2019-05-23T04:16:18.332916Z,-0.911162,1.6265479999999999,-1.282891
2019-05-23T04:16:18.385916Z,0.790659,0.084522,1.693764
2019-05-23T04:16:18.410916Z,0.723364,0.188142,1.6403729999999999
2019-05-23T04:16:18.450916Z,0.645948,-0.034395,2.2187080000000003
2019-05-23T04:16:18.490916Z,0.839621,0.21336,0.232859
2019-05-23T04:16:18.531916Z,0.6642979999999999,0.127021,0.25158
2019-05-23T04:16:18.571916Z,1.284158,-0.934867,1.793727
2019-05-23T04:16:18.610916Z,1.515403,-0.86718,-0.099452
2019-05-23T04:16:18.650916Z,1.59881,-0.890415,-0.093425
2019-05-23T04:16:18.691916Z,1.8314,-1.525182,0.59612
2019-05-23T04:16:18.731916Z,1.073185,-1.0230629999999998,-0.9355690000000001
2019-05-23T04:16:18.771916Z,1.2299229999999999,-1.129653,-0.8825729999999999
2019-05-23T04:16:18.811916Z,0.9548209999999999,-0.803415,-0.9275950000000001
2019-05-23T04:16:18.851916Z,0.477624,-0.331758,-1.7801900000000002
2019-05-23T04:16:18.934916Z,0.47196899999999997,-0.20381400000000002,-1.787407
2019-05-23T04:16:18.935916Z,-0.21514899999999998,-0.024966,-0.816673
2019-05-23T04:16:18.971916Z,-0.404531,-0.28225300000000003,1.119545
2019-05-23T04:16:19.011916Z,-0.5955199999999999,-0.364203,1.1324530000000002
2019-05-23T04:16:19.052916Z,0.022090000000000002,0.456355,0.21567399999999998
2019-05-23T04:16:19.092916Z,0.689723,0.528415,1.2546700000000002
2019-05-23T04:16:19.132916Z,0.825003,0.62462,1.198942
2019-05-23T04:16:19.172916Z,-0.21366300000000002,0.6561520000000001,0.145535
2019-05-23T04:16:19.212916Z,-0.29338600000000004,-0.8861889999999999,2.400647
2019-05-23T04:16:19.252916Z,-0.12526400000000001,-0.926434,2.377565
2019-05-23T04:16:19.292916Z,0.289987,-0.8699819999999999,0.219234
2019-05-23T04:16:19.331916Z,0.12201300000000001,-0.321857,-0.283463
2019-05-23T04:16:19.372916Z,0.153029,-0.309662,-0.28068000000000004
2019-05-23T04:16:19.412916Z,0.55558,-0.7368859999999999,-0.44943500000000003
2019-05-23T04:16:19.452916Z,0.48942700000000006,-0.427569,-0.895257
2019-05-23T04:16:19.491916Z,0.686355,-0.42937,-0.865557
2019-05-23T04:16:19.533916Z,1.9e-05,-0.39158699999999996,-1.233079
2019-05-23T04:16:19.572916Z,0.406781,0.401555,-0.353896
2019-05-23T04:16:19.612916Z,0.159965,0.35824,-0.346913
2019-05-23T04:16:19.651916Z,-0.8913030000000001,0.591511,-1.005897
2019-05-23T04:16:19.691916Z,-0.36009,0.5114380000000001,0.188333
2019-05-23T04:16:19.731916Z,-0.49078299999999997,0.5785170000000001,0.167687
2019-05-23T04:16:19.772916Z,-1.082323,-0.066549,2.3897060000000003
2019-05-23T04:16:19.812916Z,0.687016,1.208566,1.51294
2019-05-23T04:16:19.852916Z,0.573832,1.311403,1.454826
2019-05-23T04:16:19.892916Z,0.704176,-0.19604100000000002,1.335092
2019-05-23T04:16:19.933916Z,1.5470549999999998,-1.166793,1.13231
2019-05-23T04:16:19.973916Z,1.650932,-1.2063270000000001,1.127817
2019-05-23T04:16:20.013916Z,1.237952,-1.387391,-0.233519
2019-05-23T04:16:20.053916Z,0.607626,-1.327125,-1.351399
2019-05-23T04:16:20.095916Z,0.5701729999999999,-1.272162,-1.33979
2019-05-23T04:16:20.131916Z,0.24809,-0.80193,-1.546129
2019-05-23T04:16:20.199916Z,0.444062,-0.371057,-1.136221
2019-05-23T04:16:20.212916Z,0.5208619999999999,-0.30754899999999996,-1.1352959999999999
2019-05-23T04:16:20.251916Z,-0.232055,-0.088614,-1.2860040000000001
2019-05-23T04:16:20.291916Z,-0.505674,0.204273,-0.671461
2019-05-23T04:16:20.332916Z,-0.556726,0.180726,-0.653341
2019-05-23T04:16:20.372916Z,-0.394881,0.377275,0.01209
2019-05-23T04:16:20.413916Z,-0.345316,0.0264,1.352331
2019-05-23T04:16:20.452916Z,-0.21070100000000003,0.00042300000000000004,1.336011
2019-05-23T04:16:20.492916Z,-0.847025,-0.24225,1.765666
2019-05-23T04:16:20.534916Z,-1.113211,0.332252,1.755495
2019-05-23T04:16:20.573916Z,-1.205698,0.282038,1.740536
2019-05-23T04:16:20.612916Z,-1.243098,-0.5200520000000001,1.340559
2019-05-23T04:16:20.652916Z,-1.444041,-1.144656,0.38633
2019-05-23T04:16:20.694916Z,-1.357226,-1.140842,0.38500700000000004
2019-05-23T04:16:20.733916Z,-1.6747310000000002,-0.742641,-1.37428
2019-05-23T04:16:20.772916Z,-1.00227,-0.602278,-0.879805
2019-05-23T04:16:20.813916Z,-0.969563,-0.5774739999999999,-0.8698739999999999
2019-05-23T04:16:20.854916Z,-0.556816,-0.9143620000000001,-0.44878100000000004
2019-05-23T04:16:20.893916Z,-0.352039,-0.580384,-0.524547
2019-05-23T04:16:20.933916Z,-0.29881599999999997,-0.576645,-0.51297
2019-05-23T04:16:20.975916Z,-0.243421,-0.36306900000000003,-0.199401
2019-05-23T04:16:21.014916Z,-0.024156999999999998,0.054831,0.214522
2019-05-23T04:16:21.055916Z,0.166318,-0.12843800000000002,0.283217
2019-05-23T04:16:21.094916Z,0.547971,0.332544,0.790655
2019-05-23T04:16:21.135916Z,-0.653863,0.44971400000000006,0.181171
2019-05-23T04:16:21.175916Z,-0.525094,0.368742,0.21681
2019-05-23T04:16:21.215916Z,-0.028618,0.387872,1.418212
2019-05-23T04:16:21.255916Z,-0.29999000000000003,-0.065611,0.9536709999999999
2019-05-23T04:16:21.295916Z,-0.17263499999999998,-0.11926500000000001,0.971744
2019-05-23T04:16:21.335916Z,0.285134,-1.2429540000000001,1.017496
2019-05-23T04:16:21.377916Z,-0.22868899999999998,-1.396521,0.597417
2019-05-23T04:16:21.415916Z,-0.11006400000000001,-1.516453,0.659284
2019-05-23T04:16:21.455916Z,0.189373,-1.598227,0.021358000000000002
2019-05-23T04:16:21.495916Z,0.632653,-1.171437,-1.181427
2019-05-23T04:16:21.536916Z,0.904001,-1.205392,-1.076247
2019-05-23T04:16:21.573916Z,0.597799,-0.940952,-1.1582370000000002
2019-05-23T04:16:21.613916Z,-1.065603,-0.865481,-1.948316
2019-05-23T04:16:21.676916Z,-1.118415,-0.595046,-2.03577
2019-05-23T04:16:21.705916Z,-0.8383510000000001,-0.386056,-0.430987
2019-05-23T04:16:21.732916Z,-1.9033470000000001,-1.477851,1.793568
2019-05-23T04:16:21.773916Z,-2.1729060000000002,-1.659212,1.791857
2019-05-23T04:16:21.814916Z,0.005915,-1.333988,1.9820259999999998
2019-05-23T04:16:21.855916Z,0.71578,-1.3571739999999999,1.1017629999999998
2019-05-23T04:16:21.895916Z,0.5888439999999999,-1.280253,1.0440479999999999
2019-05-23T04:16:21.934916Z,0.6908979999999999,-1.0337,0.525594
2019-05-23T04:16:21.976916Z,0.48445299999999997,-1.938384,2.4249330000000002
2019-05-23T04:16:22.014916Z,0.555271,-2.033443,2.442731
2019-05-23T04:16:22.054916Z,0.198237,-3.096515,2.1815700000000002
2019-05-23T04:16:22.095916Z,-0.489726,-3.6586839999999996,1.142488
2019-05-23T04:16:22.134916Z,-0.378333,-3.8506949999999995,1.248977
2019-05-23T04:16:22.174916Z,-2.1665400000000004,-5.462219,0.967706
2019-05-23T04:16:22.214916Z,-1.477039,-6.150295,1.545623
2019-05-23T04:16:22.253916Z,-1.592559,-6.390052,1.700908
2019-05-23T04:16:22.294916Z,0.027431,-4.144183,0.617501
2019-05-23T04:16:22.334916Z,1.204689,-2.011795,1.177889
2019-05-23T04:16:22.375916Z,1.323081,-1.921023,1.143892
2019-05-23T04:16:22.414916Z,1.7035509999999998,-0.9287489999999999,0.8843190000000001
2019-05-23T04:16:22.454916Z,0.914516,-1.130236,0.260383
2019-05-23T04:16:22.495916Z,0.880426,-1.08891,0.240952
2019-05-23T04:16:22.536916Z,0.543876,-2.02388,0.927573
2019-05-23T04:16:22.575916Z,0.795161,-1.510052,1.134368
2019-05-23T04:16:22.616916Z,0.726487,-1.4450129999999999,1.087016
2019-05-23T04:16:22.656916Z,0.882969,-1.362417,1.1042610000000002
2019-05-23T04:16:22.696916Z,1.536925,-1.886495,1.8249849999999999
2019-05-23T04:16:22.736916Z,1.35382,-1.8906290000000001,1.7968790000000001
2019-05-23T04:16:22.776916Z,1.4612610000000001,-2.730276,1.4037600000000001
2019-05-23T04:16:22.817916Z,1.109513,-2.605958,0.354279
2019-05-23T04:16:22.856916Z,0.975417,-2.57633,0.34837199999999996
2019-05-23T04:16:22.896916Z,1.2427350000000001,-2.347596,1.1495790000000001
2019-05-23T04:16:22.937916Z,1.532456,-1.9262169999999998,0.829556
2019-05-23T04:16:22.976916Z,1.474905,-1.7898009999999998,0.767475
2019-05-23T04:16:23.016916Z,1.459441,-1.6967310000000002,0.9500370000000001
2019-05-23T04:16:23.058916Z,1.531179,-1.596488,0.848115
2019-05-23T04:16:23.096916Z,1.5361879999999999,-1.4877209999999998,0.8006949999999999
2019-05-23T04:16:23.136916Z,1.4127319999999999,-1.140068,0.1225
2019-05-23T04:16:23.175916Z,1.056921,-0.9356,0.155257
2019-05-23T04:16:23.215916Z,0.9723799999999999,-0.8622059999999999,0.13014
2019-05-23T04:16:23.255916Z,1.182123,-0.38792,-0.043388
2019-05-23T04:16:23.296916Z,1.310725,-0.133546,0.515942
2019-05-23T04:16:23.335916Z,1.327396,-0.136227,0.508884
2019-05-23T04:16:23.375916Z,1.048725,0.022580000000000003,0.647768
2019-05-23T04:16:23.416916Z,-0.012359,0.05911,0.078813
2019-05-23T04:16:23.457916Z,-0.020822999999999998,0.008187,0.095555
2019-05-23T04:16:23.497916Z,-0.391374,-0.095873,0.571551
2019-05-23T04:16:23.537916Z,0.67495,0.27865500000000004,1.2972549999999998
2019-05-23T04:16:23.577916Z,0.772303,0.198966,1.30834
2019-05-23T04:16:23.617916Z,0.503155,0.032113,0.551131
2019-05-23T04:16:23.656916Z,0.538853,-0.723503,1.338242
2019-05-23T04:16:23.696916Z,0.5969909999999999,-0.654258,1.293311
2019-05-23T04:16:23.736916Z,-0.281186,-1.8890349999999998,0.8931690000000001
2019-05-23T04:16:23.779916Z,-0.267434,-2.338367,1.133846
2019-05-23T04:16:23.815916Z,-0.252504,-2.369796,1.1441059999999998
2019-05-23T04:16:23.855916Z,0.138924,-1.78836,0.26159699999999997
2019-05-23T04:16:23.896916Z,0.43533,-1.202358,-0.51757
2019-05-23T04:16:23.936916Z,0.55942,-1.156612,-0.510879
2019-05-23T04:16:23.975916Z,0.480199,-0.942901,-0.42545900000000003
2019-05-23T04:16:24.016916Z,0.178052,-0.8627610000000001,-0.38693
2019-05-23T04:16:24.056916Z,0.24205300000000002,-0.8722799999999999,-0.364211
2019-05-23T04:16:24.096916Z,0.23369600000000001,-0.8279059999999999,-0.196401
2019-05-23T04:16:24.136916Z,0.44489700000000004,-0.49036499999999994,-0.099777
2019-05-23T04:16:24.176916Z,0.49918199999999996,-0.507269,-0.08052000000000001
2019-05-23T04:16:24.216916Z,0.514497,-0.197526,0.22718400000000002
2019-05-23T04:16:24.256916Z,0.331285,0.06354800000000001,0.321017
2019-05-23T04:16:24.296916Z,0.276102,0.020822,0.327059
2019-05-23T04:16:24.336916Z,0.335789,0.10761300000000001,0.815187
2019-05-23T04:16:24.378916Z,0.7619199999999999,0.132651,0.6950069999999999
2019-05-23T04:16:24.417916Z,0.686854,0.226859,0.63448
2019-05-23T04:16:24.457916Z,0.6787340000000001,-0.16047999999999998,0.396419
2019-05-23T04:16:24.497916Z,1.355271,-1.273736,1.296865
2019-05-23T04:16:24.537916Z,1.529726,-1.299877,1.323545
2019-05-23T04:16:24.578916Z,1.481128,-1.145948,0.159935
2019-05-23T04:16:24.618916Z,1.252681,-1.038832,0.162167
2019-05-23T04:16:24.657916Z,1.305434,-1.092596,0.20454
2019-05-23T04:16:24.697916Z,0.6433979999999999,-1.032314,-0.014719
2019-05-23T04:16:24.738916Z,0.768129,-0.676873,-0.7173229999999999
2019-05-23T04:16:24.778916Z,0.795142,-0.65012,-0.704531
2019-05-23T04:16:24.818916Z,0.46388900000000005,-0.129466,-0.783909
2019-05-23T04:16:24.858916Z,0.357995,-0.09360700000000001,-0.283351
2019-05-23T04:16:24.897916Z,0.344111,-0.101889,-0.275568
2019-05-23T04:16:24.938916Z,0.590867,0.127119,0.301087
2019-05-23T04:16:24.978916Z,0.248402,0.24400700000000003,-0.119853
2019-05-23T04:16:25.035916Z,0.242366,0.24110399999999998,-0.118782
2019-05-23T04:16:25.064916Z,0.29136999999999996,0.710272,0.24393800000000002
2019-05-23T04:16:25.098916Z,0.5452100000000001,0.758641,0.696342
2019-05-23T04:16:25.136916Z,0.629979,0.694446,0.727571
2019-05-23T04:16:25.177916Z,0.392951,0.350152,0.5631550000000001
2019-05-23T04:16:25.218916Z,0.177062,0.024846,0.353912
2019-05-23T04:16:25.257916Z,0.04294,-0.016301,0.344472
2019-05-23T04:16:25.302916Z,0.09249099999999999,-1.144626,1.261827
2019-05-23T04:16:25.337916Z,0.353706,-1.097424,0.780306
2019-05-23T04:16:25.377916Z,0.400771,-1.110894,0.792028
2019-05-23T04:16:25.423916Z,0.376778,-1.0708879999999998,-0.175439
2019-05-23T04:16:25.457916Z,0.0007070000000000001,-1.109213,-0.393959
2019-05-23T04:16:25.497916Z,-0.007913,-1.106833,-0.380915
2019-05-23T04:16:25.537916Z,0.350971,-0.961227,-0.05022
2019-05-23T04:16:25.578916Z,0.323231,-0.68981,-0.326469
2019-05-23T04:16:25.617916Z,0.31456,-0.66574,-0.327731
2019-05-23T04:16:25.657916Z,0.287679,-0.511613,-0.351259
2019-05-23T04:16:25.698916Z,0.189609,-0.43389399999999995,-0.15759
2019-05-23T04:16:25.737916Z,0.131718,-0.405107,-0.17441700000000002
2019-05-23T04:16:25.778916Z,0.001945,-0.417333,0.041245
2019-05-23T04:16:25.819916Z,0.115915,-0.214194,0.252108
2019-05-23T04:16:25.858916Z,0.082388,-0.19045499999999999,0.233648
2019-05-23T04:16:25.898916Z,0.091737,0.06161900000000001,-0.060177
2019-05-23T04:16:25.939916Z,0.287823,0.45507600000000004,0.192555
2019-05-23T04:16:25.979916Z,0.335148,0.49615600000000004,0.173226
2019-05-23T04:16:26.019916Z,0.439463,0.730796,-0.26040599999999997
2019-05-23T04:16:26.059916Z,0.725681,0.174816,-0.613056
2019-05-23T04:16:26.099916Z,0.691418,0.297597,-0.659825
2019-05-23T04:16:26.139916Z,0.128448,-0.328323,0.368406
2019-05-23T04:16:26.179916Z,0.669668,-0.7957810000000001,0.31976
2019-05-23T04:16:26.219916Z,0.696458,-0.698466,0.286015
2019-05-23T04:16:26.259916Z,0.874569,-0.478843,0.30183499999999996
2019-05-23T04:16:26.299916Z,0.590654,-0.8549129999999999,0.49094
2019-05-23T04:16:26.339916Z,0.660327,-0.726719,0.45433599999999996
2019-05-23T04:16:26.379916Z,0.152195,-0.761916,0.434704
2019-05-23T04:16:26.419916Z,-0.077314,-0.49113999999999997,0.23399899999999998
2019-05-23T04:16:26.459916Z,-0.022313,-0.475401,0.23719200000000001
2019-05-23T04:16:26.501916Z,0.057057000000000004,0.09362100000000001,-0.8431
2019-05-23T04:16:26.540916Z,-0.203312,0.48031599999999997,-0.744718
2019-05-23T04:16:26.579916Z,-0.22288000000000002,0.502836,-0.746672
2019-05-23T04:16:26.617916Z,-0.5632659999999999,0.441133,-0.16752
2019-05-23T04:16:26.712916Z,-0.7958569999999999,0.8264729999999999,-0.148078
2019-05-23T04:16:26.713916Z,-0.8367129999999999,0.811283,-0.153949
2019-05-23T04:16:26.744916Z,-0.600669,0.293953,0.27769
2019-05-23T04:16:26.777916Z,-0.624232,0.41514700000000004,0.533179
2019-05-23T04:16:26.817916Z,-0.658939,0.31925,0.550589
2019-05-23T04:16:26.858916Z,0.054986,0.5319729999999999,1.0904
2019-05-23T04:16:26.899916Z,0.34780500000000003,0.50159,-0.12850599999999998
2019-05-23T04:16:26.938916Z,0.338173,0.6987680000000001,-0.201221
2019-05-23T04:16:26.981916Z,-0.620522,-0.465557,0.9396190000000001
2019-05-23T04:16:27.018916Z,-0.774613,-1.4548709999999998,1.899762
2019-05-23T04:16:27.081916Z,-0.746939,-1.5740969999999999,1.9236240000000002
2019-05-23T04:16:27.099916Z,0.314628,-1.045688,-0.332458
2019-05-23T04:16:27.140916Z,0.358404,-1.042115,-0.730371
2019-05-23T04:16:27.178916Z,0.33748,-0.927859,-0.75726
2019-05-23T04:16:27.222916Z,-0.160708,-0.8305290000000001,-0.780296
2019-05-23T04:16:27.258916Z,-0.11970399999999999,-0.395852,-0.781487
2019-05-23T04:16:27.298916Z,-0.376339,-0.342839,-0.811533
2019-05-23T04:16:27.343916Z,-0.810888,-0.42423599999999995,-0.23174099999999997
2019-05-23T04:16:27.378916Z,-0.30489499999999997,-0.271596,-0.045877
2019-05-23T04:16:27.418916Z,-0.41078100000000006,-0.342819,-0.020451
2019-05-23T04:16:27.459916Z,0.6997909999999999,0.047369999999999995,0.16711900000000002
2019-05-23T04:16:27.499916Z,0.395635,0.239244,-0.009509
2019-05-23T04:16:27.538916Z,0.425224,0.230253,-0.0065840000000000004
2019-05-23T04:16:27.579916Z,-0.490126,0.533173,0.316427
2019-05-23T04:16:27.620916Z,-0.403402,0.205089,1.399897
2019-05-23T04:16:27.660916Z,-0.352599,0.058276,1.433937
2019-05-23T04:16:27.700916Z,-0.067953,-0.085328,0.339099
2019-05-23T04:16:27.740916Z,0.028667,-0.6901430000000001,0.372843
2019-05-23T04:16:27.780916Z,-0.144372,-0.689177,0.371436
2019-05-23T04:16:27.821916Z,0.287611,-1.490085,1.730954
2019-05-23T04:16:27.860916Z,0.8888940000000001,-1.55714,0.698
2019-05-23T04:16:27.900916Z,0.9842200000000001,-1.585604,0.7088220000000001
2019-05-23T04:16:27.940916Z,0.772744,-1.0049299999999999,-0.668636
2019-05-23T04:16:27.982916Z,0.362793,-0.629663,-0.8548110000000001
2019-05-23T04:16:28.020916Z,0.314973,-0.602299,-0.847464
2019-05-23T04:16:28.060916Z,0.349506,-0.580832,0.308323
2019-05-23T04:16:28.100916Z,0.558222,-0.345032,-0.217225
2019-05-23T04:16:28.141916Z,0.643054,-0.305805,-0.22591599999999998
2019-05-23T04:16:28.179916Z,0.363987,-0.098126,-0.412213
2019-05-23T04:16:28.280916Z,-0.21795799999999999,0.057588,-0.49228599999999995
2019-05-23T04:16:28.281916Z,-0.3108,0.135722,-0.514059
2019-05-23T04:16:28.315916Z,0.313967,0.309256,0.381633
2019-05-23T04:16:28.340916Z,0.254245,0.338798,0.204172
2019-05-23T04:16:28.379916Z,0.260333,0.38593099999999997,0.18187899999999999
2019-05-23T04:16:28.419916Z,0.407474,0.45806499999999994,0.396328
2019-05-23T04:16:28.460916Z,0.095973,0.19511099999999998,0.500859
2019-05-23T04:16:28.500916Z,0.110035,0.152306,0.506638
2019-05-23T04:16:28.539916Z,0.47326599999999996,0.279171,0.293579
2019-05-23T04:16:28.582916Z,0.577325,-0.038793,0.195737
2019-05-23T04:16:28.620916Z,0.551465,0.045258,0.16301300000000002
2019-05-23T04:16:28.661916Z,0.853511,-0.541493,1.2161309999999999
2019-05-23T04:16:28.700916Z,1.146829,-1.016779,1.106147
2019-05-23T04:16:28.741916Z,1.144868,-1.017349,1.093809
2019-05-23T04:16:28.780916Z,1.489362,-0.561746,-0.048895
2019-05-23T04:16:28.821916Z,1.667488,-0.440988,-0.147866
2019-05-23T04:16:28.860916Z,1.618557,-0.41459799999999997,-0.151728
2019-05-23T04:16:28.900916Z,1.134732,-0.38779600000000003,-0.40172399999999997
2019-05-23T04:16:28.940916Z,0.591638,-0.6021989999999999,-0.292247
2019-05-23T04:16:28.981916Z,0.48650600000000005,-0.585422,-0.286854
2019-05-23T04:16:29.020916Z,-1.203769,-0.699198,-0.35272
2019-05-23T04:16:29.062916Z,-0.7811279999999999,-0.11001099999999998,-0.054084
2019-05-23T04:16:29.102916Z,-0.8655149999999999,-0.140573,-0.034736
2019-05-23T04:16:29.143916Z,-0.109633,-0.061391999999999995,0.7083189999999999
2019-05-23T04:16:29.184916Z,-0.11658900000000001,-0.023467,0.085906
2019-05-23T04:16:29.222916Z,-0.024723,-0.023428,0.078848
2019-05-23T04:16:29.262916Z,-0.073281,0.008229,-0.107805
2019-05-23T04:16:29.302916Z,-0.45691099999999996,-0.124169,0.272391
2019-05-23T04:16:29.341916Z,-0.554832,-0.151343,0.285947
2019-05-23T04:16:29.382916Z,0.22851100000000002,0.036179,1.161673
2019-05-23T04:16:29.421916Z,0.64453,0.211323,0.758423
2019-05-23T04:16:29.462916Z,0.571152,0.336948,0.7087640000000001
2019-05-23T04:16:29.502916Z,0.525972,-0.776597,1.139425
2019-05-23T04:16:29.541916Z,0.135047,-1.648881,1.527387
2019-05-23T04:16:29.582916Z,0.186687,-1.7329150000000002,1.5341930000000001
2019-05-23T04:16:29.622916Z,-0.136545,-1.758843,0.029548
2019-05-23T04:16:29.662916Z,0.804823,-1.027944,-0.5710729999999999
2019-05-23T04:16:29.701916Z,0.772267,-1.0170569999999999,-0.557437
2019-05-23T04:16:29.741916Z,0.251216,-1.218668,-0.605621
2019-05-23T04:16:29.782916Z,0.08152000000000001,-1.4041270000000001,0.014369999999999999
2019-05-23T04:16:29.821916Z,0.22011799999999998,-1.3661709999999998,-0.002328
2019-05-23T04:16:29.863916Z,0.11950999999999999,-0.992035,-0.184033
2019-05-23T04:16:29.902916Z,-0.019427,-0.779072,-0.080458
2019-05-23T04:16:29.943916Z,0.0072900000000000005,-0.818952,-0.06300399999999999
2019-05-23T04:16:29.983916Z,0.161365,-0.6464479999999999,0.282566
2019-05-23T04:16:30.021916Z,0.31188499999999997,-0.286939,0.126588
2019-05-23T04:16:30.061916Z,0.398873,-0.236558,0.105501
2019-05-23T04:16:30.136916Z,-0.0040869999999999995,-0.10504100000000001,0.28492399999999996
2019-05-23T04:16:30.151916Z,0.058130999999999995,0.056369,1.351393
2019-05-23T04:16:30.183916Z,0.076387,-0.093673,1.381094
2019-05-23T04:16:30.221916Z,0.581843,-0.280183,1.5043229999999999
2019-05-23T04:16:30.266916Z,0.567645,-0.739938,0.34274099999999996
2019-05-23T04:16:30.300916Z,0.503727,-0.734362,0.34078
2019-05-23T04:16:30.341916Z,1.273166,-1.356365,1.1939950000000001
2019-05-23T04:16:30.382916Z,1.770254,-2.435517,1.6871909999999999
2019-05-23T04:16:30.422916Z,1.8690790000000002,-2.58777,1.7394189999999998
2019-05-23T04:16:30.462916Z,2.20439,-2.389397,-0.009562000000000001
2019-05-23T04:16:30.506916Z,2.020741,-2.205968,-0.48548900000000006
2019-05-23T04:16:30.541916Z,1.975683,-2.1534299999999997,-0.48406800000000005
2019-05-23T04:16:30.581916Z,1.85172,-2.136192,0.391232
2019-05-23T04:16:30.622916Z,1.566025,-1.7590299999999999,0.32952
2019-05-23T04:16:30.662916Z,1.626679,-1.671688,0.298971
2019-05-23T04:16:30.701916Z,0.9883719999999999,-1.403171,-0.054015
2019-05-23T04:16:30.741916Z,-0.096525,-1.3654879999999998,-0.368888
2019-05-23T04:16:30.782916Z,-0.132723,-1.246585,-0.398729
2019-05-23T04:16:30.822916Z,-0.48482700000000006,-0.9442530000000001,0.010429
2019-05-23T04:16:30.862916Z,0.034026,-0.561982,0.252337
2019-05-23T04:16:30.902916Z,0.117593,-0.435222,0.20712199999999997
2019-05-23T04:16:30.942916Z,-0.11039500000000001,-0.479444,0.161957
2019-05-23T04:16:30.986916Z,-0.104191,-0.758889,1.6929040000000002
2019-05-23T04:16:31.024916Z,-0.095039,-0.8668889999999999,1.706636
2019-05-23T04:16:31.064916Z,0.098348,-0.512351,1.498622
2019-05-23T04:16:31.104916Z,0.377297,-0.676122,0.336847
2019-05-23T04:16:31.142916Z,0.337048,-0.47264700000000004,0.272415
2019-05-23T04:16:31.183916Z,0.35031999999999996,-2.453225,2.099071
2019-05-23T04:16:31.223916Z,0.026241000000000004,-2.6329119999999997,0.385767
2019-05-23T04:16:31.264916Z,0.114094,-2.5650619999999997,0.379153
2019-05-23T04:16:31.303916Z,0.148793,-1.431016,-0.732218
2019-05-23T04:16:31.341916Z,-0.185675,-1.412153,-0.757326
2019-05-23T04:16:31.382916Z,-0.210982,-1.325116,-0.7621560000000001
2019-05-23T04:16:31.457916Z,-0.176077,-1.200401,-0.172475
2019-05-23T04:16:31.472916Z,0.00016,-1.083085,0.222621
2019-05-23T04:16:31.504916Z,-0.098816,-1.1558110000000001,0.233352
2019-05-23T04:16:31.541916Z,0.10621199999999999,-0.802447,0.018979
2019-05-23T04:16:31.583916Z,0.36645300000000003,-0.535355,0.16233399999999998
2019-05-23T04:16:31.623916Z,0.410013,-0.6239319999999999,0.18757000000000001
2019-05-23T04:16:31.662916Z,0.378866,-0.31193000000000004,0.245234
2019-05-23T04:16:31.704916Z,0.154576,0.326104,-0.349079
2019-05-23T04:16:31.743916Z,0.10548199999999999,0.328121,-0.348281
2019-05-23T04:16:31.811916Z,-0.125338,0.260321,0.284045
2019-05-23T04:16:31.822916Z,-0.055087,-0.167545,1.3091709999999999
2019-05-23T04:16:31.865916Z,0.358406,-0.20233800000000002,1.336226
2019-05-23T04:16:31.902916Z,0.6911619999999999,-0.70624,0.370008
2019-05-23T04:16:31.942916Z,-0.167882,-0.9476530000000001,2.193296
2019-05-23T04:16:31.983916Z,-0.053673,-1.176034,2.248279
2019-05-23T04:16:32.022916Z,0.57743,-2.3386,1.234461
2019-05-23T04:16:32.065916Z,0.22105300000000003,-1.57846,-0.024966
2019-05-23T04:16:32.104916Z,0.023763,-1.783996,0.037624
2019-05-23T04:16:32.143916Z,-0.21601199999999998,-1.567164,-0.9635319999999999
2019-05-23T04:16:32.182916Z,-0.667928,-1.5340639999999999,-0.467474
2019-05-23T04:16:32.223916Z,-0.828365,-1.539862,-0.457775
2019-05-23T04:16:32.262916Z,-0.382011,-1.046363,-1.090093
2019-05-23T04:16:32.303916Z,-0.007864,-0.190439,-1.169621
2019-05-23T04:16:32.343916Z,-0.07981,0.125447,-1.273841
2019-05-23T04:16:32.385916Z,-0.331246,0.182506,-0.45909300000000003
2019-05-23T04:16:32.425916Z,-0.366242,0.107369,0.9195610000000001
2019-05-23T04:16:32.465916Z,-0.573567,0.039309,0.928588
2019-05-23T04:16:32.504916Z,-0.281325,0.25703899999999996,0.44632200000000005
2019-05-23T04:16:32.544916Z,0.064637,0.309015,0.895123
2019-05-23T04:16:32.585916Z,0.138478,0.225727,0.907424
2019-05-23T04:16:32.625916Z,0.221394,0.32963000000000003,1.2551139999999998
2019-05-23T04:16:32.664916Z,0.32219200000000003,-0.325024,0.157427
2019-05-23T04:16:32.704916Z,0.2378,-0.32472,0.157426
2019-05-23T04:16:32.745916Z,0.6306069999999999,-1.647371,1.719084
2019-05-23T04:16:32.786916Z,0.719362,-1.51701,0.432122
2019-05-23T04:16:32.825916Z,0.8524579999999999,-1.495483,0.427649
2019-05-23T04:16:32.863916Z,0.893286,-1.181241,-0.253162
2019-05-23T04:16:32.903916Z,0.031047,-1.288041,-1.2086459999999999
2019-05-23T04:16:33.027916Z,-0.093421,-1.261962,-1.1924620000000001
2019-05-23T04:16:33.030916Z,0.179765,-0.948736,-0.14544200000000002
2019-05-23T04:16:33.031916Z,0.21242199999999997,-0.652913,-0.714042
2019-05-23T04:16:33.064916Z,0.18391400000000002,-0.629576,-0.7063619999999999
2019-05-23T04:16:33.103916Z,0.459158,-0.021541,-0.55052
2019-05-23T04:16:33.144916Z,-0.0040490000000000005,0.052282,-0.487662
2019-05-23T04:16:33.184916Z,-0.10079,0.060978,-0.480455
2019-05-23T04:16:33.224916Z,-0.11314600000000001,0.138983,0.20771900000000001
2019-05-23T04:16:33.264916Z,0.003954,0.484583,0.559904
2019-05-23T04:16:33.304916Z,-0.0225,0.49208100000000005,0.546204
2019-05-23T04:16:33.343916Z,-0.093957,0.598362,0.9733040000000001
2019-05-23T04:16:33.383916Z,0.126022,0.6100760000000001,1.4926840000000001
2019-05-23T04:16:33.424916Z,0.24180100000000002,0.6142489999999999,1.459085
2019-05-23T04:16:33.464916Z,0.208267,0.49996,0.24257199999999998
2019-05-23T04:16:33.503916Z,0.158479,-0.43936400000000003,1.523396
2019-05-23T04:16:33.544916Z,0.263513,-0.59945,1.551604
2019-05-23T04:16:33.585916Z,0.405254,-1.889331,1.116609
2019-05-23T04:16:33.623916Z,0.9611139999999999,-0.9508790000000001,-1.047498
2019-05-23T04:16:33.664916Z,1.091505,-0.8993760000000001,-1.040517
2019-05-23T04:16:33.705916Z,0.34167600000000004,-1.07066,-0.299214
2019-05-23T04:16:33.744916Z,-0.364479,-1.30512,-0.19613599999999998
2019-05-23T04:16:33.785916Z,-0.409587,-1.211904,-0.216444
2019-05-23T04:16:33.826916Z,-0.33669,-1.332277,-0.135033
2019-05-23T04:16:33.865916Z,-0.247196,-0.788733,-0.44726400000000005
2019-05-23T04:16:33.906916Z,-0.343999,-0.753862,-0.44698699999999997
2019-05-23T04:16:33.946916Z,-0.24251999999999999,0.04882,-0.520309
2019-05-23T04:16:33.988916Z,-0.025218,0.39400300000000005,0.09149600000000001
2019-05-23T04:16:34.026916Z,-0.11343299999999999,0.368562,0.098361
2019-05-23T04:16:34.067916Z,0.162349,-0.035401,0.742979
2019-05-23T04:16:34.106916Z,0.274407,0.078779,0.9887790000000001
2019-05-23T04:16:34.146916Z,0.33514499999999997,-0.035276999999999996,1.006933
2019-05-23T04:16:34.186916Z,0.38173,0.280476,1.1711610000000001
2019-05-23T04:16:34.227916Z,0.41008199999999995,0.07070900000000001,-0.16530899999999998
2019-05-23T04:16:34.267916Z,0.3452,0.218596,-0.210904
2019-05-23T04:16:34.306916Z,-0.22358000000000003,-0.934544,0.7769520000000001
2019-05-23T04:16:34.347916Z,-0.162096,-1.480006,0.65981
2019-05-23T04:16:34.387916Z,-0.173163,-1.5461209999999999,0.6781689999999999
2019-05-23T04:16:34.426916Z,0.327652,-1.1623940000000001,0.111446
2019-05-23T04:16:34.467916Z,0.540375,-1.228704,-0.169326
2019-05-23T04:16:34.504916Z,0.6068520000000001,-1.1895229999999999,-0.170631
2019-05-23T04:16:34.544916Z,-0.33392,-1.2062549999999999,-0.47119399999999995
2019-05-23T04:16:34.626916Z,-0.29944299999999996,-0.573214,-0.27856
2019-05-23T04:16:34.627916Z,-0.288298,-0.48143,-0.299712
2019-05-23T04:16:34.665916Z,-0.8819110000000001,-0.393932,-0.656746
2019-05-23T04:16:34.705916Z,-1.1986620000000001,-0.124188,-0.27465700000000004
2019-05-23T04:16:34.745916Z,-1.391484,-0.06605,-0.283011
2019-05-23T04:16:34.787916Z,-1.502445,-0.123457,0.12409
2019-05-23T04:16:34.826916Z,-1.2374370000000001,-0.055788,0.215304
2019-05-23T04:16:34.866916Z,-1.243198,-0.015172,0.201811
2019-05-23T04:16:34.905916Z,-1.328969,0.195762,0.098009
2019-05-23T04:16:34.946916Z,-1.651009,-0.202213,0.307836
2019-05-23T04:16:34.985916Z,-1.555346,-0.192232,0.299106
2019-05-23T04:16:35.025916Z,-1.274081,-0.506097,0.34060300000000004
2019-05-23T04:16:35.066916Z,-1.083069,-1.049258,0.610306
2019-05-23T04:16:35.106916Z,-1.017563,-0.937793,0.577098
2019-05-23T04:16:35.146916Z,-1.09391,-1.6957849999999999,1.070533
2019-05-23T04:16:35.185916Z,-0.617241,-2.101604,0.9430850000000001
2019-05-23T04:16:35.226916Z,-0.5666979999999999,-2.086383,0.9328770000000001
2019-05-23T04:16:35.267916Z,-0.221847,-1.382564,0.184726
2019-05-23T04:16:35.306916Z,0.423467,-1.229072,0.689577
2019-05-23T04:16:35.346916Z,0.631137,-1.182012,0.677779
2019-05-23T04:16:35.391916Z,0.8578479999999999,-0.48595299999999997,-0.652857
2019-05-23T04:16:35.427916Z,0.6128319999999999,0.19416,-0.698691
2019-05-23T04:16:35.467916Z,0.6060939999999999,0.172191,-0.682563
2019-05-23T04:16:35.508916Z,0.42663900000000005,0.297871,-0.35584299999999996
2019-05-23T04:16:35.547916Z,0.6672600000000001,0.654217,0.017081
2019-05-23T04:16:35.588916Z,0.591468,0.5552600000000001,0.035005
2019-05-23T04:16:35.627916Z,1.0680049999999999,1.187757,1.2276
2019-05-23T04:16:35.667916Z,0.96365,1.274087,0.722895
2019-05-23T04:16:35.708916Z,0.99498,1.140442,0.7452439999999999
2019-05-23T04:16:35.748916Z,0.596414,0.44991400000000004,1.5702479999999999
2019-05-23T04:16:35.788916Z,0.637306,-0.40955199999999997,1.4251
2019-05-23T04:16:35.828916Z,0.8777280000000001,-0.364478,1.4172879999999999
2019-05-23T04:16:35.868916Z,0.936102,-0.447813,-0.037607
2019-05-23T04:16:35.910916Z,1.209767,-1.729629,0.8058
2019-05-23T04:16:35.946916Z,1.4241,-1.882041,0.899334
2019-05-23T04:16:36.047916Z,1.407664,-1.26691,-1.1672639999999999
2019-05-23T04:16:36.049916Z,1.756362,-0.353852,-1.300466
2019-05-23T04:16:36.066916Z,1.5012969999999999,-0.46565200000000007,-1.265862
2019-05-23T04:16:36.135916Z,1.320403,-0.752059,-0.18135
2019-05-23T04:16:36.161916Z,1.742476,0.194625,-1.2769409999999999
2019-05-23T04:16:36.186916Z,1.804075,0.292669,-1.284036
2019-05-23T04:16:36.226916Z,1.281631,0.441254,-0.9437959999999999
2019-05-23T04:16:36.267916Z,0.863978,0.341955,-0.66475
2019-05-23T04:16:36.310916Z,0.816443,0.410995,-0.68508
2019-05-23T04:16:36.347916Z,0.5259050000000001,0.665975,-0.445464
2019-05-23T04:16:36.415916Z,0.659049,1.004867,0.352878
2019-05-23T04:16:36.427916Z,0.614388,0.9789370000000001,0.346864
2019-05-23T04:16:36.467916Z,0.6457689999999999,0.735262,0.985434
2019-05-23T04:16:36.507916Z,0.331922,0.391612,1.141759
2019-05-23T04:16:36.548916Z,0.416347,0.41532700000000006,1.122072
2019-05-23T04:16:36.589916Z,0.192455,0.700343,0.153419
2019-05-23T04:16:36.627916Z,0.16320199999999999,-0.080105,1.1492850000000001
2019-05-23T04:16:36.667916Z,0.09135399999999999,-0.113473,1.1369209999999998
2019-05-23T04:16:36.707916Z,0.434899,-1.4229479999999999,0.9485870000000001
2019-05-23T04:16:36.747916Z,0.632903,-0.444642,-0.657942
2019-05-23T04:16:36.787916Z,0.571236,-0.40437199999999995,-0.661877
2019-05-23T04:16:36.827916Z,0.722932,-0.5237470000000001,-0.482257
2019-05-23T04:16:36.867916Z,0.342183,-0.693865,-1.3936309999999998
2019-05-23T04:16:36.907916Z,0.326518,-0.570108,-1.4059629999999999
2019-05-23T04:16:36.985916Z,0.43422,-0.013602000000000001,-0.6183569999999999
2019-05-23T04:16:37.000916Z,0.389146,0.533245,-0.231477
2019-05-23T04:16:37.034916Z,0.252823,0.45457,-0.212928
2019-05-23T04:16:37.066916Z,-0.03177,0.757685,-0.524716
2019-05-23T04:16:37.107916Z,0.219802,0.794077,-0.046401
2019-05-23T04:16:37.148916Z,0.126747,0.834513,-0.067109
2019-05-23T04:16:37.187916Z,0.098817,0.452676,0.269773
2019-05-23T04:16:37.228916Z,0.66222,0.101737,1.370965
2019-05-23T04:16:37.267916Z,0.898064,0.300324,1.293323
2019-05-23T04:16:37.307916Z,1.178449,0.57792,0.372647
2019-05-23T04:16:37.346916Z,0.991451,-0.687353,1.642225
2019-05-23T04:16:37.387916Z,1.071475,-0.83683,1.6717509999999998
2019-05-23T04:16:37.429916Z,1.1567040000000002,-0.5436770000000001,-0.595514
2019-05-23T04:16:37.467916Z,0.970576,-0.10819300000000001,-0.6217590000000001
2019-05-23T04:16:37.508916Z,0.8413290000000001,-0.038443,-0.641882
2019-05-23T04:16:37.547916Z,-0.325283,-1.367758,0.03362
2019-05-23T04:16:37.587916Z,0.073249,-0.935283,-0.693131
2019-05-23T04:16:37.628916Z,-0.013942,-0.821664,-0.712229
2019-05-23T04:16:37.668916Z,0.446006,-0.22246300000000002,-0.644061
2019-05-23T04:16:37.708916Z,0.513318,0.105551,-0.383325
2019-05-23T04:16:37.749916Z,0.488275,0.103498,-0.377404
2019-05-23T04:16:37.788916Z,0.265921,0.398635,-0.092589
2019-05-23T04:16:37.830916Z,0.500975,0.672995,0.428171
2019-05-23T04:16:37.870916Z,0.5739350000000001,0.607579,0.438643
2019-05-23T04:16:37.910916Z,0.827923,1.0010219999999999,0.481022
2019-05-23T04:16:37.949916Z,0.764667,0.7947029999999999,0.842475
2019-05-23T04:16:37.989916Z,0.73178,0.71167,0.8477540000000001
2019-05-23T04:16:38.029916Z,0.758336,0.7483069999999999,0.527917
2019-05-23T04:16:38.070916Z,0.40178200000000003,-0.357503,0.850245
2019-05-23T04:16:38.109916Z,0.47739,-0.35102,0.838942
2019-05-23T04:16:38.196916Z,-0.067526,-0.941002,-0.031519
2019-05-23T04:16:38.197916Z,0.25321,-0.554542,-0.24184099999999997
2019-05-23T04:16:38.230916Z,0.13347699999999998,-0.5631229999999999,-0.236367
2019-05-23T04:16:38.268916Z,-0.354138,-0.92794,-0.4387
2019-05-23T04:16:38.308916Z,-0.12228800000000001,-0.6148359999999999,-0.368766
2019-05-23T04:16:38.349916Z,-0.006625,-0.561136,-0.373567
2019-05-23T04:16:38.388916Z,0.197443,-0.22162199999999999,-0.659246
2019-05-23T04:16:38.429916Z,-0.21150500000000003,-0.096098,-0.536644
2019-05-23T04:16:38.469916Z,-0.193498,-0.10396199999999998,-0.52456
2019-05-23T04:16:38.509916Z,-0.055735,0.309322,-0.491324
2019-05-23T04:16:38.549916Z,-0.211524,0.801848,0.041474000000000004
2019-05-23T04:16:38.588916Z,-0.334148,0.907007,0.00615
2019-05-23T04:16:38.628916Z,-0.148963,1.0910870000000001,0.44104799999999994
2019-05-23T04:16:38.669916Z,-0.474969,0.322652,1.894571
2019-05-23T04:16:38.709916Z,-0.39632399999999995,0.251121,1.8791740000000001
2019-05-23T04:16:38.748916Z,0.604482,0.521748,0.773794
2019-05-23T04:16:38.789916Z,0.36434,0.440341,0.237825
2019-05-23T04:16:38.829916Z,0.32661,0.22574,0.29331799999999997
2019-05-23T04:16:38.869916Z,0.7302569999999999,-1.115218,0.687472
2019-05-23T04:16:38.909916Z,0.455984,-0.876173,-1.776362
2019-05-23T04:16:38.950916Z,0.373591,-0.829944,-1.755441
2019-05-23T04:16:38.993916Z,0.468959,-0.822458,-0.8281780000000001
2019-05-23T04:16:39.030916Z,0.5343720000000001,-1.2226139999999999,0.548184
2019-05-23T04:16:39.070916Z,0.676044,-1.206818,0.5376850000000001
2019-05-23T04:16:39.111916Z,0.560336,-0.7535390000000001,-0.005026
2019-05-23T04:16:39.149916Z,0.018076,-0.486362,-0.5455270000000001
2019-05-23T04:16:39.189916Z,-0.010107,-0.477637,-0.5370550000000001
2019-05-23T04:16:39.297916Z,-0.266269,0.41329899999999997,-1.2308270000000001
2019-05-23T04:16:39.300916Z,-0.331791,0.612355,-0.393807
2019-05-23T04:16:39.318916Z,-0.407934,0.628229,-0.39624000000000004
2019-05-23T04:16:39.352916Z,-0.589655,0.8827889999999999,0.42631
2019-05-23T04:16:39.388916Z,-0.391922,0.760255,0.587234
2019-05-23T04:16:39.429916Z,-0.445575,0.725262,0.585155
2019-05-23T04:16:39.471916Z,-0.9026489999999999,0.241858,0.679235
2019-05-23T04:16:39.510916Z,-1.067489,-0.138883,0.045441
2019-05-23T04:16:39.550916Z,-1.3506989999999999,-0.19964200000000001,0.08709299999999999
2019-05-23T04:16:39.590916Z,-1.304232,-1.0265229999999999,0.609532
2019-05-23T04:16:39.648916Z,-1.280409,-1.104882,0.7770229999999999
2019-05-23T04:16:39.670916Z,-1.010864,-0.975352,0.706634
2019-05-23T04:16:39.711916Z,-0.9299200000000001,-1.2375909999999999,-0.011601
2019-05-23T04:16:39.751916Z,-1.089065,-1.085682,-0.5902229999999999
2019-05-23T04:16:39.790916Z,-0.942498,-0.875619,-0.629801
2019-05-23T04:16:39.830916Z,-0.880913,-0.973671,-0.019791999999999997
2019-05-23T04:16:39.870916Z,-0.690222,-1.013722,0.27411399999999997
2019-05-23T04:16:39.910916Z,-0.556775,-0.899077,0.255858
2019-05-23T04:16:39.950916Z,-0.48577,-0.477371,0.561824
2019-05-23T04:16:39.990916Z,0.06404,-0.379048,1.023639
2019-05-23T04:16:40.030916Z,0.086247,-0.47688400000000003,1.028134
2019-05-23T04:16:40.071916Z,0.62979,-0.194048,1.02413
2019-05-23T04:16:40.112916Z,0.9167850000000001,-0.027726999999999998,0.314141
2019-05-23T04:16:40.151916Z,0.8155220000000001,-0.124248,0.325098
2019-05-23T04:16:40.192916Z,0.929481,0.154825,0.109697
2019-05-23T04:16:40.231916Z,1.009132,0.510833,0.084176
2019-05-23T04:16:40.271916Z,1.0240770000000001,0.541814,0.074281
2019-05-23T04:16:40.311916Z,0.762494,0.786353,-0.41944
2019-05-23T04:16:40.352916Z,1.189125,0.281026,1.187834
2019-05-23T04:16:40.394916Z,1.217683,0.13647,1.2054559999999999
2019-05-23T04:16:40.432916Z,1.293442,-0.509423,1.009582
2019-05-23T04:16:40.472916Z,1.3365479999999998,-0.9862190000000001,0.042941
2019-05-23T04:16:40.512916Z,1.378903,-1.008358,0.056889999999999996
2019-05-23T04:16:40.552916Z,1.231809,-0.997367,-0.6014470000000001
2019-05-23T04:16:40.594916Z,1.004237,-0.63683,-0.653392
2019-05-23T04:16:40.632916Z,0.9735229999999999,-0.6304810000000001,-0.641995
2019-05-23T04:16:40.673916Z,1.149846,-0.070759,-0.90536
2019-05-23T04:16:40.712916Z,0.9126350000000001,0.053145000000000005,-0.64467
2019-05-23T04:16:40.752916Z,0.922732,0.086849,-0.642379
2019-05-23T04:16:40.792916Z,0.740733,0.312747,-0.791312
2019-05-23T04:16:40.832916Z,0.959362,0.9017,-0.439558
2019-05-23T04:16:40.873916Z,1.029906,0.8670260000000001,-0.42127200000000004
2019-05-23T04:16:40.913916Z,1.110848,1.125902,0.293352
2019-05-23T04:16:40.952916Z,0.180231,0.684463,0.228502
2019-05-23T04:16:40.991916Z,0.13255999999999998,0.5961069999999999,0.24316999999999997
2019-05-23T04:16:41.031916Z,0.636713,0.40375700000000003,1.4086889999999999
2019-05-23T04:16:41.072916Z,0.864138,0.652763,0.346256
2019-05-23T04:16:41.113916Z,0.800104,0.6149680000000001,0.345477
2019-05-23T04:16:41.152916Z,1.168248,-0.925376,1.927357
2019-05-23T04:16:41.192916Z,0.806033,-1.485926,0.41743900000000006
2019-05-23T04:16:41.239916Z,0.788064,-1.49425,0.420534
2019-05-23T04:16:41.271916Z,1.0056969999999998,-1.5728799999999998,0.043384
2019-05-23T04:16:41.311916Z,1.2396989999999999,-1.500246,-0.036259
2019-05-23T04:16:41.351916Z,1.337034,-1.483959,-0.025028
2019-05-23T04:16:41.436916Z,0.605348,-1.448867,-1.276877
2019-05-23T04:16:41.437916Z,1.1462290000000002,-0.300385,-0.689894
2019-05-23T04:16:41.472916Z,1.05921,-0.340582,-0.6696300000000001
2019-05-23T04:16:41.511916Z,0.38855700000000004,-0.123206,-0.480936
2019-05-23T04:16:41.551916Z,0.802817,0.193868,0.004497999999999999
2019-05-23T04:16:41.591916Z,0.814272,0.166715,0.013641
2019-05-23T04:16:41.632916Z,0.347702,-0.012195999999999999,0.5519430000000001
2019-05-23T04:16:41.671916Z,0.367083,0.17826,0.365232
2019-05-23T04:16:41.712916Z,0.304491,-0.013255000000000001,0.422975
2019-05-23T04:16:41.752916Z,0.31983,0.27114699999999997,-0.012115
2019-05-23T04:16:41.809916Z,0.368107,0.725614,-0.304377
2019-05-23T04:16:41.832916Z,0.342552,0.7001,-0.29481999999999997
2019-05-23T04:16:41.871916Z,0.520864,0.49911300000000003,0.276766
2019-05-23T04:16:41.912916Z,0.7568239999999999,0.779624,0.200312
2019-05-23T04:16:41.952916Z,0.6378590000000001,0.807742,0.175871
2019-05-23T04:16:41.992916Z,-0.017215,0.5641510000000001,0.267723
2019-05-23T04:16:42.032916Z,0.80933,-1.107466,1.455937
2019-05-23T04:16:42.072916Z,0.8837219999999999,-1.180755,1.474458
2019-05-23T04:16:42.112916Z,0.389336,-0.398424,-1.199237
2019-05-23T04:16:42.152916Z,0.854651,0.049349000000000004,-0.729861
2019-05-23T04:16:42.192916Z,0.8416379999999999,0.034308,-0.711914
2019-05-23T04:16:42.233916Z,0.607433,-0.818926,0.426309
2019-05-23T04:16:42.272916Z,0.816326,-0.148481,-0.659316
2019-05-23T04:16:42.312916Z,0.933558,-0.159252,-0.638217
2019-05-23T04:16:42.353916Z,0.9771569999999999,0.171177,-0.6077229999999999
2019-05-23T04:16:42.392916Z,0.771237,0.24092399999999997,-0.731613
2019-05-23T04:16:42.431916Z,0.8471709999999999,0.238112,-0.714005
2019-05-23T04:16:42.472916Z,0.010371,0.17941700000000002,-1.188244
2019-05-23T04:16:42.559916Z,0.896401,1.06063,-0.215273
2019-05-23T04:16:42.560916Z,0.9006620000000001,1.08398,-0.22791799999999998
2019-05-23T04:16:42.594916Z,0.228118,0.6140680000000001,-0.14015
2019-05-23T04:16:42.632916Z,0.706433,1.131118,1.219533
2019-05-23T04:16:42.672916Z,0.727561,1.163941,1.179329
2019-05-23T04:16:42.713916Z,0.576246,0.933292,0.765868
2019-05-23T04:16:42.753916Z,0.22794299999999998,0.554922,1.112754
2019-05-23T04:16:42.794916Z,0.126155,0.566721,1.085505
2019-05-23T04:16:42.837916Z,0.039777999999999994,-0.546511,1.037018
2019-05-23T04:16:42.872916Z,-0.056147,-0.772228,0.576212
2019-05-23T04:16:42.935916Z,-0.068493,-0.797829,0.582954
2019-05-23T04:16:42.955916Z,0.589104,-0.979649,-1.025517
2019-05-23T04:16:42.993916Z,0.204265,-1.288127,-0.44902700000000006
2019-05-23T04:16:43.032916Z,0.287194,-1.1916,-0.476142
2019-05-23T04:16:43.072916Z,0.47435900000000003,-0.604893,-1.130423
2019-05-23T04:16:43.112916Z,0.136907,-0.21608899999999998,-0.622362
2019-05-23T04:16:43.152916Z,0.13609200000000002,-0.229973,-0.60543
2019-05-23T04:16:43.194916Z,0.08655399999999999,0.16189800000000001,-0.7289859999999999
2019-05-23T04:16:43.233916Z,0.519045,0.6222979999999999,-0.155718
2019-05-23T04:16:43.273916Z,0.42990500000000004,0.594831,-0.143536
2019-05-23T04:16:43.314916Z,0.15427000000000002,0.534199,0.48083400000000004
2019-05-23T04:16:43.355916Z,0.119326,0.5559569999999999,1.057549
2019-05-23T04:16:43.394916Z,0.17046,0.403001,1.0983969999999998
2019-05-23T04:16:43.433916Z,0.871411,0.965355,0.45601499999999995
2019-05-23T04:16:43.475916Z,0.532675,0.593874,-0.318322
2019-05-23T04:16:43.514916Z,0.399909,0.598772,-0.317368
2019-05-23T04:16:43.555916Z,0.117684,-0.360202,1.232869
2019-05-23T04:16:43.594916Z,0.800242,-1.2263540000000002,0.334837
2019-05-23T04:16:43.633916Z,0.892502,-1.260263,0.354162
2019-05-23T04:16:43.673916Z,0.903755,-1.032403,-0.134812
2019-05-23T04:16:43.754916Z,0.247491,-0.643208,-1.19272
2019-05-23T04:16:43.755916Z,0.11851400000000001,-0.490145,-1.2345629999999999
2019-05-23T04:16:43.798916Z,-0.285405,-0.556005,-0.753467
2019-05-23T04:16:43.832916Z,0.363967,-0.24259299999999998,-0.45826400000000006
2019-05-23T04:16:43.874916Z,0.312267,-0.160999,-0.48054600000000003
2019-05-23T04:16:43.914916Z,0.47519399999999995,0.20016099999999998,-0.795363
2019-05-23T04:16:43.954916Z,0.35218,0.150167,-0.083751
2019-05-23T04:16:43.996916Z,0.29794699999999996,0.127174,-0.07094099999999999
2019-05-23T04:16:44.034916Z,0.350508,0.313093,0.360375
2019-05-23T04:16:44.074916Z,0.257531,1.014853,0.15701600000000002
2019-05-23T04:16:44.119916Z,0.193917,1.013752,0.152425
2019-05-23T04:16:44.154916Z,0.327364,1.21909,0.721106
2019-05-23T04:16:44.194916Z,0.291458,0.791132,1.08145
2019-05-23T04:16:44.234916Z,0.39,0.735073,1.075752
2019-05-23T04:16:44.274916Z,0.055386000000000005,0.504653,0.33573200000000003
2019-05-23T04:16:44.315916Z,-0.243865,-0.726304,1.372434
2019-05-23T04:16:44.355916Z,-0.112604,-0.8209299999999999,1.390844
2019-05-23T04:16:44.394916Z,0.11334100000000001,-1.041607,0.069635
2019-05-23T04:16:44.434916Z,0.272999,-0.766954,-0.650733
2019-05-23T04:16:44.474916Z,0.314375,-0.770275,-0.633662
2019-05-23T04:16:44.516916Z,-0.087062,-0.732938,-0.670186
2019-05-23T04:16:44.558916Z,0.0027329999999999998,-0.714073,-0.28124
2019-05-23T04:16:44.596916Z,0.11319000000000001,-0.682868,-0.286592
2019-05-23T04:16:44.636916Z,0.18470599999999998,-0.646859,-0.33921
2019-05-23T04:16:44.676916Z,0.295846,-0.138326,-0.736173
2019-05-23T04:16:44.715916Z,0.388466,-0.112954,-0.732224
2019-05-23T04:16:44.756916Z,0.541393,0.347462,-0.624181
2019-05-23T04:16:44.794916Z,0.408087,0.486883,-0.20693000000000003
2019-05-23T04:16:44.834916Z,0.411063,0.608193,-0.25901599999999997
2019-05-23T04:16:44.909916Z,0.270266,0.9458409999999999,-0.133866
2019-05-23T04:16:44.923916Z,-0.011227,0.564317,1.264268
2019-05-23T04:16:44.956916Z,-0.099848,0.493393,1.266564
2019-05-23T04:16:44.994916Z,0.269675,0.68452,0.153833
2019-05-23T04:16:45.034916Z,-0.110628,0.1295,0.685742
2019-05-23T04:16:45.075916Z,-0.18978299999999998,0.125423,0.67819
2019-05-23T04:16:45.115916Z,0.887415,-0.846986,0.47709799999999997
2019-05-23T04:16:45.155916Z,0.559883,-0.126224,-0.459963
2019-05-23T04:16:45.197916Z,0.567469,0.055102,-0.517936
2019-05-23T04:16:45.234916Z,0.332716,-0.11235899999999999,-0.543243
2019-05-23T04:16:45.276916Z,0.005255,-0.45564,-0.34081500000000003
2019-05-23T04:16:45.315916Z,-0.164481,-0.499345,-0.311215
2019-05-23T04:16:45.354916Z,-0.302558,-0.498825,-0.12335299999999999
2019-05-23T04:16:45.394916Z,-0.255896,-0.19977899999999998,-0.84506
2019-05-23T04:16:45.437916Z,-0.274945,-0.052559,-0.87311
2019-05-23T04:16:45.474916Z,0.406909,0.083493,-0.330602
2019-05-23T04:16:45.514916Z,0.418475,0.253909,0.389309
2019-05-23T04:16:45.555916Z,0.519497,0.236184,0.37895100000000004
2019-05-23T04:16:45.595916Z,0.539369,0.680872,-0.036736000000000005
2019-05-23T04:16:45.636916Z,0.058504999999999995,0.532158,0.37756100000000004
2019-05-23T04:16:45.676916Z,0.015166999999999998,0.402936,0.411346
2019-05-23T04:16:45.716916Z,0.222622,0.307847,1.2334690000000001
2019-05-23T04:16:45.757916Z,0.27376100000000003,0.44491899999999995,0.508604
2019-05-23T04:16:45.797916Z,0.21650500000000003,0.359481,0.529397
2019-05-23T04:16:45.837916Z,0.711601,0.085963,0.9717540000000001
2019-05-23T04:16:45.876916Z,0.527645,-0.849118,0.09010800000000001
2019-05-23T04:16:45.916916Z,0.726434,-0.829792,0.080452
2019-05-23T04:16:45.957916Z,0.443999,-0.8033060000000001,-0.401765
2019-05-23T04:16:45.996916Z,0.22187600000000002,-0.740371,-0.847512
2019-05-23T04:16:46.037916Z,0.281831,-0.6341060000000001,-0.8639600000000001
2019-05-23T04:16:46.077916Z,-0.25151599999999996,-0.658557,-0.26172199999999995
2019-05-23T04:16:46.115916Z,-0.16458,-0.869382,-0.019315
2019-05-23T04:16:46.155916Z,-0.10045,-0.878683,-0.0069700000000000005
2019-05-23T04:16:46.226916Z,-0.49228599999999995,0.005004,-1.219727
2019-05-23T04:16:46.243916Z,-0.348564,0.18413800000000002,-0.869142
2019-05-23T04:16:46.276916Z,-0.543267,0.127137,-0.847617
2019-05-23T04:16:46.315916Z,-0.764375,0.6362,-0.341019
2019-05-23T04:16:46.356916Z,-0.243848,0.7484310000000001,0.404487
2019-05-23T04:16:46.398916Z,-0.327311,0.692257,0.414075
2019-05-23T04:16:46.436916Z,-0.304118,0.504359,0.682309
2019-05-23T04:16:46.476916Z,-0.400007,0.646701,0.288646
2019-05-23T04:16:46.516916Z,-0.336266,0.702411,0.258772
2019-05-23T04:16:46.581916Z,-0.43250900000000003,0.9295950000000001,-0.276854
2019-05-23T04:16:46.596916Z,-0.02696,-0.061376,1.573815
2019-05-23T04:16:46.636916Z,0.011639,-0.22149499999999997,1.609297
2019-05-23T04:16:46.676916Z,0.863957,-1.100182,0.472189
2019-05-23T04:16:46.716916Z,0.330413,-0.592592,-0.564895
2019-05-23T04:16:46.757916Z,0.337737,-0.583577,-0.55514
2019-05-23T04:16:46.796916Z,0.076508,-0.771355,-0.192955
2019-05-23T04:16:46.837916Z,-0.043896,-0.585059,-0.562716
2019-05-23T04:16:46.877916Z,-0.016301,-0.573096,-0.554217
2019-05-23T04:16:46.916916Z,0.525704,-0.340495,-0.45753299999999997
2019-05-23T04:16:46.956916Z,0.122947,0.299116,-1.2989760000000001
2019-05-23T04:16:47.038916Z,0.205697,0.46389600000000003,-1.3394629999999998
2019-05-23T04:16:47.039916Z,0.799191,0.9922209999999999,-0.9437479999999999
2019-05-23T04:16:47.076916Z,-0.39006199999999996,0.601671,0.192801
2019-05-23T04:16:47.116916Z,-0.43282600000000004,0.464829,0.235198
2019-05-23T04:16:47.156916Z,0.325808,0.564769,0.881135
2019-05-23T04:16:47.196916Z,-0.089617,0.5579569999999999,1.172368
2019-05-23T04:16:47.237916Z,0.035214999999999996,0.448991,1.189059
2019-05-23T04:16:47.277916Z,0.055576,0.38163400000000003,0.664075
2019-05-23T04:16:47.317916Z,-0.267328,0.38605300000000004,0.407476
2019-05-23T04:16:47.357916Z,-0.33864099999999997,0.25858200000000003,0.451312
2019-05-23T04:16:47.396916Z,0.163425,-1.13726,1.4243709999999998
2019-05-23T04:16:47.436916Z,0.272461,-1.079487,-0.161522
2019-05-23T04:16:47.477916Z,0.291513,-1.0977290000000002,-0.142663
2019-05-23T04:16:47.518916Z,0.223385,-0.7389399999999999,-0.670776
2019-05-23T04:16:47.559916Z,0.103861,-0.9048360000000001,-0.336401
2019-05-23T04:16:47.598916Z,0.16353800000000002,-0.940301,-0.307626
2019-05-23T04:16:47.637916Z,0.13167,-0.5602689999999999,-0.8794629999999999
2019-05-23T04:16:47.678916Z,0.018236000000000002,-0.026512,-1.059883
2019-05-23T04:16:47.718916Z,0.089114,-0.032661,-1.037663
2019-05-23T04:16:47.758916Z,0.077418,0.292067,-0.682117
2019-05-23T04:16:47.798916Z,-0.398661,0.559919,-0.119663
2019-05-23T04:16:47.838916Z,-0.386523,0.5482130000000001,-0.116298
2019-05-23T04:16:47.879916Z,-0.093807,0.801197,-0.662868
2019-05-23T04:16:47.919916Z,-0.240116,0.64346,0.678337
2019-05-23T04:16:47.959916Z,-0.186994,0.577924,0.696064
2019-05-23T04:16:47.998916Z,-0.090134,0.833931,0.531521
2019-05-23T04:16:48.039916Z,-0.732797,0.42525100000000005,0.468384
2019-05-23T04:16:48.079916Z,-0.8295389999999999,0.405789,0.464247
2019-05-23T04:16:48.118916Z,0.583318,-0.96524,1.560884
2019-05-23T04:16:48.158916Z,0.846209,-1.341256,0.32810300000000003
2019-05-23T04:16:48.201916Z,0.8985120000000001,-1.356263,0.343893
2019-05-23T04:16:48.239916Z,0.915393,-1.1884370000000002,0.118175
2019-05-23T04:16:48.279916Z,0.645378,-0.687132,-0.172129
2019-05-23T04:16:48.319916Z,0.670713,-0.6899649999999999,-0.160295
2019-05-23T04:16:48.359916Z,0.7196520000000001,-0.454345,-0.500552
2019-05-23T04:16:48.399916Z,0.6583399999999999,-0.390836,-0.9791690000000001
2019-05-23T04:16:48.439916Z,0.756972,-0.367736,-0.9616110000000001
2019-05-23T04:16:48.526916Z,-0.240184,0.030038,-1.398132
2019-05-23T04:16:48.527916Z,-0.147779,0.745942,-0.501916
2019-05-23T04:16:48.560916Z,-0.277361,0.763996,-0.5174770000000001
2019-05-23T04:16:48.597916Z,-0.722701,0.51727,-0.082578
2019-05-23T04:16:48.637916Z,-0.076651,1.213387,0.413591
2019-05-23T04:16:48.678916Z,-0.200946,1.369638,0.32547
2019-05-23T04:16:48.719916Z,0.343529,1.078007,0.7952
2019-05-23T04:16:48.758916Z,0.11345799999999999,0.788984,0.202671
2019-05-23T04:16:48.798916Z,-0.21058400000000002,1.12614,0.07628099999999999
2019-05-23T04:16:48.838916Z,-0.5082220000000001,0.551987,1.024721
2019-05-23T04:16:48.894916Z,0.46833,-1.005047,0.997793
2019-05-23T04:16:48.918916Z,0.39274499999999996,-1.028035,0.9973559999999999
2019-05-23T04:16:48.958916Z,-0.340954,-0.41066199999999997,-0.19839500000000002
2019-05-23T04:16:48.997916Z,-0.111917,-0.751287,-0.497875
2019-05-23T04:16:49.038916Z,-0.239235,-0.78245,-0.465266
2019-05-23T04:16:49.077916Z,-0.362025,-1.23684,0.18698
2019-05-23T04:16:49.118916Z,-0.483365,-0.6657,-0.763884
2019-05-23T04:16:49.158916Z,-0.54876,-0.7495149999999999,-0.714436
2019-05-23T04:16:49.198916Z,-0.51115,-0.048525,-0.427966
2019-05-23T04:16:49.238916Z,-0.24478699999999998,0.40704,-0.271928
2019-05-23T04:16:49.279916Z,-0.347254,0.282111,-0.21084499999999998
2019-05-23T04:16:49.321916Z,-0.148562,0.040149000000000004,1.0882040000000002
2019-05-23T04:16:49.360916Z,-0.42975399999999997,-0.074585,1.2311530000000002
2019-05-23T04:16:49.402916Z,-0.282907,-0.29533000000000004,1.290856
2019-05-23T04:16:49.440916Z,0.204882,0.017356,0.77366
2019-05-23T04:16:49.480916Z,-0.38044,0.6309779999999999,-0.034881
2019-05-23T04:16:49.519916Z,-0.392754,0.66087,-0.051252
2019-05-23T04:16:49.560916Z,0.679596,-0.298779,0.733079
2019-05-23T04:16:49.600916Z,-0.17536,-0.556091,-0.087498
2019-05-23T04:16:49.638916Z,-0.234848,-0.622746,-0.046308999999999996
2019-05-23T04:16:49.678916Z,0.306001,-0.242786,-0.17411500000000002
2019-05-23T04:16:49.767916Z,-0.051176,-0.564441,-0.892932
2019-05-23T04:16:49.768916Z,0.099096,-0.47213900000000003,-0.919674
2019-05-23T04:16:49.803916Z,-0.8736229999999999,-0.258679,-1.457804
2019-05-23T04:16:49.838916Z,-1.3328149999999999,0.153121,-1.171935
2019-05-23T04:16:49.879916Z,-1.399585,0.196417,-1.168693
2019-05-23T04:16:49.919916Z,-0.98885,0.266579,-0.02955
2019-05-23T04:16:49.959916Z,-0.853043,0.18936,0.07430700000000001
2019-05-23T04:16:50.000916Z,-0.9427780000000001,0.138237,0.100199
2019-05-23T04:16:50.039916Z,-0.441579,0.096303,1.314915
2019-05-23T04:16:50.079916Z,-0.8932629999999999,-0.24655300000000002,0.658518
2019-05-23T04:16:50.129916Z,-1.093685,-0.108223,0.602689
2019-05-23T04:16:50.165916Z,-0.254718,-0.020915,2.296475
2019-05-23T04:16:50.199916Z,0.570948,-0.990872,1.352842
2019-05-23T04:16:50.240916Z,0.96893,-1.055548,1.365127
2019-05-23T04:16:50.279916Z,0.065054,-1.205646,-0.74147
2019-05-23T04:16:50.319916Z,-0.645724,-0.809828,-1.4084379999999999
2019-05-23T04:16:50.358916Z,-0.602268,-0.6571319999999999,-1.444158
2019-05-23T04:16:50.399916Z,-0.68155,-0.965195,-1.136211
2019-05-23T04:16:50.467916Z,-0.33833,-0.587515,-0.120959
2019-05-23T04:16:50.491916Z,-0.28825700000000004,-0.511054,-0.142707
2019-05-23T04:16:50.520916Z,0.366884,0.323472,-0.256008
2019-05-23T04:16:50.558916Z,0.36107,0.298454,0.174677
2019-05-23T04:16:50.601916Z,0.352161,0.252741,0.187551
2019-05-23T04:16:50.639916Z,0.777302,0.308577,0.6438699999999999
2019-05-23T04:16:50.680916Z,0.9128930000000001,0.298577,0.785354
2019-05-23T04:16:50.720916Z,1.060827,0.223009,0.822216
2019-05-23T04:16:50.760916Z,0.7659560000000001,0.392926,0.8561989999999999
2019-05-23T04:16:50.800916Z,0.772927,0.730405,0.295165
2019-05-23T04:16:50.843916Z,0.8267620000000001,0.713535,0.302861
2019-05-23T04:16:50.880916Z,1.235791,-0.403308,1.547176
2019-05-23T04:16:50.920916Z,1.5302069999999999,-0.5971989999999999,-0.132151
2019-05-23T04:16:50.961916Z,1.574345,-0.563024,-0.125606
2019-05-23T04:16:51.000916Z,1.192898,-0.241387,-0.95105
2019-05-23T04:16:51.082916Z,0.677427,-0.058607000000000006,-0.98872
2019-05-23T04:16:51.083916Z,0.371759,0.0024809999999999997,-1.039773
2019-05-23T04:16:51.122916Z,1.229148,0.385957,-0.765934
2019-05-23T04:16:51.159916Z,1.156073,0.729139,-1.20813
2019-05-23T04:16:51.200916Z,1.043815,0.913959,-1.268473
2019-05-23T04:16:51.240916Z,0.7289329999999999,0.792678,-0.927652
2019-05-23T04:16:51.280916Z,0.8344590000000001,0.867577,0.074709
2019-05-23T04:16:51.321916Z,0.728945,0.863973,0.063814
2019-05-23T04:16:51.365916Z,0.142663,0.605812,0.709259
2019-05-23T04:16:51.403916Z,0.697156,0.371727,0.923798
2019-05-23T04:16:51.462916Z,0.7527149999999999,0.466208,0.878863
2019-05-23T04:16:51.480916Z,0.16864200000000001,0.36956100000000003,0.640679
2019-05-23T04:16:51.520916Z,0.113346,0.09300900000000001,1.9013490000000002
2019-05-23T04:16:51.560916Z,0.100569,0.18448599999999998,1.843352
2019-05-23T04:16:51.600916Z,0.152706,-0.45742299999999997,0.541624
2019-05-23T04:16:51.640916Z,-0.099004,-0.068874,-0.518471
2019-05-23T04:16:51.681916Z,-0.512352,0.125251,-0.540179
2019-05-23T04:16:51.720916Z,-0.430933,-0.36089699999999997,-0.963025
2019-05-23T04:16:51.761916Z,0.322726,-0.58133,-0.725531
2019-05-23T04:16:51.801916Z,0.382275,-0.5813520000000001,-0.716713
2019-05-23T04:16:51.840916Z,-0.06563200000000001,-0.351112,-0.585585
2019-05-23T04:16:51.881916Z,0.5709890000000001,0.478054,-0.362763
2019-05-23T04:16:51.922916Z,0.575126,0.44980699999999996,-0.35326199999999996
2019-05-23T04:16:51.962916Z,0.651177,0.8706010000000001,-0.31201599999999996
2019-05-23T04:16:52.002916Z,0.823102,0.834463,0.814867
2019-05-23T04:16:52.042916Z,0.823934,0.7036479999999999,0.827951
2019-05-23T04:16:52.083916Z,0.5015189999999999,0.132101,1.758892
2019-05-23T04:16:52.122916Z,0.825335,-0.062974,1.2214450000000001
2019-05-23T04:16:52.162916Z,0.800312,-0.11412,1.216796
2019-05-23T04:16:52.202916Z,0.739171,-0.10688399999999999,1.3478370000000002
2019-05-23T04:16:52.242916Z,1.9807689999999998,-0.439208,1.3451440000000001
2019-05-23T04:16:52.283916Z,2.18113,-0.6013890000000001,1.370883
2019-05-23T04:16:52.322916Z,1.737264,-0.724889,0.271379
2019-05-23T04:16:52.363916Z,1.270332,-0.643828,-0.722208
2019-05-23T04:16:52.401916Z,1.29881,-0.7459859999999999,-0.666621
2019-05-23T04:16:52.441916Z,0.378459,-0.6892739999999999,-1.542645
2019-05-23T04:16:52.516916Z,0.503941,-0.418257,-1.6209719999999999
2019-05-23T04:16:52.527916Z,0.486702,-0.440979,-1.581939
2019-05-23T04:16:52.561916Z,0.561528,-0.14915899999999999,-1.701757
2019-05-23T04:16:52.600916Z,0.39645,0.34087399999999995,-1.3324799999999999
2019-05-23T04:16:52.642916Z,0.27835,0.406642,-1.335464
2019-05-23T04:16:52.681916Z,0.609219,0.78783,-0.09764500000000001
2019-05-23T04:16:52.721916Z,0.8752059999999999,0.8489270000000001,1.0218770000000001
2019-05-23T04:16:52.761916Z,0.899718,0.813326,1.011068
2019-05-23T04:16:52.803916Z,0.8424309999999999,0.794084,1.740918
2019-05-23T04:16:52.841916Z,0.163405,0.875461,1.002076
2019-05-23T04:16:52.883916Z,0.066384,0.8264729999999999,1.005018
2019-05-23T04:16:52.923916Z,0.681901,-0.626354,2.224442
2019-05-23T04:16:52.961916Z,-0.31993,-1.316342,-0.265424
2019-05-23T04:16:53.001916Z,-0.40874699999999997,-1.236793,-0.280908
2019-05-23T04:16:53.041916Z,-0.947486,0.08667899999999999,-2.088315
2019-05-23T04:16:53.081916Z,0.574619,-0.081125,-0.41823999999999995
2019-05-23T04:16:53.121916Z,0.372751,-0.030008999999999997,-0.40002
2019-05-23T04:16:53.161916Z,0.181446,-0.7824760000000001,-0.494849
2019-05-23T04:16:53.201916Z,0.45386499999999996,-0.7169270000000001,-0.563427
2019-05-23T04:16:53.242916Z,0.465836,-0.769638,-0.535088
2019-05-23T04:16:53.282916Z,-0.18118199999999998,-0.145458,-0.507654
2019-05-23T04:16:53.322916Z,0.218948,0.284457,-0.8801979999999999
2019-05-23T04:16:53.363916Z,0.307637,0.36680300000000005,-0.912169
2019-05-23T04:16:53.405916Z,0.569762,0.822586,-0.449272
2019-05-23T04:16:53.443916Z,0.5331319999999999,0.477268,2.2216270000000002
2019-05-23T04:16:53.483916Z,0.755242,0.358599,2.192789
2019-05-23T04:16:53.523916Z,0.864223,0.245378,1.588506
2019-05-23T04:16:53.564916Z,0.46533,-0.041427,2.194554
2019-05-23T04:16:53.603916Z,0.6160640000000001,-0.24373899999999998,2.222239
2019-05-23T04:16:53.644916Z,0.7306229999999999,-1.259763,-0.36241
2019-05-23T04:16:53.683916Z,0.19057000000000002,-0.678928,-1.024255
2019-05-23T04:16:53.722916Z,0.167856,-0.621108,-1.0241280000000001
2019-05-23T04:16:53.763916Z,0.5083880000000001,-0.322784,-0.978153
2019-05-23T04:16:53.843916Z,0.039589,-0.390094,-0.407269
2019-05-23T04:16:53.862916Z,0.132958,-0.35086,-0.42343400000000003
2019-05-23T04:16:53.883916Z,0.22808499999999998,-0.430147,-0.827577
2019-05-23T04:16:53.921916Z,0.312082,0.349777,-1.077374
2019-05-23T04:16:53.963916Z,0.268412,0.393845,-1.072727
2019-05-23T04:16:54.003916Z,0.382474,0.646047,-0.571064
2019-05-23T04:16:54.043916Z,0.404904,0.751041,0.5334409999999999
2019-05-23T04:16:54.083916Z,0.431312,0.688786,0.538184
2019-05-23T04:16:54.125916Z,0.723548,1.075346,0.723643
2019-05-23T04:16:54.163916Z,0.708643,0.9554469999999999,1.4631610000000002
2019-05-23T04:16:54.224916Z,1.003999,0.8950520000000001,1.425232
2019-05-23T04:16:54.242916Z,0.36030700000000004,0.6255609999999999,0.084776
2019-05-23T04:16:54.283916Z,-0.543475,0.60449,0.815764
2019-05-23T04:16:54.324916Z,-0.528878,0.702739,0.7654770000000001
2019-05-23T04:16:54.363916Z,0.204104,-0.811945,0.7318859999999999
2019-05-23T04:16:54.405916Z,-0.130866,-0.807904,-0.076666
2019-05-23T04:16:54.444916Z,-0.352811,-0.838614,-0.031501999999999995
2019-05-23T04:16:54.483916Z,0.118122,-1.085235,-0.47504399999999997
2019-05-23T04:16:54.524916Z,0.651792,-0.63927,-0.6711189999999999
2019-05-23T04:16:54.563916Z,0.868049,-0.57181,-0.704272
2019-05-23T04:16:54.603916Z,0.156444,-0.467027,-1.595521
2019-05-23T04:16:54.644916Z,-0.149919,0.204449,-1.361146
2019-05-23T04:16:54.684916Z,-0.238262,0.196495,-1.3290549999999999
2019-05-23T04:16:54.725916Z,-0.401715,0.633066,-0.869484
2019-05-23T04:16:54.764916Z,-0.20636500000000002,1.174001,-0.07538099999999999
2019-05-23T04:16:54.804916Z,-0.233017,1.275316,-0.10844300000000001
2019-05-23T04:16:54.844916Z,-0.14894200000000002,0.9437530000000001,1.091472
2019-05-23T04:16:54.884916Z,-0.11359000000000001,0.350354,2.3535209999999998
2019-05-23T04:16:54.924916Z,0.013493000000000002,0.264529,2.329432
2019-05-23T04:16:54.964916Z,0.710781,0.556459,0.337025
2019-05-23T04:16:55.007916Z,0.542363,-0.17536600000000002,1.379642
2019-05-23T04:16:55.045916Z,0.548941,-0.209502,1.3666
2019-05-23T04:16:55.085916Z,0.962827,-1.646361,1.2716450000000001
2019-05-23T04:16:55.124916Z,1.641099,-1.0232219999999999,-0.353804
2019-05-23T04:16:55.165916Z,1.6368610000000001,-0.988132,-0.355657
2019-05-23T04:16:55.204916Z,0.90728,-0.8603430000000001,-1.338339
2019-05-23T04:16:55.245916Z,0.518101,-1.089352,-0.191498
2019-05-23T04:16:55.285916Z,0.64661,-1.10335,-0.188398
2019-05-23T04:16:55.325916Z,0.282001,-0.759368,-1.0208979999999999
2019-05-23T04:16:55.363916Z,0.208052,-0.237062,-1.132367
2019-05-23T04:16:55.404916Z,0.288612,-0.197232,-1.12838
2019-05-23T04:16:55.505916Z,-0.23956599999999997,0.132436,-1.6076700000000002
2019-05-23T04:16:55.506916Z,-0.283414,0.225233,0.13558199999999998
2019-05-23T04:16:55.535916Z,-0.371569,0.15405,0.1615
2019-05-23T04:16:55.563916Z,-0.30187600000000003,0.852844,-0.325358
2019-05-23T04:16:55.603916Z,0.381704,1.681529,0.58055
2019-05-23T04:16:55.645916Z,0.361088,1.571655,0.601805
2019-05-23T04:16:55.685916Z,0.290248,1.3504559999999999,1.167599
2019-05-23T04:16:55.725916Z,0.711353,0.9322819999999999,1.026095
2019-05-23T04:16:55.764916Z,0.677127,0.9071799999999999,1.014317
2019-05-23T04:16:55.806916Z,0.695427,-0.169765,1.150868
2019-05-23T04:16:55.845916Z,0.9083200000000001,-1.6937849999999999,0.541425
2019-05-23T04:16:55.884916Z,1.008833,-1.6800529999999998,0.534279
2019-05-23T04:16:55.927916Z,-0.16263,-1.516936,-0.894596
2019-05-23T04:16:55.965916Z,0.072187,-0.9609780000000001,-1.131947
2019-05-23T04:16:56.004916Z,-0.010061,-0.89485,-1.1291799999999999
2019-05-23T04:16:56.046916Z,-0.021646000000000002,-0.784366,-0.383317
2019-05-23T04:16:56.085916Z,0.044095999999999996,-0.24801199999999998,-0.892426
2019-05-23T04:16:56.125916Z,0.025199,-0.24146900000000002,-0.8777510000000001
2019-05-23T04:16:56.165916Z,0.128736,0.423299,-0.9222309999999999
2019-05-23T04:16:56.204916Z,-0.115595,0.728421,-0.829367
2019-05-23T04:16:56.245916Z,-0.076008,0.701384,-0.81079
2019-05-23T04:16:56.286916Z,-0.379603,1.035884,-0.5970810000000001
2019-05-23T04:16:56.326916Z,-0.321896,1.056554,0.102275
2019-05-23T04:16:56.366916Z,-0.380048,0.989799,0.123706
2019-05-23T04:16:56.404916Z,0.035672,0.8717469999999999,0.690593
2019-05-23T04:16:56.447916Z,0.458574,0.9046879999999999,0.880569
2019-05-23T04:16:56.487916Z,0.640333,1.158058,0.752196
2019-05-23T04:16:56.526916Z,0.267009,1.458143,-0.20437
2019-05-23T04:16:56.567916Z,1.2087299999999999,-0.569771,3.6117269999999997
2019-05-23T04:16:56.606916Z,1.273513,-0.917063,3.6910160000000003
2019-05-23T04:16:56.648916Z,0.85124,-1.9795610000000001,1.000546
2019-05-23T04:16:56.686916Z,1.076916,-1.580548,-0.9594790000000001
2019-05-23T04:16:56.726916Z,1.181819,-1.534935,-0.9516450000000001
2019-05-23T04:16:56.766916Z,-0.317679,-1.6406310000000002,-0.9220200000000001
2019-05-23T04:16:56.806916Z,-0.440956,-1.4185780000000001,-0.795104
2019-05-23T04:16:56.848916Z,-0.38621500000000003,-1.464253,-0.7497189999999999
2019-05-23T04:16:56.887916Z,-0.061632000000000006,-0.685955,-1.5279280000000002
2019-05-23T04:16:56.927916Z,0.056525,-0.221493,-1.723293
2019-05-23T04:16:56.965916Z,0.032631,-0.140529,-1.730093
2019-05-23T04:16:57.051916Z,-0.593225,0.523524,-1.302259
2019-05-23T04:16:57.052916Z,0.13408399999999998,0.884843,0.22328299999999998
2019-05-23T04:16:57.087916Z,0.05148099999999999,0.894908,0.206663
2019-05-23T04:16:57.128916Z,-0.687865,0.8777879999999999,0.507078
2019-05-23T04:16:57.165916Z,-0.057374,0.9968950000000001,1.0429
2019-05-23T04:16:57.206916Z,-0.009612,1.021203,1.009241
2019-05-23T04:16:57.245916Z,-0.571155,0.8906440000000001,-0.24415900000000001
2019-05-23T04:16:57.286916Z,-0.281141,0.380365,1.18749
2019-05-23T04:16:57.325916Z,-0.295523,0.416972,1.150759
2019-05-23T04:16:57.366916Z,0.002428,-0.9743280000000001,1.247808
2019-05-23T04:16:57.420916Z,0.004848,-0.759847,-0.550132
2019-05-23T04:16:57.447916Z,0.073671,-0.679046,-0.566401
2019-05-23T04:16:57.486916Z,0.383341,-0.528397,-1.052418
2019-05-23T04:16:57.526916Z,0.140625,-0.7175050000000001,0.0081
2019-05-23T04:16:57.567916Z,0.336563,-0.793058,0.050962
2019-05-23T04:16:57.605916Z,0.10875399999999999,-0.656932,-0.5528689999999999
2019-05-23T04:16:57.647916Z,0.065475,0.263675,-1.565264
2019-05-23T04:16:57.686916Z,-0.121432,0.29299200000000003,-1.564486
2019-05-23T04:16:57.726916Z,-0.790118,0.196322,-1.231739
2019-05-23T04:16:57.766916Z,-0.058171,0.218229,0.35864
2019-05-23T04:16:57.807916Z,0.042470999999999995,0.200725,0.36241
2019-05-23T04:16:57.848916Z,0.100687,0.024791,1.0638239999999999
2019-05-23T04:16:57.888916Z,0.463203,0.230791,1.548063
2019-05-23T04:16:57.927916Z,0.654162,0.386314,1.484115
2019-05-23T04:16:57.967916Z,0.269496,0.9306040000000001,0.567527
2019-05-23T04:16:58.006916Z,0.116497,-0.940156,2.282873
2019-05-23T04:16:58.048916Z,0.332339,-1.047029,2.326718
2019-05-23T04:16:58.087916Z,0.633889,-0.36930100000000005,-0.2801
2019-05-23T04:16:58.128916Z,-0.135933,-0.996917,-0.249869
2019-05-23T04:16:58.166916Z,0.028936,-1.095768,-0.165681
2019-05-23T04:16:58.259916Z,0.166123,-0.855333,-0.5745899999999999
2019-05-23T04:16:58.259916Z,-0.718987,-0.706397,-1.944319
2019-05-23T04:16:58.290916Z,-0.8148479999999999,-0.6948449999999999,-1.935439
2019-05-23T04:16:58.326916Z,-0.631957,-0.364843,-1.675083
2019-05-23T04:16:58.366916Z,-1.6791029999999998,-0.456679,-1.2268780000000001
2019-05-23T04:16:58.407916Z,-1.952795,-0.519319,-1.226866
2019-05-23T04:16:58.449916Z,-1.505986,-0.33168800000000004,0.348475
2019-05-23T04:16:58.487916Z,-3.165324,-0.50073,1.203915
2019-05-23T04:16:58.527916Z,-3.5214339999999997,-0.700817,1.267325
2019-05-23T04:16:58.567916Z,-3.176734,-1.524398,2.147993
2019-05-23T04:16:58.622916Z,-0.747945,-1.6165969999999998,1.0027059999999999
2019-05-23T04:16:58.653916Z,-0.7864720000000001,-1.57477,0.9783700000000001
2019-05-23T04:16:58.687916Z,0.448383,-1.3831360000000001,0.29434
2019-05-23T04:16:58.727916Z,0.39009,-1.59975,0.652729
2019-05-23T04:16:58.767916Z,0.297177,-1.647032,0.6756810000000001
2019-05-23T04:16:58.808916Z,-1.422518,-2.145368,1.039894
2019-05-23T04:16:58.847916Z,-0.44366000000000005,-2.014605,0.546288
2019-05-23T04:16:58.888916Z,-0.130824,-1.812282,0.46894399999999997
2019-05-23T04:16:58.928916Z,-0.9567760000000001,-2.738854,-0.155111
2019-05-23T04:16:58.967916Z,-1.4438309999999999,-2.861631,0.44386099999999995
2019-05-23T04:16:59.007916Z,-1.257557,-2.8819619999999997,0.484638
2019-05-23T04:16:59.049916Z,-0.9648479999999999,-2.6308119999999997,1.0130649999999999
2019-05-23T04:16:59.088916Z,-0.501591,-2.221507,1.714333
2019-05-23T04:16:59.129916Z,-0.430069,-2.218686,1.711066
2019-05-23T04:16:59.169916Z,0.60148,-2.170116,2.577589
2019-05-23T04:16:59.208916Z,0.968593,-2.2307360000000003,1.685297
2019-05-23T04:16:59.249916Z,0.985535,-2.240781,1.684553
2019-05-23T04:16:59.289916Z,0.856844,-1.9572779999999999,0.764536
2019-05-23T04:16:59.329916Z,1.124486,-1.279401,1.2169729999999999
2019-05-23T04:16:59.369916Z,1.247609,-1.274304,1.232804
2019-05-23T04:16:59.409916Z,1.721079,-0.9572799999999999,0.195589
2019-05-23T04:16:59.449916Z,1.62911,-1.073497,1.005047
2019-05-23T04:16:59.489916Z,1.4797120000000001,-1.248464,1.055324
2019-05-23T04:16:59.529916Z,2.659759,-1.147613,2.37208
2019-05-23T04:16:59.568916Z,2.6964599999999996,-1.3333469999999998,0.6266079999999999
2019-05-23T04:16:59.610916Z,2.879632,-1.246434,0.633798
2019-05-23T04:16:59.649916Z,2.415398,-1.47097,0.855614
2019-05-23T04:16:59.689916Z,2.371953,-1.612195,0.792683
2019-05-23T04:16:59.729916Z,2.103911,-1.635877,0.762637
2019-05-23T04:16:59.769916Z,2.498459,-1.186447,0.657798
2019-05-23T04:16:59.810916Z,2.925494,-1.2229729999999999,0.6660590000000001
2019-05-23T04:16:59.849916Z,3.028984,-1.2196420000000001,0.693207
2019-05-23T04:16:59.889916Z,2.502768,-0.503437,-0.349724
2019-05-23T04:16:59.929916Z,2.1177490000000003,-0.242326,-0.7532409999999999
2019-05-23T04:16:59.969916Z,2.148957,-0.09836900000000001,-0.802081
2019-05-23T04:17:00.009916Z,1.747873,0.26666799999999996,-0.652038
2019-05-23T04:17:00.048916Z,1.239684,0.064942,0.873075
2019-05-23T04:17:00.152916Z,1.200177,-0.00302,0.8856360000000001
2019-05-23T04:17:00.153916Z,0.045737,0.05072,0.6881
2019-05-23T04:17:00.172916Z,0.8454729999999999,0.283184,-0.46241800000000005
2019-05-23T04:17:00.209916Z,0.707429,0.327923,-0.5022840000000001
2019-05-23T04:17:00.248916Z,1.238574,0.738647,-0.38817199999999996
2019-05-23T04:17:00.288916Z,0.8456629999999999,0.46770100000000003,0.585733
2019-05-23T04:17:00.328916Z,0.7929149999999999,0.402534,0.597171
2019-05-23T04:17:00.368916Z,1.2086290000000002,-0.125432,1.009253
2019-05-23T04:17:00.408916Z,0.826203,-0.377623,0.896108
2019-05-23T04:17:00.449916Z,0.793215,-0.416263,0.899999
2019-05-23T04:17:00.496916Z,1.3826260000000001,-1.6204399999999999,0.538754
2019-05-23T04:17:00.528916Z,0.8680979999999999,-1.281513,0.076722
2019-05-23T04:17:00.569916Z,0.964814,-1.245926,0.079697
2019-05-23T04:17:00.608916Z,1.7505380000000001,-1.2365329999999999,0.48990600000000006
2019-05-23T04:17:00.648916Z,1.478936,-0.892408,-0.5924
2019-05-23T04:17:00.688916Z,1.5753469999999998,-0.8022520000000001,-0.600232
2019-05-23T04:17:00.728916Z,1.356056,0.168873,-2.34881
2019-05-23T04:17:00.768916Z,0.483901,0.381101,0.086728
2019-05-23T04:17:00.809916Z,0.39012800000000003,0.41841000000000006,0.054542999999999994
2019-05-23T04:17:00.849916Z,-0.12163299999999999,-0.3177,0.553232
2019-05-23T04:17:00.889916Z,0.31500100000000003,0.380468,0.396096
2019-05-23T04:17:00.930916Z,0.26861999999999997,0.320228,0.405464
2019-05-23T04:17:00.970916Z,0.957234,0.235346,1.3270620000000002
2019-05-23T04:17:01.009916Z,0.910798,0.258992,1.786531
2019-05-23T04:17:01.113916Z,1.1616360000000001,0.267945,1.7879919999999998
2019-05-23T04:17:01.116916Z,1.061464,-0.415551,0.027315
2019-05-23T04:17:01.130916Z,0.129011,-1.018875,1.3134190000000001
2019-05-23T04:17:01.170916Z,0.19170299999999998,-1.101746,1.339539
2019-05-23T04:17:01.212916Z,1.407448,-1.416142,1.7371299999999998
2019-05-23T04:17:01.250916Z,1.207429,-1.653087,0.026445999999999997
2019-05-23T04:17:01.290916Z,1.332659,-1.595696,0.041101
2019-05-23T04:17:01.329916Z,0.9571040000000001,-1.2768979999999999,-1.220258
2019-05-23T04:17:01.368916Z,0.4828,-0.961312,-0.843776
2019-05-23T04:17:01.409916Z,0.572597,-0.9578770000000001,-0.803326
2019-05-23T04:17:01.450916Z,0.47371199999999997,-0.48208500000000004,-0.634811
2019-05-23T04:17:01.490916Z,0.9265959999999999,-0.536454,0.19739
2019-05-23T04:17:01.529916Z,1.0616860000000001,-0.591214,0.260288
2019-05-23T04:17:01.569916Z,1.2200870000000001,-0.148225,0.304158
2019-05-23T04:17:01.608916Z,1.078678,0.669376,-0.376413
2019-05-23T04:17:01.652916Z,1.1583860000000001,0.796131,-0.395455
2019-05-23T04:17:01.688916Z,1.321066,1.007431,0.805185
2019-05-23T04:17:01.729916Z,1.030006,0.181008,2.0013959999999997
2019-05-23T04:17:01.770916Z,1.015355,0.10374100000000001,1.997154
2019-05-23T04:17:01.810916Z,1.410935,-0.619423,0.7361340000000001
2019-05-23T04:17:01.852916Z,1.4905469999999998,-0.9154559999999999,1.007072
2019-05-23T04:17:01.890916Z,1.28264,-0.875807,0.937256
2019-05-23T04:17:01.929916Z,1.60323,-1.880077,1.794568
2019-05-23T04:17:01.971916Z,1.867146,-1.968795,0.6159479999999999
2019-05-23T04:17:02.009916Z,1.686268,-1.786645,0.529301
2019-05-23T04:17:02.049916Z,1.9117119999999999,-1.345639,-0.028821
2019-05-23T04:17:02.090916Z,2.00346,-1.7246869999999999,0.49508500000000005
2019-05-23T04:17:02.130916Z,1.7954849999999998,-1.783022,0.49094399999999994
2019-05-23T04:17:02.171916Z,1.1753280000000002,-1.696775,1.135422
2019-05-23T04:17:02.209916Z,0.732962,-1.6941380000000001,-0.028245999999999997
2019-05-23T04:17:02.250916Z,0.5646399999999999,-1.7355599999999998,-0.013850999999999999
2019-05-23T04:17:02.294916Z,0.433382,-0.8485540000000001,0.349298
2019-05-23T04:17:02.329916Z,0.410696,-0.870836,1.287654
2019-05-23T04:17:02.370916Z,0.493274,-0.997453,1.313188
2019-05-23T04:17:02.410916Z,-0.349066,-1.586294,1.152658
2019-05-23T04:17:02.451916Z,-0.30436399999999997,-1.042885,0.954197
2019-05-23T04:17:02.492916Z,-0.183042,-1.1779950000000001,1.002874
2019-05-23T04:17:02.530916Z,-0.390673,-1.1149950000000002,-0.987791
2019-05-23T04:17:02.570916Z,-0.429951,-1.4064729999999999,-0.08493200000000001
2019-05-23T04:17:02.611916Z,-0.398669,-1.4319629999999999,-0.064152
2019-05-23T04:17:02.651916Z,0.9045280000000001,-1.0992620000000002,0.5736859999999999
2019-05-23T04:17:02.691916Z,1.119657,-0.5686899999999999,-0.344598
2019-05-23T04:17:02.731916Z,1.25058,-0.527848,-0.337943
2019-05-23T04:17:02.770916Z,0.219218,-0.8192459999999999,-0.090952
2019-05-23T04:17:02.866916Z,-0.238686,-0.46586400000000006,-1.046712
2019-05-23T04:17:02.867916Z,-0.266761,-0.410182,-1.0490059999999999
2019-05-23T04:17:02.896916Z,0.45485200000000003,0.091274,0.151731
2019-05-23T04:17:02.932916Z,0.22128899999999999,0.11960599999999999,0.71755
2019-05-23T04:17:02.970916Z,0.139377,-0.057213,0.762378
2019-05-23T04:17:03.011916Z,0.187097,-0.066729,1.060309
2019-05-23T04:17:03.051916Z,-0.068187,0.063361,0.084467
2019-05-23T04:17:03.092916Z,-0.143723,0.037717,0.08745499999999999
2019-05-23T04:17:03.131916Z,-0.797605,0.24836599999999998,0.01955
2019-05-23T04:17:03.171916Z,-0.648401,-0.092471,0.244428
2019-05-23T04:17:03.227916Z,-0.7340369999999999,0.012243,0.196332
2019-05-23T04:17:03.251916Z,-0.37495900000000004,-1.297664,2.956993
2019-05-23T04:17:03.292916Z,-0.318181,-1.419083,1.030298
2019-05-23T04:17:03.332916Z,-0.461609,-1.509257,1.056459
2019-05-23T04:17:03.372916Z,-0.285204,-0.5070939999999999,-0.45716899999999994
2019-05-23T04:17:03.411916Z,-0.155198,-1.259728,-0.171529
2019-05-23T04:17:03.451916Z,-0.084272,-1.281987,-0.147896
2019-05-23T04:17:03.492916Z,-0.5257029999999999,-1.183833,-1.260834
2019-05-23T04:17:03.533916Z,-0.752409,-0.296006,-1.40178
2019-05-23T04:17:03.572916Z,-0.9335899999999999,-0.269013,-1.388295
2019-05-23T04:17:03.611916Z,-0.9113549999999999,-0.179514,-0.06495
2019-05-23T04:17:03.652916Z,-0.524526,-0.452762,0.622184
2019-05-23T04:17:03.692916Z,-0.5068739999999999,-0.48726899999999995,0.6305069999999999
2019-05-23T04:17:03.731916Z,-0.591,0.08184,0.354684
2019-05-23T04:17:03.772916Z,-1.073065,-0.09019500000000001,1.161175
2019-05-23T04:17:03.812916Z,-1.1855870000000002,-0.14511300000000002,1.179006
2019-05-23T04:17:03.852916Z,-0.006272,0.124253,0.814268
2019-05-23T04:17:03.892916Z,-0.105557,0.06863999999999999,0.696911
2019-05-23T04:17:03.932916Z,0.10953399999999999,0.19631400000000002,0.615785
2019-05-23T04:17:03.974916Z,0.13259,-1.049972,0.6093810000000001
2019-05-23T04:17:04.012916Z,0.251498,-1.227495,0.5331670000000001
2019-05-23T04:17:04.051916Z,0.5160319999999999,-1.2584,0.549375
2019-05-23T04:17:04.091916Z,-0.076949,-1.081177,-0.238673
2019-05-23T04:17:04.131916Z,-0.923063,-1.247609,-0.397998
2019-05-23T04:17:04.206916Z,-0.8825440000000001,-1.260118,-0.376569
2019-05-23T04:17:04.230916Z,-0.856088,-0.946522,-0.48118999999999995
2019-05-23T04:17:04.259916Z,-1.618789,-0.55361,-1.50207
2019-05-23T04:17:04.291916Z,-1.8506220000000002,-0.45703599999999994,-1.514116
2019-05-23T04:17:04.332916Z,-1.340619,-0.36943400000000004,0.029570999999999997
2019-05-23T04:17:04.372916Z,-0.508916,-0.428014,0.8468950000000001
2019-05-23T04:17:04.412916Z,-0.459397,-0.42931199999999997,0.8354879999999999
2019-05-23T04:17:04.452916Z,-0.141164,-0.313438,0.8701260000000001
2019-05-23T04:17:04.493916Z,-0.521422,-0.79387,0.646137
2019-05-23T04:17:04.533916Z,-0.464079,-0.66866,0.5962069999999999
2019-05-23T04:17:04.575916Z,-0.47615799999999997,-0.329464,0.46337700000000004
2019-05-23T04:17:04.612916Z,-0.604056,-1.132867,1.992632
2019-05-23T04:17:04.653916Z,-0.499729,-1.1526299999999998,1.9728569999999999
2019-05-23T04:17:04.693916Z,-0.135222,-1.4888709999999998,0.792976
2019-05-23T04:17:04.732916Z,-0.186993,-0.7968189999999999,0.05391
2019-05-23T04:17:04.773916Z,-0.156052,-0.762209,0.046952999999999995
2019-05-23T04:17:04.812916Z,-0.031698000000000004,-1.24186,-0.267946
2019-05-23T04:17:04.852916Z,0.193864,-0.909316,-0.804991
2019-05-23T04:17:04.892916Z,0.24036999999999997,-0.868101,-0.7971050000000001
2019-05-23T04:17:04.933916Z,0.357694,-0.08002999999999999,-0.565059
2019-05-23T04:17:04.973916Z,0.469102,0.25150500000000003,-0.225476
2019-05-23T04:17:05.013916Z,0.483038,0.367521,-0.25301799999999997
2019-05-23T04:17:05.054916Z,0.395269,0.896172,0.219519
2019-05-23T04:17:05.093916Z,0.314757,0.737712,1.186501
2019-05-23T04:17:05.132916Z,0.267447,0.7546619999999999,1.157417
2019-05-23T04:17:05.173916Z,0.130269,0.653795,0.961815
2019-05-23T04:17:05.213916Z,0.479559,0.601467,0.698824
2019-05-23T04:17:05.254916Z,0.4288,0.660333,0.6691600000000001
2019-05-23T04:17:05.294916Z,0.265045,0.37042600000000003,-0.159984
2019-05-23T04:17:05.334916Z,0.490158,-0.534239,0.63826
2019-05-23T04:17:05.373916Z,0.480311,-0.631271,0.652276
2019-05-23T04:17:05.417916Z,0.081897,-1.048082,0.070061
2019-05-23T04:17:05.453916Z,0.292835,-1.276199,-0.019814
2019-05-23T04:17:05.494916Z,0.365052,-1.357975,0.008756
2019-05-23T04:17:05.532916Z,0.49851,-0.926789,-0.362844
2019-05-23T04:17:05.574916Z,0.447833,-0.41657799999999995,-0.7670399999999999
2019-05-23T04:17:05.613916Z,0.532551,-0.45252200000000004,-0.73819
2019-05-23T04:17:05.687916Z,-0.001643,-0.288644,-1.140526
2019-05-23T04:17:05.697916Z,-0.13308499999999998,-0.16636800000000002,-0.429033
2019-05-23T04:17:05.735916Z,-0.21361999999999998,-0.27266599999999996,-0.396934
2019-05-23T04:17:05.772916Z,-0.7214689999999999,-0.505785,0.52374
2019-05-23T04:17:05.813916Z,0.164805,0.141322,0.5468109999999999
2019-05-23T04:17:05.853916Z,0.153187,0.159393,0.531246
2019-05-23T04:17:05.894916Z,-0.130347,0.037489,0.507504
2019-05-23T04:17:05.934916Z,-0.309101,-0.471346,0.908098
2019-05-23T04:17:05.974916Z,-0.394828,-0.475579,0.891117
2019-05-23T04:17:06.031916Z,-0.164677,-0.451783,1.052808
2019-05-23T04:17:06.054916Z,-0.023693000000000002,-1.2644879999999998,1.346176
2019-05-23T04:17:06.094916Z,0.088232,-1.2892569999999999,1.344311
2019-05-23T04:17:06.134916Z,0.043598000000000005,-1.420123,0.425336
2019-05-23T04:17:06.173916Z,-0.43532299999999996,-1.8746720000000001,0.081214
2019-05-23T04:17:06.213916Z,-0.336174,-1.8634130000000002,0.094069
2019-05-23T04:17:06.253916Z,-0.226883,-2.26225,-0.30383899999999997
2019-05-23T04:17:06.294916Z,-0.22236199999999998,-1.540065,-0.760678
2019-05-23T04:17:06.335916Z,-0.09925,-1.3415219999999999,-0.783542
2019-05-23T04:17:06.374916Z,0.544588,-0.800678,-0.617156
2019-05-23T04:17:06.414916Z,0.905435,-0.6963550000000001,0.769295
2019-05-23T04:17:06.456916Z,0.9349040000000001,-0.723176,0.7725479999999999
2019-05-23T04:17:06.496916Z,1.116241,-0.194368,0.282053
2019-05-23T04:17:06.536916Z,1.288778,-0.098161,0.821098
2019-05-23T04:17:06.575916Z,1.23155,-0.170183,0.8235790000000001
2019-05-23T04:17:06.615916Z,1.331169,0.01048,0.648543
2019-05-23T04:17:06.655916Z,1.952257,-0.053925,0.8070890000000001
2019-05-23T04:17:06.695916Z,2.0586,0.088179,0.7726
2019-05-23T04:17:06.736916Z,1.609664,0.127631,0.120854
2019-05-23T04:17:06.776916Z,0.048537000000000004,-0.22454200000000002,1.343002
2019-05-23T04:17:06.818916Z,0.007108,-0.478357,1.384552
2019-05-23T04:17:06.856916Z,0.9609719999999999,-0.492588,0.397942
2019-05-23T04:17:06.896916Z,1.3580219999999998,0.284586,-0.501116
2019-05-23T04:17:06.936916Z,1.438836,0.24864899999999998,-0.47246400000000005
2019-05-23T04:17:06.974916Z,1.400452,-0.24608200000000002,-0.6093810000000001
2019-05-23T04:17:07.059916Z,1.058268,-0.023007,-1.645547
2019-05-23T04:17:07.060916Z,1.114366,0.011516,-1.61742
2019-05-23T04:17:07.098916Z,0.24693,-0.510901,-0.631682
2019-05-23T04:17:07.134916Z,0.9138719999999999,-0.20290999999999998,-0.33773400000000003
2019-05-23T04:17:07.174916Z,0.862499,-0.184427,-0.34072399999999997
2019-05-23T04:17:07.215916Z,1.335718,0.6071880000000001,-0.5037149999999999
2019-05-23T04:17:07.255916Z,1.15181,0.929717,0.22500599999999998
2019-05-23T04:17:07.294916Z,1.16767,0.903956,0.22822399999999998
2019-05-23T04:17:07.335916Z,0.967844,1.184476,0.175931
2019-05-23T04:17:07.375916Z,0.9418059999999999,0.7693399999999999,1.407772
2019-05-23T04:17:07.422916Z,0.9289229999999999,0.650224,1.41713
2019-05-23T04:17:07.455916Z,0.7999430000000001,0.24001799999999998,0.655796
2019-05-23T04:17:07.495916Z,0.717669,0.062439,1.498731
2019-05-23T04:17:07.536916Z,0.573,0.033914,1.476415
2019-05-23T04:17:07.575916Z,0.78458,-1.64125,1.764066
2019-05-23T04:17:07.616916Z,0.9889469999999999,-1.5203879999999999,0.246644
2019-05-23T04:17:07.657916Z,1.001688,-1.569246,0.267854
2019-05-23T04:17:07.696916Z,1.561285,-1.034135,-0.4947
2019-05-23T04:17:07.736916Z,1.64533,-1.125796,-0.9809889999999999
2019-05-23T04:17:07.775916Z,1.894909,-1.193682,-0.9087540000000001
2019-05-23T04:17:07.815916Z,1.599581,-0.630339,-1.257935
2019-05-23T04:17:07.857916Z,1.4491379999999998,-0.2508,-0.550049
2019-05-23T04:17:07.895916Z,1.5178200000000002,-0.244731,-0.528192
2019-05-23T04:17:07.942916Z,0.77344,-0.083864,-0.7120449999999999
2019-05-23T04:17:07.977916Z,1.628016,0.513295,0.441691
2019-05-23T04:17:08.014916Z,1.492323,0.5020020000000001,0.42240600000000006
2019-05-23T04:17:08.055916Z,0.9962219999999999,0.21371500000000002,1.002465
2019-05-23T04:17:08.096916Z,2.2565169999999997,-0.058172,1.9332529999999999
2019-05-23T04:17:08.136916Z,2.331624,-0.137429,1.9447310000000002
2019-05-23T04:17:08.175916Z,1.6052469999999999,-0.499725,1.369648
2019-05-23T04:17:08.217916Z,1.9422139999999999,-0.8540200000000001,1.977296
2019-05-23T04:17:08.256916Z,1.840127,-0.900343,1.961284
2019-05-23T04:17:08.302916Z,1.899456,-0.741805,0.042238
2019-05-23T04:17:08.335916Z,2.65918,-1.08284,-0.198152
2019-05-23T04:17:08.377916Z,2.605696,-0.9152549999999999,-0.25229
2019-05-23T04:17:08.416916Z,2.286722,-0.8506239999999999,-0.949234
2019-05-23T04:17:08.456916Z,1.91793,-0.881863,-1.318079
2019-05-23T04:17:08.496916Z,1.852768,-0.818707,-1.314166
2019-05-23T04:17:08.536916Z,1.3493540000000002,-0.7179439999999999,-0.8897959999999999
2019-05-23T04:17:08.576916Z,1.45415,-0.417192,-0.083244
2019-05-23T04:17:08.617916Z,1.449763,-0.298373,-0.11541400000000002
2019-05-23T04:17:08.656916Z,0.939026,-0.02426,0.889273
2019-05-23T04:17:08.696916Z,0.960608,-0.244087,1.909791
2019-05-23T04:17:08.737916Z,0.8692059999999999,-0.333683,1.904481
2019-05-23T04:17:08.777916Z,0.70182,-0.17728,2.081264
2019-05-23T04:17:08.817916Z,0.7062970000000001,0.286485,1.283374
2019-05-23T04:17:08.858916Z,0.525891,0.141656,1.312215
2019-05-23T04:17:08.897916Z,0.762454,-1.106266,1.891788
2019-05-23T04:17:08.938916Z,-0.328219,-2.5384580000000003,-0.600923
2019-05-23T04:17:08.978916Z,-0.495284,-2.568632,-0.561669
2019-05-23T04:17:09.017916Z,-0.793694,-2.769297,-0.00717
2019-05-23T04:17:09.059916Z,-0.187553,-2.599929,-0.5955520000000001
2019-05-23T04:17:09.095916Z,0.030933999999999996,-2.4468,-0.623915
2019-05-23T04:17:09.136916Z,-0.16946,-1.800582,-1.040985
2019-05-23T04:17:09.238916Z,0.147144,-0.9445540000000001,-0.408148
2019-05-23T04:17:09.239916Z,0.18843,-0.898149,-0.41107899999999997
2019-05-23T04:17:09.262916Z,0.12288099999999999,-0.652934,-0.726875
2019-05-23T04:17:09.297916Z,0.292702,-0.7046279999999999,1.471044
2019-05-23T04:17:09.336916Z,0.213213,-0.785413,1.480042
2019-05-23T04:17:09.377916Z,0.738129,-0.96991,1.4805139999999999
2019-05-23T04:17:09.417916Z,1.497631,-0.433547,0.35992399999999997
2019-05-23T04:17:09.460916Z,1.2463790000000001,-0.287638,0.308023
2019-05-23T04:17:09.497916Z,0.572723,-0.774179,1.373097
2019-05-23T04:17:09.537916Z,1.8332389999999998,-2.4773,2.0470990000000002
2019-05-23T04:17:09.606916Z,1.9757099999999999,-2.413776,2.001616
2019-05-23T04:17:09.617916Z,1.5707959999999999,-1.7178639999999998,-0.272447
2019-05-23T04:17:09.657916Z,1.8024099999999998,-1.4735340000000001,-0.049339999999999995
2019-05-23T04:17:09.697916Z,1.891389,-1.399724,-0.066234
2019-05-23T04:17:09.738916Z,1.7078240000000002,-1.0238399999999999,-0.16187
2019-05-23T04:17:09.778916Z,1.4025530000000002,-1.086529,0.551913
2019-05-23T04:17:09.818916Z,1.473431,-1.132109,0.564566
2019-05-23T04:17:09.857916Z,0.8958729999999999,-1.326136,-0.571005
2019-05-23T04:17:09.898916Z,0.48463900000000004,-1.0629540000000002,-0.012501
2019-05-23T04:17:09.937916Z,0.38494,-1.106141,0.006490999999999999
2019-05-23T04:17:09.977916Z,-0.091976,-1.184251,1.243494
2019-05-23T04:17:10.018916Z,-0.123168,-0.26050100000000004,1.497693
2019-05-23T04:17:10.059916Z,-0.309363,-0.335417,1.506235
2019-05-23T04:17:10.099916Z,0.009375,-0.10361400000000001,1.0143
2019-05-23T04:17:10.139916Z,0.12050999999999999,-0.18608,0.7843600000000001
2019-05-23T04:17:10.179916Z,0.013861000000000002,-0.289917,0.818743
2019-05-23T04:17:10.218916Z,-0.573471,-0.63625,0.251062
2019-05-23T04:17:10.259916Z,-1.175928,-1.92955,0.9582139999999999
2019-05-23T04:17:10.299916Z,-1.07619,-1.925287,0.945141
2019-05-23T04:17:10.339916Z,-1.192173,-1.7533169999999998,-0.490802
