Datetime,accx,accy,accz
2019-04-15T13:18:07.125041Z,-0.23311700000000002,0.7533489999999999,-0.474297
2019-04-15T13:18:07.326041Z,-0.30842600000000003,0.575047,0.514918
2019-04-15T13:18:07.529041Z,0.26694,-0.41886599999999996,0.172812
2019-04-15T13:18:07.731041Z,-0.038685000000000004,0.398445,-0.155643
2019-04-15T13:18:07.933041Z,-0.7581220000000001,0.09868500000000001,-0.731173
2019-04-15T13:18:08.135041Z,-0.7343970000000001,1.025764,-0.10828900000000001
2019-04-15T13:18:08.337041Z,0.098353,-0.22234099999999998,0.45287799999999995
2019-04-15T13:18:08.540041Z,0.411,-0.754322,-1.139853
2019-04-15T13:18:08.742041Z,-0.202672,0.154694,0.307871
2019-04-15T13:18:08.945041Z,0.150019,-0.045239999999999995,0.149181
2019-04-15T13:18:09.147041Z,0.293405,-0.549505,0.33998
2019-04-15T13:18:09.349041Z,-0.508312,-0.44468900000000006,0.053111
2019-04-15T13:18:09.567041Z,-0.730597,-2.1248,1.457762
2019-04-15T13:18:09.755041Z,0.245955,-2.547499,1.194106
2019-04-15T13:18:09.957041Z,-0.9760620000000001,-1.131617,0.18631099999999998
2019-04-15T13:18:10.159041Z,-1.66523,-0.8021560000000001,1.6389599999999998
2019-04-15T13:18:10.360041Z,-0.9523360000000001,-3.849167,1.299272
2019-04-15T13:18:10.563041Z,-0.812379,-1.5436239999999999,0.291677
2019-04-15T13:18:10.764041Z,-2.010623,-2.023511,2.022601
2019-04-15T13:18:10.967041Z,-1.202812,-3.804017,2.802588
2019-04-15T13:18:11.172041Z,-0.551326,-3.1260310000000002,1.081302
2019-04-15T13:18:11.373041Z,-1.134732,-1.548626,-2.560441
2019-04-15T13:18:11.573041Z,-0.9611069999999999,-1.9812490000000003,2.4753130000000003
2019-04-15T13:18:11.776041Z,-1.10279,-2.9529400000000003,0.316163
2019-04-15T13:18:11.978041Z,-1.695843,-1.393091,1.2324469999999998
2019-04-15T13:18:12.181041Z,-0.87721,-1.8502040000000002,2.2141990000000003
2019-04-15T13:18:12.382041Z,-0.2623,-2.470176,1.437444
2019-04-15T13:18:12.585041Z,-0.699126,-1.572969,0.447932
2019-04-15T13:18:12.809041Z,-2.2918939999999997,-2.005216,2.748504
2019-04-15T13:18:12.989041Z,-2.979381,-3.097984,1.921297
2019-04-15T13:18:13.191041Z,-3.6090089999999995,-2.2319560000000003,1.633896
2019-04-15T13:18:13.393041Z,-3.952628,-1.099169,2.07058
2019-04-15T13:18:13.595041Z,-3.377571,-2.04327,2.603112
2019-04-15T13:18:13.800041Z,-2.582884,-2.166082,0.9250459999999999
2019-04-15T13:18:14.000041Z,-2.739293,-1.336035,1.782341
2019-04-15T13:18:14.202041Z,-2.856411,-1.8963740000000002,2.291163
2019-04-15T13:18:14.415041Z,-2.0273470000000002,-2.221509,0.49624300000000005
2019-04-15T13:18:14.606041Z,-2.035172,-1.551472,1.090198
2019-04-15T13:18:14.809041Z,-1.8202080000000003,-1.681173,1.177011
2019-04-15T13:18:15.012041Z,-1.538318,-1.81513,1.6843669999999997
2019-04-15T13:18:15.213041Z,-1.359192,-0.948784,0.442938
2019-04-15T13:18:15.415041Z,-0.574605,-0.9267129999999999,1.485021
2019-04-15T13:18:15.618041Z,-0.5774560000000001,-3.068289,1.6493229999999999
2019-04-15T13:18:15.820041Z,0.011462,-2.773417,1.8513110000000002
2019-04-15T13:18:16.572041Z,0.0,0.0,0.0
2019-04-15T13:18:16.775041Z,0.35483000000000003,0.700637,0.09730599999999999
2019-04-15T13:18:16.977041Z,-0.762047,0.681772,0.286017
2019-04-15T13:18:17.179041Z,-1.489533,-0.10144600000000001,-0.002829
2019-04-15T13:18:17.380041Z,-2.294074,0.444255,0.48233400000000004
2019-04-15T13:18:17.583041Z,-1.692264,1.379081,-0.189744
2019-04-15T13:18:17.785041Z,-1.1325120000000002,0.640073,0.876043
2019-04-15T13:18:17.986041Z,0.144379,-1.053382,0.71278
2019-04-15T13:18:18.189041Z,0.015194999999999998,-0.584595,-0.623157
2019-04-15T13:18:18.415041Z,-0.390085,0.331701,-0.695128
2019-04-15T13:18:18.617041Z,-1.7113650000000002,0.9277850000000001,0.637988
2019-04-15T13:18:18.797041Z,-2.1548990000000003,-0.21775999999999998,0.647288
2019-04-15T13:18:18.997041Z,-2.9407259999999997,-0.406472,-0.617649
2019-04-15T13:18:19.201041Z,-2.556482,0.922013,0.8641629999999999
2019-04-15T13:18:19.403041Z,-2.071682,-0.357031,0.9678709999999999
2019-04-15T13:18:19.872041Z,-1.80065,0.238317,0.257524
2019-04-15T13:18:20.074041Z,-1.3309540000000002,1.741629,-0.374184
2019-04-15T13:18:20.276041Z,0.023467,1.2504110000000002,0.72306
2019-04-15T13:18:20.478041Z,-0.709201,-0.12041700000000001,0.21489
2019-04-15T13:18:20.681041Z,-1.242761,1.622159,-0.151166
2019-04-15T13:18:20.919041Z,-2.0738659999999998,1.448007,-0.486695
2019-04-15T13:18:21.085041Z,-1.273228,0.56643,0.14113599999999998
2019-04-15T13:18:21.287041Z,-1.3306209999999998,0.0122,0.08867799999999999
2019-04-15T13:18:21.490041Z,-1.3664290000000001,-0.793862,-0.661737
2019-04-15T13:18:21.692041Z,-2.326331,-0.389801,2.490263
2019-04-15T13:18:21.895041Z,-2.091349,-2.07566,-0.942924
2019-04-15T13:18:22.096041Z,-0.988051,-1.135526,-0.463315
2019-04-15T13:18:22.316041Z,-1.504473,-0.495007,1.4207670000000001
2019-04-15T13:18:22.501041Z,-1.003897,-1.5214020000000001,0.9597629999999999
2019-04-15T13:18:22.702041Z,-0.626143,-1.543125,-0.480621
2019-04-15T13:18:22.904041Z,-0.779722,-0.617783,0.9849610000000001
2019-04-15T13:18:23.106041Z,-0.434641,-1.067405,0.738999
2019-04-15T13:18:23.308041Z,-0.696751,-2.738276,0.744996
2019-04-15T13:18:23.511041Z,0.286062,0.16251600000000002,-0.11613
2019-04-15T13:18:23.713041Z,-0.244073,1.074734,-0.215757
2019-04-15T13:18:23.915041Z,-0.10660399999999999,0.465992,1.564914
2019-04-15T13:18:24.117041Z,0.14386600000000002,0.552321,-1.257092
2019-04-15T13:18:24.320041Z,0.152048,1.307851,-0.246646
2019-04-15T13:18:24.521041Z,0.405368,2.989856,0.636736
2019-04-15T13:18:24.911041Z,0.444899,3.7556730000000003,0.616974
2019-04-15T13:18:25.113041Z,0.0,0.0,0.0
2019-04-15T13:18:25.322041Z,0.30701,0.318105,0.45291000000000003
2019-04-15T13:18:25.517041Z,1.128889,-1.3077459999999999,0.468372
2019-04-15T13:18:25.719041Z,1.1545159999999999,-0.701913,-0.46786700000000003
2019-04-15T13:18:25.921041Z,-0.889717,-0.25439,0.215346
2019-04-15T13:18:26.123041Z,-2.161812,-0.306155,0.33125
2019-04-15T13:18:26.325041Z,-2.473472,-1.301525,0.285196
2019-04-15T13:18:26.527041Z,-0.955968,-0.5187970000000001,-0.491385
2019-04-15T13:18:26.729041Z,-0.773469,-0.169044,0.358667
2019-04-15T13:18:26.933041Z,0.792454,-1.246414,0.87151
2019-04-15T13:18:27.145041Z,-0.099261,-1.853156,-0.741478
2019-04-15T13:18:27.335041Z,-0.15462,-0.43510299999999996,0.375377
2019-04-15T13:18:27.537041Z,-0.967076,-0.290584,0.760476
2019-04-15T13:18:27.741041Z,-0.12904200000000002,-0.064938,-0.278531
2019-04-15T13:18:27.964041Z,-0.6093,0.475796,-0.801164
2019-04-15T13:18:28.413041Z,1.360878,0.5095,-0.64049
2019-04-15T13:18:28.613041Z,0.8531860000000001,2.723341,0.52261
2019-04-15T13:18:28.816041Z,0.587911,2.367029,0.809682
2019-04-15T13:18:29.018041Z,-0.151853,0.452088,0.622631
2019-04-15T13:18:29.220041Z,-1.60843,1.799773,-0.7201529999999999
2019-04-15T13:18:29.422041Z,-0.783087,2.312925,-0.628594
2019-04-15T13:18:29.626041Z,-0.877832,1.4169129999999999,-0.758745
2019-04-15T13:18:29.826041Z,-1.2717459999999998,1.1641709999999998,-0.613893
2019-04-15T13:18:30.029041Z,-0.838651,1.7760669999999998,0.20565999999999998
2019-04-15T13:18:30.231041Z,-1.675087,-0.14613199999999998,0.8426290000000001
2019-04-15T13:18:30.433041Z,0.017901,1.033435,-1.1612790000000002
2019-04-15T13:18:30.636041Z,-0.6183609999999999,1.417653,-0.869611
2019-04-15T13:18:30.837041Z,-0.343066,1.851637,0.832729
2019-04-15T13:18:31.040041Z,0.35191,0.840774,0.789718
2019-04-15T13:18:31.243041Z,-0.903418,0.276976,-0.400517
2019-04-15T13:18:31.443041Z,-1.327675,0.264563,-0.127091
2019-04-15T13:18:31.646041Z,-0.25605500000000003,-0.22263200000000002,0.05099
2019-04-15T13:18:31.849041Z,-0.074672,-0.41877700000000007,-1.170727
2019-04-15T13:18:32.051041Z,-0.991974,0.697715,0.787033
2019-04-15T13:18:32.252041Z,-0.382385,0.524838,1.844168
2019-04-15T13:18:32.454041Z,-0.422444,0.269164,-1.0384879999999999
2019-04-15T13:18:32.655041Z,-2.378186,0.8513870000000001,-1.516392
2019-04-15T13:18:32.873041Z,-1.317949,2.328216,-0.17003
2019-04-15T13:18:33.060041Z,-0.600038,1.312706,1.35824
2019-04-15T13:18:33.480041Z,-0.6485449999999999,1.070928,1.303639
2019-04-15T13:18:33.647041Z,0.0,0.0,0.0
2019-04-15T13:18:33.849041Z,0.09236,-0.6690189999999999,0.556308
2019-04-15T13:18:34.051041Z,0.49965299999999996,-1.155094,-0.556948
2019-04-15T13:18:34.253041Z,-1.087741,-0.107951,-0.11214600000000001
2019-04-15T13:18:34.454041Z,-0.47062,0.142774,1.165463
2019-04-15T13:18:34.657041Z,0.41443199999999997,-1.9855759999999998,0.066371
2019-04-15T13:18:34.858041Z,1.0520180000000001,-0.9161090000000001,0.169817
2019-04-15T13:18:35.060041Z,-0.2045,-1.438072,-0.002515
2019-04-15T13:18:35.263041Z,0.612218,-1.506368,1.010779
2019-04-15T13:18:35.464041Z,0.316267,-1.035636,-0.017431
2019-04-15T13:18:35.667041Z,-1.1630989999999999,-0.693768,-0.299632
2019-04-15T13:18:35.868041Z,-1.39793,-1.064738,0.06415
2019-04-15T13:18:36.071041Z,0.361191,-1.056426,0.909942
2019-04-15T13:18:36.272041Z,0.13525399999999999,-1.605111,-0.364116
2019-04-15T13:18:36.474041Z,0.41734499999999997,0.119452,0.042910000000000004
2019-04-15T13:18:36.944041Z,2.217876,-1.353648,0.44126899999999997
2019-04-15T13:18:37.171041Z,0.276412,-0.581381,-2.508603
2019-04-15T13:18:37.348041Z,1.145494,1.105725,-0.025368
2019-04-15T13:18:37.551041Z,-0.303977,0.109537,2.180395
2019-04-15T13:18:37.753041Z,0.239091,-0.352139,-0.6096699999999999
2019-04-15T13:18:37.957041Z,0.026614999999999996,0.576631,-0.21682800000000002
2019-04-15T13:18:38.157041Z,-0.094773,1.2714299999999998,-0.500196
2019-04-15T13:18:38.359041Z,0.507977,0.33210100000000004,-0.357892
2019-04-15T13:18:38.562041Z,3.048177,-1.941643,1.548442
2019-04-15T13:18:38.763041Z,2.619375,-1.994962,1.881861
2019-04-15T13:18:38.965041Z,2.337754,-0.574427,0.333899
2019-04-15T13:18:39.177041Z,0.58011,-0.753588,1.226939
2019-04-15T13:18:39.369041Z,-1.836175,-1.110542,0.9726459999999999
2019-04-15T13:18:39.571041Z,-0.9690200000000001,-1.598681,-0.423569
2019-04-15T13:18:39.774041Z,-0.3245,-1.097162,0.042347
2019-04-15T13:18:39.976041Z,0.884021,0.01495,1.502643
2019-04-15T13:18:40.178041Z,2.135685,-1.507383,-0.313931
2019-04-15T13:18:40.381041Z,2.701511,0.360594,-1.652543
2019-04-15T13:18:40.581041Z,1.5090370000000002,1.652379,1.096286
2019-04-15T13:18:40.783041Z,1.118467,-0.6210399999999999,0.56207
2019-04-15T13:18:40.985041Z,1.849044,-1.271725,0.16103599999999998
2019-04-15T13:18:41.187041Z,1.60018,-1.063621,0.853351
2019-04-15T13:18:41.389041Z,0.816395,-1.486133,1.505702
2019-04-15T13:18:41.592041Z,1.6741419999999998,-1.46999,0.525727
2019-04-15T13:18:41.794041Z,0.097357,-1.8982400000000001,0.701597
2019-04-15T13:18:41.996041Z,-1.020645,-3.4272440000000004,0.438783
2019-04-15T13:18:42.198041Z,-0.12011400000000001,-1.8245189999999998,1.557208
2019-04-15T13:18:42.400041Z,-0.9087719999999999,-0.34557899999999997,-0.505572
2019-04-15T13:18:42.603041Z,0.582037,1.4387370000000002,-0.068057
2019-04-15T13:18:42.805041Z,0.188208,-1.623432,1.185577
2019-04-15T13:18:43.006041Z,2.059901,-0.31522100000000003,-0.173402
2019-04-15T13:18:43.208041Z,-0.846691,0.351192,-0.080722
2019-04-15T13:18:43.410041Z,-0.075962,0.374882,-0.288048
2019-04-15T13:18:43.612041Z,0.452194,-0.842726,0.818103
2019-04-15T13:18:43.814041Z,0.515035,-0.051938,-0.266156
2019-04-15T13:18:44.033041Z,-0.462229,1.077866,-0.217452
2019-04-15T13:18:44.218041Z,-0.771261,0.21252,1.4788780000000001
2019-04-15T13:18:44.420041Z,-0.9534,0.184936,-0.817527
2019-04-15T13:18:44.622041Z,-0.160935,3.113407,-1.211398
2019-04-15T13:18:44.824041Z,-0.28668699999999997,2.352098,0.134326
2019-04-15T13:18:45.026041Z,1.289539,0.43842,1.7821470000000001
2019-04-15T13:18:45.229041Z,1.062094,1.771369,-0.580994
2019-04-15T13:18:45.431041Z,1.157481,2.503663,0.248678
2019-04-15T13:18:45.633041Z,0.936291,0.8404010000000001,0.295528
2019-04-15T13:18:45.835041Z,1.687297,0.933742,-0.28725
2019-04-15T13:18:46.057041Z,2.2322830000000002,1.952952,1.767764
2019-04-15T13:18:46.241041Z,2.338449,2.1575860000000002,0.718616
2019-04-15T13:18:46.441041Z,2.023059,-0.40586700000000003,1.532517
2019-04-15T13:18:46.643041Z,0.907592,1.300901,0.078939
2019-04-15T13:18:46.845041Z,1.218799,2.118109,2.049896
2019-04-15T13:18:47.047041Z,1.059028,0.549346,0.7729020000000001
2019-04-15T13:18:47.250041Z,2.4166090000000002,0.7767890000000001,-0.908082
2019-04-15T13:18:47.452041Z,2.67358,1.211776,1.222007
2019-04-15T13:18:47.654041Z,2.014251,1.3715030000000001,0.5747439999999999
2019-04-15T13:18:47.856041Z,0.949984,-0.276674,1.3457350000000001
2019-04-15T13:18:48.058041Z,0.866701,0.29203,0.351808
2019-04-15T13:18:48.260041Z,1.2402549999999999,0.955263,0.294985
2019-04-15T13:18:48.462041Z,1.218058,1.672506,0.20104
2019-04-15T13:18:48.663041Z,0.9069870000000001,1.2277870000000002,1.418034
2019-04-15T13:18:48.866041Z,1.103449,1.154672,-0.14865899999999999
2019-04-15T13:18:49.067041Z,1.239992,2.642815,-1.616632
2019-04-15T13:18:49.269041Z,0.466163,2.236894,0.421654
2019-04-15T13:18:49.471041Z,0.850275,0.409682,-0.519235
2019-04-15T13:18:49.673041Z,1.580811,0.064163,-0.160461
2019-04-15T13:18:49.875041Z,1.682822,0.309614,1.031466
2019-04-15T13:18:50.090041Z,1.7109900000000002,0.429358,1.860943
2019-04-15T13:18:50.280041Z,0.805874,-0.19861700000000002,0.6928850000000001
2019-04-15T13:18:50.482041Z,0.273196,-1.531161,1.459255
2019-04-15T13:18:50.685041Z,-0.022909,-1.1361,1.1983489999999999
2019-04-15T13:18:50.886041Z,-0.7625109999999999,0.247813,-0.8167989999999999
2019-04-15T13:18:51.088041Z,-0.09751699999999999,0.18621600000000002,-0.9445520000000001
2019-04-15T13:18:51.291041Z,1.095534,-1.6989150000000002,-0.101357
2019-04-15T13:18:51.492041Z,2.094302,-0.9860540000000001,-0.19605
2019-04-15T13:18:51.694041Z,1.105414,-0.184531,0.5702550000000001
2019-04-15T13:18:51.895041Z,0.673658,-0.43145900000000004,0.175341
2019-04-15T13:18:52.100041Z,1.067151,-1.7473470000000002,1.7629029999999999
2019-04-15T13:18:52.300041Z,-0.238594,-1.1614,-0.532523
2019-04-15T13:18:52.504041Z,-0.344622,0.018251,0.36892199999999997
2019-04-15T13:18:52.704041Z,1.185932,-1.079551,0.8544780000000001
2019-04-15T13:18:52.907041Z,0.992083,-1.617305,-0.028967000000000003
2019-04-15T13:18:53.108041Z,0.596828,-0.925514,0.376871
2019-04-15T13:18:53.310041Z,-0.000927,-0.764712,0.10928099999999999
2019-04-15T13:18:53.513041Z,-0.764821,-2.621269,0.41186999999999996
2019-04-15T13:18:53.715041Z,-1.005206,0.469758,-0.42676400000000003
2019-04-15T13:18:53.916041Z,-0.7891050000000001,0.443852,0.610811
2019-04-15T13:18:54.118041Z,0.609534,-1.698925,0.036788
2019-04-15T13:18:54.320041Z,0.15077100000000002,-1.088316,-0.947997
2019-04-15T13:18:54.522041Z,0.020405,0.9074969999999999,0.670244
2019-04-15T13:18:54.724041Z,-0.8700200000000001,-1.075072,0.7093430000000001
2019-04-15T13:18:54.926041Z,-0.194057,0.457038,-0.345065
2019-04-15T13:18:55.128041Z,0.342043,-0.15905999999999998,0.178607
2019-04-15T13:18:55.330041Z,1.944622,0.46013100000000007,0.198268
2019-04-15T13:18:55.534041Z,0.882609,-0.124874,1.7418169999999997
2019-04-15T13:18:55.749041Z,2.303563,-2.186768,1.700537
2019-04-15T13:18:55.950041Z,0.9368290000000001,-2.498703,0.266187
2019-04-15T13:18:56.139041Z,0.902866,-1.3601020000000001,1.103141
2019-04-15T13:18:56.341041Z,0.40076799999999996,-0.71906,0.9649049999999999
2019-04-15T13:18:56.543041Z,-1.6960279999999999,-2.9337869999999997,1.712604
2019-04-15T13:18:56.756041Z,-1.822244,-1.481903,1.18642
2019-04-15T13:18:56.947041Z,-2.543244,-0.638721,0.6863739999999999
2019-04-15T13:18:57.148041Z,-1.303893,-0.11919300000000001,2.428807
2019-04-15T13:18:57.351041Z,-1.813965,-1.366633,-1.342507
2019-04-15T13:18:57.553041Z,0.42502799999999996,0.244114,-1.417916
2019-04-15T13:18:57.755041Z,-0.304496,1.007944,1.2275209999999999
2019-04-15T13:18:57.957041Z,-0.75755,-0.775976,-0.9864219999999999
2019-04-15T13:18:58.158041Z,-0.781734,-1.9838959999999999,-0.374802
2019-04-15T13:18:58.360041Z,-1.561701,-0.969792,0.24440900000000002
2019-04-15T13:18:58.563041Z,-1.155343,-0.095471,0.747159
2019-04-15T13:18:58.779041Z,0.02361,-1.257694,0.725621
2019-04-15T13:18:58.966041Z,2.084595,-1.256416,0.43311400000000005
2019-04-15T13:18:59.169041Z,1.074042,-0.272918,-0.053923
2019-04-15T13:18:59.370041Z,0.256169,0.6744859999999999,0.8383290000000001
2019-04-15T13:18:59.572041Z,0.05996900000000001,-1.8908639999999999,2.302818
2019-04-15T13:18:59.774041Z,0.09705599999999999,-0.650111,0.519705
2019-04-15T13:18:59.977041Z,-0.022171,-1.18446,0.602653
2019-04-15T13:19:00.179041Z,0.534723,-0.200988,0.001538
2019-04-15T13:19:00.381041Z,0.770437,0.21509,0.022706
2019-04-15T13:19:00.583041Z,2.700088,-0.437169,-0.020092
2019-04-15T13:19:00.785041Z,1.728566,-1.611334,0.287495
2019-04-15T13:19:00.988041Z,1.174289,0.032822000000000004,1.633298
2019-04-15T13:19:01.190041Z,0.554729,-1.5903120000000002,-0.255302
2019-04-15T13:19:01.392041Z,1.646713,-2.215863,0.761257
2019-04-15T13:19:01.592041Z,1.4635280000000002,-1.8576840000000001,2.178932
2019-04-15T13:19:01.797041Z,1.280161,-1.686478,2.6198240000000004
2019-04-15T13:19:01.996041Z,0.839778,-0.04675,0.051977999999999996
2019-04-15T13:19:02.209041Z,0.780723,2.199241,-0.554244
2019-04-15T13:19:02.400041Z,0.521601,0.593795,1.7282259999999998
2019-04-15T13:19:02.602041Z,-1.0557,0.587304,-1.2076879999999999
2019-04-15T13:19:02.804041Z,-1.37301,1.629199,-0.728804
2019-04-15T13:19:03.006041Z,-1.678025,2.649832,0.41251899999999997
2019-04-15T13:19:03.208041Z,-0.381265,1.302233,0.052062
2019-04-15T13:19:03.428041Z,-0.514037,0.715651,-1.0604559999999998
2019-04-15T13:19:03.613041Z,-2.095334,2.454143,-0.129398
2019-04-15T13:19:03.830041Z,-2.238229,1.58035,0.584674
2019-04-15T13:19:04.016041Z,-2.034235,2.277002,0.754322
2019-04-15T13:19:04.218041Z,-2.362966,3.1401790000000003,-0.248279
2019-04-15T13:19:04.420041Z,-1.51331,4.231766,-0.23727399999999998
2019-04-15T13:19:04.622041Z,-1.798412,3.618637,0.090752
2019-04-15T13:19:04.824041Z,-0.391443,1.710853,1.169923
2019-04-15T13:19:05.026041Z,-1.653309,1.277743,-1.2271040000000002
2019-04-15T13:19:05.228041Z,-1.673043,2.435389,-0.44660900000000003
2019-04-15T13:19:05.430041Z,-4.521426,2.146123,2.7051220000000002
2019-04-15T13:19:05.631041Z,-3.60373,1.5997219999999999,-0.57339
2019-04-15T13:19:05.834041Z,-4.517991,2.775651,-0.187806
2019-04-15T13:19:06.035041Z,-3.46167,3.234612,1.460655
2019-04-15T13:19:06.237041Z,-2.51947,1.9711509999999999,0.332504
2019-04-15T13:19:06.439041Z,-2.494596,2.54034,-0.9829030000000001
2019-04-15T13:19:06.656041Z,-2.31426,3.876014,-0.205386
2019-04-15T13:19:06.843041Z,-3.115889,2.32004,1.636277
2019-04-15T13:19:07.045041Z,-3.19555,2.004675,-1.2207780000000001
2019-04-15T13:19:07.247041Z,-3.088402,2.194423,-0.576819
2019-04-15T13:19:07.449041Z,-2.840775,3.359686,0.090305
2019-04-15T13:19:07.651041Z,-2.280529,3.207478,2.657708
2019-04-15T13:19:07.853041Z,-2.094607,2.2003209999999997,-0.555083
2019-04-15T13:19:08.055041Z,-3.110443,3.3405120000000004,0.515409
2019-04-15T13:19:08.257041Z,-3.457673,4.092381,0.16806500000000002
2019-04-15T13:19:08.459041Z,-3.174644,1.900041,0.004273
2019-04-15T13:19:08.660041Z,-2.210832,2.286291,0.384229
