Datetime,accx,accy,accz
2019-03-20T18:57:44.913019Z,0.0,0.0,0.0
2019-03-20T18:57:45.114019Z,-0.09111699999999999,0.094238,-0.32572
2019-03-20T18:57:45.316019Z,-0.381236,0.154276,-0.338986
2019-03-20T18:57:45.516019Z,0.152204,0.07511699999999999,0.313272
2019-03-20T18:57:45.748019Z,0.300166,0.075624,-0.22758899999999999
2019-03-20T18:57:45.950019Z,0.665904,0.579309,-0.756324
2019-03-20T18:57:46.151019Z,0.207369,0.597785,0.194457
2019-03-20T18:57:46.352019Z,-0.275043,0.2576,0.6915020000000001
2019-03-20T18:57:46.554019Z,-0.688863,-0.9215760000000001,-0.847765
2019-03-20T18:57:46.754019Z,-0.270478,-0.072381,-0.561454
2019-03-20T18:57:46.955019Z,-0.6079479999999999,0.684722,-1.275195
2019-03-20T18:57:47.157019Z,-0.592846,0.734682,0.063249
2019-03-20T18:57:47.358019Z,-0.039088,0.234639,-0.29086799999999996
2019-03-20T18:57:47.559019Z,0.19756700000000002,-0.321316,-0.265514
2019-03-20T18:57:47.772019Z,-0.018585,0.029138999999999998,-0.19722
2019-03-20T18:57:47.961019Z,-0.317583,0.508698,0.523226
2019-03-20T18:57:48.162019Z,-1.934225,0.696283,0.686926
2019-03-20T18:57:48.364019Z,-2.389052,-0.57034,0.84919
2019-03-20T18:57:48.565019Z,-2.310691,-0.608913,0.502088
2019-03-20T18:57:48.777019Z,-2.180789,-0.375363,1.672362
2019-03-20T18:57:48.968019Z,-2.367923,1.1426129999999999,-0.540165
2019-03-20T18:57:49.169019Z,-0.816217,0.6937770000000001,0.40093
2019-03-20T18:57:49.370019Z,-1.637241,0.007976,0.187023
2019-03-20T18:57:49.572019Z,-1.953236,0.491521,0.415774
2019-03-20T18:57:49.772019Z,-0.8906719999999999,0.86124,-0.051129
2019-03-20T18:57:49.973019Z,-0.763703,0.9351139999999999,0.342858
2019-03-20T18:57:50.175019Z,-0.31896599999999997,1.828034,-0.328629
2019-03-20T18:57:50.376019Z,-1.013267,1.6751639999999999,-0.192297
2019-03-20T18:57:50.578019Z,-1.398003,1.045151,-0.091625
2019-03-20T18:57:50.779019Z,-1.402116,1.427043,0.18296400000000002
2019-03-20T18:57:50.980019Z,-1.206803,1.7213150000000002,-0.053738
2019-03-20T18:57:51.181019Z,-1.021368,1.116067,0.198298
2019-03-20T18:57:51.381019Z,-0.843585,0.158019,-0.029548
2019-03-20T18:57:51.583019Z,0.100279,-0.559756,-0.115167
2019-03-20T18:57:51.783019Z,0.06466799999999999,0.06288200000000001,-0.732073
2019-03-20T18:57:51.984019Z,0.15698199999999998,0.40455100000000005,0.086635
2019-03-20T18:57:52.185019Z,-0.023351,0.111479,0.772928
2019-03-20T18:57:52.387019Z,-0.589395,-0.8674229999999999,1.53795
2019-03-20T18:57:52.589019Z,-0.9532940000000001,-0.54208,1.397217
2019-03-20T18:57:52.789019Z,-0.8456290000000001,-0.148973,0.17369600000000002
2019-03-20T18:57:52.990019Z,-0.449545,0.31404899999999997,-0.497386
2019-03-20T18:57:53.192019Z,-0.776995,0.191856,-0.416901
2019-03-20T18:57:53.392019Z,-0.696098,-0.583705,0.477332
2019-03-20T18:57:53.594019Z,-0.090192,-0.088261,-0.7132430000000001
2019-03-20T18:57:53.795019Z,-0.103046,0.41530600000000006,-0.312307
2019-03-20T18:57:53.996019Z,-0.57689,0.356959,0.8107340000000001
2019-03-20T18:57:54.197019Z,0.291844,0.100495,1.009216
2019-03-20T18:57:54.398019Z,-0.873948,-0.30401500000000004,-0.690493
2019-03-20T18:57:54.599019Z,-0.9910559999999999,-0.07852100000000001,-0.020978999999999998
2019-03-20T18:57:54.800019Z,-1.30274,0.080685,0.811141
2019-03-20T18:57:55.002019Z,-0.162838,0.41806400000000005,-0.138318
2019-03-20T18:57:55.202019Z,0.091443,-0.08897200000000001,-1.925257
2019-03-20T18:57:55.404019Z,-0.058337,-0.7547649999999999,0.047193
2019-03-20T18:57:55.606019Z,0.01637,-0.620045,0.25169600000000003
2019-03-20T18:57:55.806019Z,-0.612349,-0.375632,0.482537
2019-03-20T18:57:56.007019Z,0.084739,-0.468758,0.833132
2019-03-20T18:57:56.209019Z,0.658225,-1.220094,0.414893
2019-03-20T18:57:56.409019Z,0.535916,-0.42042799999999997,-0.026539999999999998
2019-03-20T18:57:56.611019Z,-0.6133310000000001,-0.20036600000000002,0.8929469999999999
2019-03-20T18:57:56.812019Z,1.332143,0.22620300000000002,0.12688
2019-03-20T18:57:57.013019Z,-0.11059200000000001,0.65532,0.004839
2019-03-20T18:57:57.214019Z,1.2327549999999998,1.15462,-0.354026
2019-03-20T18:57:57.416019Z,1.541256,0.963037,-0.10756099999999999
2019-03-20T18:57:57.617019Z,0.7873020000000001,1.781554,-0.280493
2019-03-20T18:57:57.817019Z,0.581817,1.0540889999999998,-0.366437
2019-03-20T18:57:58.019019Z,1.0123739999999999,0.379898,0.597371
2019-03-20T18:57:58.220019Z,1.080817,0.121224,0.596213
2019-03-20T18:57:58.421019Z,1.131519,0.7771170000000001,0.031462000000000004
2019-03-20T18:57:58.623019Z,0.7026020000000001,1.245968,-0.306342
2019-03-20T18:57:58.823019Z,-0.079574,0.973842,-0.530644
2019-03-20T18:57:59.024019Z,-0.06435199999999999,0.8113090000000001,-0.155024
2019-03-20T18:57:59.226019Z,0.198877,1.529199,-0.492258
2019-03-20T18:57:59.426019Z,-0.034053,1.0994389999999998,-0.169037
2019-03-20T18:57:59.628019Z,-0.862432,0.653517,-0.3727
2019-03-20T18:57:59.829019Z,0.302679,0.980772,1.1537899999999999
2019-03-20T18:58:00.031019Z,-0.643714,-0.15171600000000002,-0.43088000000000004
2019-03-20T18:58:00.231019Z,-0.303689,0.67783,-0.113051
2019-03-20T18:58:00.433019Z,-0.535848,0.9058379999999999,-0.749873
2019-03-20T18:58:00.633019Z,-0.18398599999999998,1.8719740000000002,0.120323
2019-03-20T18:58:00.834019Z,0.053777,0.669664,0.960757
2019-03-20T18:58:01.036019Z,0.491068,0.451396,-0.767073
2019-03-20T18:58:01.236019Z,-0.37456799999999996,0.316196,-3.0497419999999997
2019-03-20T18:58:01.438019Z,0.113383,-0.072644,-0.232152
2019-03-20T18:58:01.651019Z,0.8066479999999999,0.14260499999999998,-0.342866
2019-03-20T18:58:01.840019Z,1.000111,0.058958,-0.5211560000000001
2019-03-20T18:58:02.041019Z,0.461005,0.432007,-0.21056399999999997
2019-03-20T18:58:02.243019Z,0.132895,0.395188,-0.103248
2019-03-20T18:58:02.444019Z,0.965992,0.5760689999999999,0.24070100000000003
2019-03-20T18:58:02.645019Z,0.619536,0.581214,0.177793
2019-03-20T18:58:02.846019Z,-0.539062,0.137453,0.046194
2019-03-20T18:58:03.047019Z,-0.085986,0.163776,0.313199
2019-03-20T18:58:03.248019Z,0.162517,0.966683,-0.788326
2019-03-20T18:58:03.450019Z,-0.028364999999999998,1.219282,-0.46865
2019-03-20T18:58:03.651019Z,0.28310799999999997,0.72615,0.00355
2019-03-20T18:58:03.852019Z,0.34621799999999997,-0.076879,0.181949
2019-03-20T18:58:04.053019Z,0.6067239999999999,0.5219199999999999,-0.5936020000000001
2019-03-20T18:58:04.254019Z,0.481246,0.895832,0.331863
2019-03-20T18:58:04.455019Z,0.375002,-0.07700499999999999,-0.06575399999999999
2019-03-20T18:58:04.660019Z,-0.58032,0.356771,-2.813365
2019-03-20T18:58:04.858019Z,-1.0838709999999998,0.5818989999999999,-1.698821
2019-03-20T18:58:05.059019Z,-0.95737,0.559196,-0.039727
2019-03-20T18:58:05.260019Z,-0.9772850000000001,0.46275,0.24318499999999998
2019-03-20T18:58:05.462019Z,-0.9105629999999999,0.820874,0.29287399999999997
2019-03-20T18:58:05.662019Z,-0.136433,0.85144,0.8581200000000001
2019-03-20T18:58:05.864019Z,0.036688,0.206965,0.588496
2019-03-20T18:58:06.065019Z,0.8612860000000001,-0.378427,-0.504659
2019-03-20T18:58:06.266019Z,1.837619,-0.168051,-0.06701900000000001
2019-03-20T18:58:06.468019Z,1.255242,0.379742,-0.390424
2019-03-20T18:58:06.668019Z,1.201702,0.11618900000000001,0.601264
2019-03-20T18:58:06.870019Z,1.200605,-0.086689,1.548646
2019-03-20T18:58:07.071019Z,0.7610140000000001,-0.24684,-1.022704
2019-03-20T18:58:07.271019Z,0.671589,-0.139292,1.2964879999999999
2019-03-20T18:58:07.473019Z,0.360321,-0.42440900000000004,-1.112866
2019-03-20T18:58:07.674019Z,0.157892,-0.00442,0.9712729999999999
2019-03-20T18:58:07.875019Z,-0.561018,-0.8810629999999999,1.613812
2019-03-20T18:58:08.076019Z,0.12290999999999999,-1.199284,0.9977
2019-03-20T18:58:08.278019Z,0.399115,-0.68594,1.8013
2019-03-20T18:58:08.479019Z,0.316744,-0.41082799999999997,0.218455
2019-03-20T18:58:08.680019Z,0.738999,-0.706617,-0.5983609999999999
2019-03-20T18:58:08.881019Z,1.701756,-1.040335,0.399223
2019-03-20T18:58:09.082019Z,0.25203000000000003,0.173727,0.237227
2019-03-20T18:58:09.283019Z,-0.154071,-0.112148,1.9726080000000001
2019-03-20T18:58:09.485019Z,-0.708016,-0.807715,0.9621709999999999
2019-03-20T18:58:09.685019Z,-0.742641,-0.817321,0.483469
2019-03-20T18:58:09.886019Z,-0.241075,-0.933016,0.443065
2019-03-20T18:58:10.088019Z,-0.29377,-2.2446099999999998,-0.12896300000000002
2019-03-20T18:58:10.289019Z,-0.012972,-1.55235,0.220914
2019-03-20T18:58:10.490019Z,-0.007705,-0.917651,0.218824
2019-03-20T18:58:10.691019Z,0.20564000000000002,-1.157858,1.341944
2019-03-20T18:58:10.892019Z,0.499313,-3.173564,-0.155418
2019-03-20T18:58:11.093019Z,0.14034000000000002,-2.825735,1.257955
2019-03-20T18:58:11.295019Z,0.295138,-1.714605,0.945992
2019-03-20T18:58:11.496019Z,0.167292,-1.08877,0.847366
2019-03-20T18:58:11.697019Z,0.830498,-1.065788,0.562319
2019-03-20T18:58:11.898019Z,0.518833,-2.159625,0.518821
2019-03-20T18:58:12.100019Z,1.223066,-1.588431,0.772091
2019-03-20T18:58:12.300019Z,1.22126,-0.9688319999999999,0.044323
2019-03-20T18:58:12.502019Z,1.1465299999999998,-0.310956,0.7943140000000001
2019-03-20T18:58:12.702019Z,0.8026399999999999,-1.217869,0.782013
2019-03-20T18:58:12.903019Z,-0.161589,-1.304592,0.965641
2019-03-20T18:58:13.105019Z,0.740572,-0.138459,1.2322469999999999
2019-03-20T18:58:13.306019Z,0.497802,0.289731,-0.53296
2019-03-20T18:58:13.507019Z,0.069176,0.515544,0.093309
2019-03-20T18:58:13.708019Z,0.089929,-0.343468,0.368191
2019-03-20T18:58:13.909019Z,1.0821610000000002,-0.519483,0.508163
2019-03-20T18:58:14.110019Z,0.242851,-0.189323,0.146041
2019-03-20T18:58:14.312019Z,0.106529,0.29794699999999996,0.176096
2019-03-20T18:58:14.513019Z,-0.14861300000000002,-0.23299499999999998,0.732591
2019-03-20T18:58:14.714019Z,-0.869459,-1.256828,-1.443136
2019-03-20T18:58:14.915019Z,-0.7688659999999999,-0.579411,0.573553
2019-03-20T18:58:15.116019Z,-1.9162290000000002,1.812484,-0.0041789999999999996
2019-03-20T18:58:15.317019Z,-0.779408,2.4904830000000002,-0.415893
2019-03-20T18:58:15.519019Z,-0.619007,0.169962,0.8684219999999999
2019-03-20T18:58:15.719019Z,0.179953,0.6791149999999999,-0.32123
2019-03-20T18:58:15.921019Z,-0.358799,1.272976,-0.06030800000000001
2019-03-20T18:58:16.123019Z,-0.66223,1.55467,-0.479228
2019-03-20T18:58:16.323019Z,-0.128154,1.9396,-0.170296
2019-03-20T18:58:16.524019Z,-0.29948600000000003,0.003372,2.074622
2019-03-20T18:58:16.725019Z,-0.886498,-0.615394,-0.393658
2019-03-20T18:58:16.926019Z,-0.731904,0.084361,-0.637252
2019-03-20T18:58:17.127019Z,-0.9109139999999999,0.437179,0.227789
2019-03-20T18:58:17.329019Z,-0.8026760000000001,0.186056,-0.584212
2019-03-20T18:58:17.530019Z,-0.939816,0.560249,-0.14116700000000001
2019-03-20T18:58:17.730019Z,-1.458334,1.351602,-0.10679100000000001
2019-03-20T18:58:17.932019Z,-0.8528469999999999,1.368385,0.22048600000000002
2019-03-20T18:58:18.132019Z,-0.29996999999999996,-0.540262,0.46318100000000006
2019-03-20T18:58:18.334019Z,-0.0017230000000000001,-0.9336129999999999,0.793138
2019-03-20T18:58:18.535019Z,-0.18061300000000002,0.189081,-0.331488
2019-03-20T18:58:18.736019Z,-0.5331670000000001,0.332544,0.305336
2019-03-20T18:58:18.937019Z,-1.125184,-0.419368,1.127508
2019-03-20T18:58:19.138019Z,-1.236278,-0.860244,-0.9262450000000001
2019-03-20T18:58:19.339019Z,-1.086217,-0.06605,-0.370317
2019-03-20T18:58:19.540019Z,-1.4525139999999999,0.040342,0.648534
2019-03-20T18:58:19.742019Z,-1.463778,-0.420624,1.428297
2019-03-20T18:58:19.942019Z,-0.326806,-1.421813,-0.338723
2019-03-20T18:58:20.143019Z,-0.391625,-0.759991,0.11287799999999999
2019-03-20T18:58:20.345019Z,-0.240222,-0.11356,0.078934
2019-03-20T18:58:20.546019Z,-0.293298,-0.247342,0.582808
2019-03-20T18:58:20.747019Z,-0.49718500000000004,-1.436424,-0.349744
2019-03-20T18:58:20.948019Z,-0.740272,-1.186274,0.462442
2019-03-20T18:58:21.149019Z,-0.292093,-0.6680010000000001,0.674348
2019-03-20T18:58:21.350019Z,0.22862600000000002,-0.690593,0.9512959999999999
2019-03-20T18:58:21.552019Z,0.387811,-2.115843,0.162525
2019-03-20T18:58:21.752019Z,0.688404,-0.998031,1.755484
2019-03-20T18:58:21.953019Z,0.513174,-0.569034,0.531145
2019-03-20T18:58:22.155019Z,0.5556909999999999,-0.27221999999999996,0.195528
2019-03-20T18:58:22.356019Z,-0.650565,-1.054843,0.7674770000000001
2019-03-20T18:58:22.557019Z,-0.02192,0.01215,1.1009790000000002
2019-03-20T18:58:22.758019Z,-0.5241210000000001,-0.276973,-0.261856
2019-03-20T18:58:22.959019Z,-1.0579180000000001,-0.060967999999999994,-0.367745
2019-03-20T18:58:23.160019Z,-1.165076,0.12687,-0.515595
2019-03-20T18:58:23.362019Z,-1.011888,0.10057999999999999,-0.143727
2019-03-20T18:58:23.562019Z,-0.5599029999999999,-0.9877379999999999,0.8822040000000001
2019-03-20T18:58:23.763019Z,-0.164102,-1.591116,0.350827
2019-03-20T18:58:23.965019Z,0.315285,-0.495026,-0.338336
2019-03-20T18:58:24.165019Z,0.056041999999999995,0.188089,0.255967
2019-03-20T18:58:24.367019Z,-0.24302100000000001,0.446538,0.411441
2019-03-20T18:58:24.568019Z,0.18575899999999998,-0.143728,1.662926
2019-03-20T18:58:24.770019Z,-0.769291,-2.860137,-0.370157
2019-03-20T18:58:24.971019Z,0.32152600000000003,-1.696564,0.860717
2019-03-20T18:58:25.172019Z,-0.674912,-0.706864,-2.533888
2019-03-20T18:58:25.374019Z,1.176001,-0.266453,-0.0022440000000000003
2019-03-20T18:58:25.574019Z,0.554539,-0.342721,-0.440359
2019-03-20T18:58:25.776019Z,0.632907,-0.08393400000000001,0.422496
2019-03-20T18:58:25.976019Z,1.135742,0.42343100000000006,-0.404094
2019-03-20T18:58:26.177019Z,1.170556,0.745054,-0.47003599999999995
2019-03-20T18:58:26.380019Z,1.018584,1.284331,0.705667
2019-03-20T18:58:26.579019Z,0.9193530000000001,0.380941,0.11116300000000001
2019-03-20T18:58:26.780019Z,0.824894,0.415154,0.025901999999999998
2019-03-20T18:58:26.982019Z,0.456167,0.920284,-0.554632
2019-03-20T18:58:27.184019Z,0.603069,1.513108,-0.24198499999999998
2019-03-20T18:58:27.384019Z,0.490386,0.500764,0.138647
2019-03-20T18:58:27.586019Z,1.759154,0.374237,-0.241648
2019-03-20T18:58:27.786019Z,0.38166700000000003,0.40512,0.286396
2019-03-20T18:58:27.987019Z,1.336717,1.406034,0.147783
2019-03-20T18:58:28.189019Z,0.670257,0.9164979999999999,0.47089200000000003
2019-03-20T18:58:28.389019Z,0.34016599999999997,-0.156108,-1.631122
2019-03-20T18:58:28.590019Z,0.5757720000000001,0.188643,0.092305
2019-03-20T18:58:28.792019Z,0.397803,0.736157,-0.050491
2019-03-20T18:58:28.992019Z,0.841274,1.329369,0.187841
2019-03-20T18:58:29.194019Z,-0.215369,1.105385,-0.199537
2019-03-20T18:58:29.395019Z,0.43928900000000004,1.438334,-0.23191199999999998
2019-03-20T18:58:29.596019Z,-0.174446,1.748718,0.004074
2019-03-20T18:58:29.797019Z,-0.21429099999999998,2.686856,-0.07993600000000001
2019-03-20T18:58:29.998019Z,-0.206734,1.5255290000000001,0.08753999999999999
2019-03-20T18:58:30.199019Z,-0.630012,0.937552,-0.077408
2019-03-20T18:58:30.423019Z,-1.645843,0.9556399999999999,-5.316311
2019-03-20T18:58:30.602019Z,-1.7966099999999998,1.6495389999999999,-1.198875
2019-03-20T18:58:30.802019Z,-0.912631,1.812843,-0.15732000000000002
2019-03-20T18:58:31.003019Z,-0.888969,1.911232,-0.392569
2019-03-20T18:58:31.205019Z,-0.167259,1.222291,0.329993
2019-03-20T18:58:31.406019Z,-0.21303899999999998,1.1901059999999999,0.317141
2019-03-20T18:58:31.607019Z,0.17571099999999998,1.296051,0.075222
2019-03-20T18:58:31.808019Z,0.24031,1.586873,-0.21191300000000002
2019-03-20T18:58:32.009019Z,0.32808699999999996,1.201028,-0.16244
2019-03-20T18:58:32.210019Z,1.201755,0.7784,1.355881
2019-03-20T18:58:32.412019Z,1.265403,-0.126754,0.976283
2019-03-20T18:58:32.612019Z,0.610839,0.7809229999999999,-0.464496
2019-03-20T18:58:32.813019Z,-0.14908,0.695512,1.171578
2019-03-20T18:58:33.015019Z,1.0302149999999999,1.096151,0.6532680000000001
2019-03-20T18:58:33.215019Z,0.9775379999999999,1.047976,0.8378530000000001
2019-03-20T18:58:33.417019Z,0.962838,1.418898,1.8360029999999998
2019-03-20T18:58:33.618019Z,0.592547,0.9458559999999999,-0.25905
2019-03-20T18:58:33.819019Z,0.052881,0.842756,0.210087
2019-03-20T18:58:34.020019Z,0.28080700000000003,1.038829,-0.168238
2019-03-20T18:58:34.221019Z,0.038958,0.808653,-0.151508
2019-03-20T18:58:34.422019Z,-0.054285,0.507826,-0.071805
2019-03-20T18:58:34.623019Z,-0.203751,0.182588,-0.197694
2019-03-20T18:58:34.825019Z,-0.68248,-0.292302,0.197762
2019-03-20T18:58:35.025019Z,-0.753829,0.051490999999999995,0.124271
2019-03-20T18:58:35.226019Z,-0.850902,0.9686299999999999,-0.32853499999999997
2019-03-20T18:58:35.428019Z,-1.3331680000000001,1.450547,-0.44123100000000004
2019-03-20T18:58:35.629019Z,-1.004725,2.4728369999999997,-0.46240200000000004
2019-03-20T18:58:35.830019Z,-0.608126,1.24757,-0.561631
2019-03-20T18:58:36.031019Z,-1.6833259999999999,1.6893740000000002,-0.08119900000000001
2019-03-20T18:58:36.232019Z,-0.6589229999999999,2.777981,0.09049199999999999
2019-03-20T18:58:36.433019Z,-1.181452,2.689911,-0.262656
2019-03-20T18:58:36.635019Z,-1.3636629999999998,3.1712830000000003,-0.372336
2019-03-20T18:58:36.835019Z,-0.313616,1.239516,1.759729
2019-03-20T18:58:37.036019Z,-1.384873,1.079066,0.39955799999999997
2019-03-20T18:58:37.237019Z,-0.912647,2.0909419999999996,0.12261300000000001
2019-03-20T18:58:37.438019Z,-0.147922,1.8258580000000002,-0.059043
2019-03-20T18:58:37.640019Z,0.069522,1.958759,-0.199716
2019-03-20T18:58:37.841019Z,-0.7449979999999999,1.702507,-0.08958200000000001
2019-03-20T18:58:38.041019Z,-0.504992,1.525226,0.14787
2019-03-20T18:58:38.243019Z,0.31956999999999997,1.8174669999999997,0.202324
2019-03-20T18:58:38.444019Z,0.733394,1.9756610000000001,-0.295637
2019-03-20T18:58:38.645019Z,1.767437,2.305402,0.44932700000000003
2019-03-20T18:58:38.846019Z,2.352845,2.561886,-0.408565
2019-03-20T18:58:39.047019Z,1.0294510000000001,2.675045,0.25806399999999996
2019-03-20T18:58:39.248019Z,0.957809,3.199529,-0.320126
2019-03-20T18:58:39.449019Z,1.5619,1.0310270000000001,0.230372
2019-03-20T18:58:39.651019Z,1.579221,1.8181630000000002,-0.361282
2019-03-20T18:58:39.851019Z,1.349866,2.195888,0.567717
2019-03-20T18:58:40.052019Z,1.065691,0.835397,-1.598947
2019-03-20T18:58:40.254019Z,0.970827,0.953845,0.8554350000000001
2019-03-20T18:58:40.454019Z,0.629105,0.963516,-0.727909
2019-03-20T18:58:40.656019Z,0.056762,0.49958400000000003,0.563995
2019-03-20T18:58:40.857019Z,0.928984,1.252692,0.612989
2019-03-20T18:58:41.058019Z,1.362655,1.519121,-0.441262
2019-03-20T18:58:41.259019Z,1.083045,1.043086,0.747684
2019-03-20T18:58:41.460019Z,1.33497,1.02633,0.641296
2019-03-20T18:58:41.661019Z,1.648868,0.849251,0.8089069999999999
2019-03-20T18:58:41.862019Z,1.197416,0.09323,-1.438467
2019-03-20T18:58:42.064019Z,0.068961,-0.062637,-0.012743
2019-03-20T18:58:42.264019Z,-0.708254,-0.197849,0.296146
2019-03-20T18:58:42.466019Z,-0.051436,0.236089,-0.529408
2019-03-20T18:58:42.668019Z,1.6447599999999998,0.333642,0.645004
2019-03-20T18:58:42.883019Z,2.097555,-0.030944,0.598154
2019-03-20T18:58:43.069019Z,2.873823,0.204796,0.24248499999999998
2019-03-20T18:58:43.271019Z,2.272838,0.171966,1.227647
2019-03-20T18:58:43.471019Z,2.145063,0.212391,0.428472
2019-03-20T18:58:43.672019Z,2.365903,0.16458399999999998,0.817395
2019-03-20T18:58:43.874019Z,2.183726,0.046601,0.95157
2019-03-20T18:58:44.074019Z,0.918542,-0.48994499999999996,1.259317
2019-03-20T18:58:44.276019Z,0.13796,-1.061533,1.4436799999999999
2019-03-20T18:58:44.477019Z,0.377429,-1.568743,0.9449270000000001
2019-03-20T18:58:44.678019Z,0.45254700000000003,-2.3460650000000003,0.809729
2019-03-20T18:58:44.880019Z,0.798755,-3.319743,0.724367
2019-03-20T18:58:45.080019Z,1.154515,-2.2291119999999998,0.323716
2019-03-20T18:58:45.281019Z,-0.07760700000000001,-1.04545,1.910306
2019-03-20T18:58:45.482019Z,-0.346798,-1.293808,0.8966350000000001
2019-03-20T18:58:45.684019Z,-0.091262,-1.520615,2.236624
2019-03-20T18:58:45.884019Z,0.00856,-1.311979,0.43514899999999995
2019-03-20T18:58:46.085019Z,0.7533770000000001,-0.339839,-0.117244
2019-03-20T18:58:46.287019Z,0.538913,-0.8076909999999999,0.940291
2019-03-20T18:58:46.487019Z,1.625742,-0.847541,0.289116
2019-03-20T18:58:46.690019Z,1.503747,-0.766745,1.846343
2019-03-20T18:58:46.891019Z,1.2747959999999998,-0.71259,0.8790399999999999
2019-03-20T18:58:47.091019Z,1.326426,-0.517297,0.620499
2019-03-20T18:58:47.304019Z,2.144757,-0.225552,1.031987
2019-03-20T18:58:47.493019Z,1.1496600000000001,-0.895854,1.295326
2019-03-20T18:58:47.695019Z,0.9840709999999999,-0.40013200000000004,0.08349
2019-03-20T18:58:47.895019Z,0.244804,-0.573863,0.349043
2019-03-20T18:58:48.097019Z,-0.25803200000000004,-0.369861,0.039538
2019-03-20T18:58:48.298019Z,-0.19459400000000002,-0.621803,0.06116
2019-03-20T18:58:48.499019Z,-0.618316,-0.112567,-0.5155649999999999
2019-03-20T18:58:48.700019Z,0.08569,-0.155495,0.236275
2019-03-20T18:58:48.901019Z,1.281064,-0.9912110000000001,0.079217
2019-03-20T18:58:49.102019Z,1.4552049999999999,-1.232549,-0.732222
2019-03-20T18:58:49.305019Z,0.702357,0.16408,0.457405
2019-03-20T18:58:49.505019Z,0.525619,0.697627,0.44787299999999997
2019-03-20T18:58:49.706019Z,-0.039635000000000004,-0.6718970000000001,1.211751
2019-03-20T18:58:49.907019Z,0.00933,-1.222071,-0.003084
2019-03-20T18:58:50.108019Z,0.256146,-0.405111,-0.114906
2019-03-20T18:58:50.310019Z,-0.208693,0.137097,1.138142
2019-03-20T18:58:50.510019Z,0.726313,0.332545,0.674778
2019-03-20T18:58:50.711019Z,0.133848,-0.017755,0.049479
2019-03-20T18:58:50.912019Z,-0.172512,0.316922,0.553635
2019-03-20T18:58:51.114019Z,-0.222146,0.170382,-0.145799
2019-03-20T18:58:51.315019Z,-0.312515,0.566905,-0.282045
2019-03-20T18:58:51.516019Z,0.088778,0.7656970000000001,-0.066718
2019-03-20T18:58:51.717019Z,0.58539,0.363691,-0.954282
2019-03-20T18:58:51.918019Z,0.911149,0.905242,0.125308
2019-03-20T18:58:52.119019Z,-0.14118699999999998,1.101291,-0.236816
2019-03-20T18:58:52.321019Z,1.008017,1.311639,0.793564
2019-03-20T18:58:52.521019Z,0.887207,0.785393,-0.012434
2019-03-20T18:58:52.722019Z,-0.618364,-0.229669,-0.641142
2019-03-20T18:58:52.924019Z,-0.08469700000000001,0.517671,-0.539706
2019-03-20T18:58:53.125019Z,-0.022626,0.785378,-0.05767100000000001
2019-03-20T18:58:53.326019Z,-0.30436599999999997,-0.179695,-0.526624
2019-03-20T18:58:53.527019Z,0.258231,0.18393900000000002,-0.319536
2019-03-20T18:58:53.728019Z,0.121931,1.019687,-0.482175
2019-03-20T18:58:53.929019Z,-0.07676000000000001,1.286575,-0.14818499999999998
2019-03-20T18:58:54.131019Z,-0.732617,-0.11220999999999999,0.165467
2019-03-20T18:58:54.332019Z,-1.236221,0.21483200000000002,-1.596152
2019-03-20T18:58:54.532019Z,-1.2522950000000002,0.455482,-1.0194860000000001
2019-03-20T18:58:54.734019Z,-0.9430620000000001,0.711374,-0.524473
2019-03-20T18:58:54.935019Z,-0.818516,0.331902,0.763042
2019-03-20T18:58:55.136019Z,-0.261315,1.019174,0.326033
2019-03-20T18:58:55.338019Z,-1.874673,-0.41911499999999996,-0.761037
2019-03-20T18:58:55.538019Z,-1.936606,0.191364,-0.001315
2019-03-20T18:58:55.739019Z,-1.013573,-0.16655,0.614911
2019-03-20T18:58:55.941019Z,-1.012845,-0.38066,-0.772922
2019-03-20T18:58:56.142019Z,-1.175092,0.590199,0.05776
2019-03-20T18:58:56.343019Z,-1.582101,0.816282,0.406302
2019-03-20T18:58:56.545019Z,-1.559352,0.010342,-0.102625
2019-03-20T18:58:56.745019Z,-1.7197200000000001,-0.290946,0.43036199999999997
2019-03-20T18:58:56.946019Z,-2.469636,-0.440076,0.513722
2019-03-20T18:58:57.148019Z,-2.199812,0.007819,0.283065
2019-03-20T18:58:57.351019Z,-1.8546779999999998,-0.733049,0.12383699999999999
2019-03-20T18:58:57.550019Z,-0.784691,-1.353924,0.322302
2019-03-20T18:58:57.751019Z,-0.705378,-0.6069180000000001,0.296124
2019-03-20T18:58:57.952019Z,-0.9503950000000001,-0.985166,0.128881
2019-03-20T18:58:58.154019Z,0.049768,-0.542349,1.0952110000000002
2019-03-20T18:58:58.356019Z,-0.9920610000000001,-2.1359220000000003,0.696728
2019-03-20T18:58:58.555019Z,-0.923112,-0.9941639999999999,0.057492999999999995
2019-03-20T18:58:58.756019Z,-1.20071,-0.669087,0.751898
2019-03-20T18:58:58.958019Z,-0.613747,-0.272252,0.909316
2019-03-20T18:58:59.159019Z,-0.162551,-1.775664,0.38717399999999996
2019-03-20T18:58:59.360019Z,0.129215,-1.187001,1.40835
2019-03-20T18:58:59.561019Z,-0.378959,-1.707614,1.334316
2019-03-20T18:58:59.762019Z,-0.543118,-1.61697,1.070821
2019-03-20T18:58:59.963019Z,-0.2568,-1.742521,0.45115600000000006
2019-03-20T18:59:00.165019Z,-0.146456,-1.340551,1.0572290000000002
2019-03-20T18:59:00.365019Z,0.070866,-0.751646,0.45001800000000003
2019-03-20T18:59:00.566019Z,0.25808200000000003,-0.603442,0.00262
2019-03-20T18:59:00.768019Z,0.149227,-0.291317,0.133324
2019-03-20T18:59:00.969019Z,0.170192,-0.868604,0.604033
2019-03-20T18:59:01.170019Z,-0.590277,-1.2452809999999999,0.518979
2019-03-20T18:59:01.372019Z,-0.137802,-0.343593,0.38358600000000004
2019-03-20T18:59:01.572019Z,-0.159937,-0.043301,-0.07359
2019-03-20T18:59:01.773019Z,-0.41297700000000004,0.116379,0.586268
2019-03-20T18:59:01.975019Z,-0.057619000000000004,-0.12623499999999999,0.672823
2019-03-20T18:59:02.176019Z,-0.28005599999999997,-1.1220649999999999,0.298277
2019-03-20T18:59:02.377019Z,-0.033114,-0.609115,-0.108521
2019-03-20T18:59:02.578019Z,0.369193,0.29557100000000003,0.042138999999999996
2019-03-20T18:59:02.778019Z,-0.181896,0.246655,0.500552
2019-03-20T18:59:02.979019Z,0.008786,-0.199775,-0.06792100000000001
2019-03-20T18:59:03.181019Z,-0.9225399999999999,-1.136654,0.018465000000000002
2019-03-20T18:59:03.382019Z,-0.373231,-0.166571,0.832205
2019-03-20T18:59:03.583019Z,-0.602375,0.116191,-0.055251
2019-03-20T18:59:03.784019Z,-0.23241399999999998,0.422001,0.233758
2019-03-20T18:59:04.013019Z,0.179284,0.13996,0.875122
2019-03-20T18:59:04.187019Z,-1.091493,-0.13864500000000002,0.9893120000000001
2019-03-20T18:59:04.388019Z,-0.9187219999999999,0.023132,-0.6761689999999999
2019-03-20T18:59:04.589019Z,-0.929951,0.295342,-0.607917
2019-03-20T18:59:04.790019Z,-0.9335209999999999,0.508138,0.265491
2019-03-20T18:59:04.991019Z,-0.357396,0.655875,-0.12206700000000001
2019-03-20T18:59:05.192019Z,-0.331583,-1.425585,0.68995
2019-03-20T18:59:05.393019Z,-0.082133,-0.451808,-0.269863
2019-03-20T18:59:05.595019Z,0.389991,-0.281715,0.43161499999999997
2019-03-20T18:59:05.795019Z,0.230817,-0.699249,1.2775379999999998
2019-03-20T18:59:05.997019Z,0.046854,-1.661161,-0.145277
2019-03-20T18:59:06.199019Z,-0.001139,-1.3334190000000001,0.104172
2019-03-20T18:59:06.399019Z,-0.113598,-0.8867120000000001,-0.51546
2019-03-20T18:59:06.600019Z,0.507179,-0.9447700000000001,1.112622
2019-03-20T18:59:06.801019Z,0.7055779999999999,-1.838208,-0.5211319999999999
2019-03-20T18:59:07.002019Z,1.2254639999999999,-1.462893,0.41339899999999996
2019-03-20T18:59:07.203019Z,1.062845,-1.366775,0.651273
2019-03-20T18:59:07.405019Z,1.439792,-0.652812,1.413454
2019-03-20T18:59:07.605019Z,0.427721,-0.9632850000000001,0.21253000000000002
2019-03-20T18:59:07.807019Z,0.367087,-0.7430829999999999,0.22933699999999999
2019-03-20T18:59:08.008019Z,0.8849959999999999,-0.17136500000000002,0.219692
2019-03-20T18:59:08.209019Z,0.581906,0.173765,-0.178533
2019-03-20T18:59:08.410019Z,0.383937,0.48462200000000005,0.11616099999999999
2019-03-20T18:59:08.611019Z,0.364827,-1.061182,0.643727
2019-03-20T18:59:08.812019Z,-0.847944,-1.287156,0.371922
2019-03-20T18:59:09.013019Z,-0.417351,-0.714228,-0.130656
2019-03-20T18:59:09.215019Z,-0.172021,-0.43314899999999995,0.371368
2019-03-20T18:59:09.415019Z,-0.021623,-0.008953000000000001,-0.116599
2019-03-20T18:59:09.616019Z,-0.019476,0.059988,-0.279868
2019-03-20T18:59:09.818019Z,-0.561344,-0.047267,0.319496
2019-03-20T18:59:10.020019Z,-0.34560100000000005,0.34206,-0.015604
2019-03-20T18:59:10.220019Z,-0.207512,-0.358112,-0.266778
2019-03-20T18:59:10.421019Z,0.18199300000000002,0.30415,0.373839
2019-03-20T18:59:10.623019Z,0.198667,1.027089,-0.936148
2019-03-20T18:59:10.823019Z,-0.795669,0.342469,0.022575
2019-03-20T18:59:11.025019Z,-0.439792,0.392902,-0.310962
2019-03-20T18:59:11.225019Z,-1.283327,0.541932,-0.143367
2019-03-20T18:59:11.427019Z,-0.945468,0.668565,0.302616
2019-03-20T18:59:11.628019Z,-0.9419040000000001,0.515767,0.010459
2019-03-20T18:59:11.829019Z,-0.73305,0.585557,0.021215
2019-03-20T18:59:12.030019Z,-0.62395,0.58715,-0.006197
2019-03-20T18:59:12.232019Z,-0.399785,0.43039799999999995,-0.186204
2019-03-20T18:59:12.432019Z,-0.358552,0.359401,0.088399
2019-03-20T18:59:12.633019Z,-0.19826400000000002,-0.5166270000000001,0.291404
2019-03-20T18:59:12.835019Z,0.7246090000000001,-1.171926,0.19557
2019-03-20T18:59:13.036019Z,-0.11586600000000001,-0.484947,-0.052341
2019-03-20T18:59:13.237019Z,0.340096,0.185021,-0.434492
2019-03-20T18:59:13.438019Z,0.20238399999999998,-0.429951,1.122141
2019-03-20T18:59:13.639019Z,0.039497000000000004,-1.498234,-0.227165
2019-03-20T18:59:13.840019Z,-0.768354,-1.384132,-0.272848
2019-03-20T18:59:14.042019Z,-1.050236,-1.307065,0.329217
2019-03-20T18:59:14.243019Z,-0.8832120000000001,-1.028889,0.034805
2019-03-20T18:59:14.443019Z,-0.663837,-0.81152,-0.543794
2019-03-20T18:59:14.645019Z,-0.29631599999999997,-1.9759259999999998,1.11521
2019-03-20T18:59:14.846019Z,-0.157279,-2.357909,1.189437
2019-03-20T18:59:15.047019Z,-0.48145699999999997,-1.886944,0.703376
2019-03-20T18:59:15.249019Z,0.032695,-1.700104,-0.35973499999999997
2019-03-20T18:59:15.449019Z,-0.598204,-1.4857120000000001,0.950468
2019-03-20T18:59:15.650019Z,-0.736848,-2.2399009999999997,1.129114
2019-03-20T18:59:15.852019Z,-0.8980239999999999,-2.2636819999999997,-0.23777399999999999
2019-03-20T18:59:16.053019Z,-1.0416860000000001,-1.716966,0.034137
2019-03-20T18:59:16.254019Z,-1.066552,-1.27675,0.519796
2019-03-20T18:59:16.455019Z,-0.34979699999999997,-1.040249,0.549289
2019-03-20T18:59:16.656019Z,-0.23490300000000003,-1.962374,0.38093
2019-03-20T18:59:16.857019Z,0.40307600000000005,-1.1860959999999998,-0.555834
2019-03-20T18:59:17.059019Z,-0.112825,-0.860029,-0.243579
2019-03-20T18:59:17.259019Z,-0.7968930000000001,-0.931456,1.090912
2019-03-20T18:59:17.460019Z,-0.578052,-2.035784,0.723197
2019-03-20T18:59:17.661019Z,-0.848482,-1.990014,-2.730267
2019-03-20T18:59:17.862019Z,1.109634,-1.290916,0.590353
2019-03-20T18:59:18.064019Z,0.312053,-1.521968,0.358028
2019-03-20T18:59:18.265019Z,0.109499,-1.7391290000000001,1.385283
2019-03-20T18:59:18.466019Z,1.143045,-1.7724830000000003,0.362212
2019-03-20T18:59:18.667019Z,1.156065,-1.4258620000000002,0.99559
2019-03-20T18:59:18.868019Z,-0.20031600000000002,-1.182747,0.461244
2019-03-20T18:59:19.070019Z,-0.357107,-0.8311629999999999,0.406956
2019-03-20T18:59:19.270019Z,-0.888868,-0.861397,0.603797
2019-03-20T18:59:19.472019Z,-0.798235,-1.470803,1.212205
2019-03-20T18:59:19.672019Z,0.189778,-2.230932,0.349147
2019-03-20T18:59:19.874019Z,0.056289,-1.171915,-0.058226
2019-03-20T18:59:20.076019Z,-0.105599,-1.1643649999999999,0.867165
2019-03-20T18:59:20.276019Z,-0.289532,-0.9805020000000001,1.007595
2019-03-20T18:59:20.477019Z,-0.142068,-2.010552,0.8364299999999999
2019-03-20T18:59:20.679019Z,-0.6209680000000001,-0.8662040000000001,0.12617799999999998
2019-03-20T18:59:20.881019Z,-0.34019,-0.39758499999999997,0.49503199999999997
2019-03-20T18:59:21.081019Z,-0.972434,-0.182766,-0.61165
2019-03-20T18:59:21.282019Z,0.514058,0.062823,-0.801312
2019-03-20T18:59:21.483019Z,0.29783699999999996,0.446295,0.331862
2019-03-20T18:59:21.684019Z,1.129234,0.613398,-0.267857
2019-03-20T18:59:21.885019Z,-0.004999,1.0798729999999999,0.38779
2019-03-20T18:59:22.086019Z,0.275371,1.471754,-0.012161
2019-03-20T18:59:22.287019Z,-0.796231,1.436597,-0.195431
2019-03-20T18:59:22.489019Z,-0.48948,1.043172,-0.41653999999999997
2019-03-20T18:59:22.689019Z,-2.333951,1.6385919999999998,-0.500984
2019-03-20T18:59:22.890019Z,-1.984748,2.290105,-0.18022
2019-03-20T18:59:23.093019Z,-2.0515790000000003,2.112243,0.250551
2019-03-20T18:59:23.293019Z,-2.131136,0.8425309999999999,1.403229
2019-03-20T18:59:23.494019Z,-0.48780100000000004,-0.5987600000000001,0.201632
2019-03-20T18:59:23.695019Z,-0.9592780000000001,-0.05166900000000001,-0.26772399999999996
2019-03-20T18:59:23.896019Z,-1.600234,-0.07121,0.9810129999999999
2019-03-20T18:59:24.097019Z,-1.602056,0.260227,1.133774
2019-03-20T18:59:24.299019Z,-1.534222,-0.583349,0.305843
2019-03-20T18:59:24.515019Z,-1.713699,-0.22587,-0.781551
2019-03-20T18:59:24.715019Z,-1.68582,0.265361,0.06917899999999999
2019-03-20T18:59:24.902019Z,-0.617751,0.877959,-0.61025
2019-03-20T18:59:25.103019Z,-0.247304,1.20617,0.022368
2019-03-20T18:59:25.304019Z,-0.11046500000000001,0.776101,-0.255486
2019-03-20T18:59:25.505019Z,-0.7094229999999999,1.101796,0.738096
2019-03-20T18:59:25.706019Z,-1.610072,0.522111,0.46797700000000003
2019-03-20T18:59:25.907019Z,-2.049301,0.216635,0.8953209999999999
2019-03-20T18:59:26.109019Z,-1.052507,0.8333079999999999,-0.07496599999999999
2019-03-20T18:59:26.309019Z,-1.363548,1.558867,0.22283200000000003
2019-03-20T18:59:26.510019Z,-0.64273,0.8526940000000001,-0.8410610000000001
2019-03-20T18:59:26.712019Z,-0.384968,1.822228,-0.343127
2019-03-20T18:59:26.912019Z,-0.279047,2.195672,0.156142
2019-03-20T18:59:27.114019Z,-0.424612,1.9255689999999999,0.10667599999999999
2019-03-20T18:59:27.317019Z,-0.207498,0.35823299999999997,-0.009028
2019-03-20T18:59:27.516019Z,0.11273699999999999,1.512846,0.499725
2019-03-20T18:59:27.717019Z,-0.318941,1.587648,0.366028
2019-03-20T18:59:27.920019Z,-0.922811,1.821523,0.727123
2019-03-20T18:59:28.119019Z,0.445258,1.249823,0.301873
2019-03-20T18:59:28.320019Z,1.110734,0.925431,-0.129416
2019-03-20T18:59:28.521019Z,0.461589,1.174601,-0.027346
2019-03-20T18:59:28.722019Z,-0.371168,1.323033,-0.17946800000000002
2019-03-20T18:59:28.923019Z,-1.373227,1.2131100000000001,0.020232
2019-03-20T18:59:29.125019Z,-0.845398,1.312286,0.509271
2019-03-20T18:59:29.325019Z,-0.43382200000000004,1.2342739999999999,-0.162158
2019-03-20T18:59:29.526019Z,-0.604147,-0.10400699999999999,-0.62855
2019-03-20T18:59:29.728019Z,-2.038018,0.455211,0.900565
2019-03-20T18:59:29.930019Z,-1.647234,0.24093699999999998,0.10613299999999999
2019-03-20T18:59:30.131019Z,-1.5834469999999998,1.023425,0.484237
2019-03-20T18:59:30.331019Z,-0.552024,-0.140682,-0.24301399999999998
2019-03-20T18:59:30.532019Z,-0.269192,-1.295174,0.333442
2019-03-20T18:59:30.733019Z,-0.672555,-0.9829200000000001,0.35882800000000004
2019-03-20T18:59:30.934019Z,-0.20501399999999997,-0.226275,-0.45115600000000006
2019-03-20T18:59:31.136019Z,0.091498,0.669396,0.028110000000000003
2019-03-20T18:59:31.337019Z,-0.029836,0.8580979999999999,0.322131
2019-03-20T18:59:31.538019Z,-0.500171,0.269756,0.876625
2019-03-20T18:59:31.739019Z,-1.4462409999999999,-0.570063,0.443796
2019-03-20T18:59:31.940019Z,-0.869455,-0.16293,-0.748166
2019-03-20T18:59:32.142019Z,-1.048718,0.126138,0.370331
2019-03-20T18:59:32.342019Z,-0.783799,-0.462557,0.44644399999999995
2019-03-20T18:59:32.543019Z,0.466168,-1.777534,0.018066
2019-03-20T18:59:32.781019Z,-0.067749,-1.089101,0.8467530000000001
2019-03-20T18:59:32.945019Z,-0.860979,-1.3554899999999999,0.952266
2019-03-20T18:59:33.146019Z,-0.27062600000000003,-0.540028,-0.42478599999999994
2019-03-20T18:59:33.347019Z,-0.132202,-0.15350899999999998,-0.18892899999999999
2019-03-20T18:59:33.548019Z,-0.337706,0.286398,0.17910299999999998
2019-03-20T18:59:33.750019Z,-1.0042440000000001,-0.738137,0.29796999999999996
2019-03-20T18:59:33.951019Z,-1.042712,-0.743548,-0.11996
2019-03-20T18:59:34.151019Z,-0.698666,-0.042379,-0.48076899999999995
2019-03-20T18:59:34.352019Z,-0.5567350000000001,0.307904,-0.11196700000000001
2019-03-20T18:59:34.554019Z,-0.9979299999999999,0.016807,1.562793
2019-03-20T18:59:34.755019Z,-0.70865,-1.4422549999999998,0.263814
2019-03-20T18:59:34.956019Z,-0.9200389999999999,-0.237339,-0.38857800000000003
2019-03-20T18:59:35.157019Z,-1.738221,0.420732,1.6823099999999998
2019-03-20T18:59:35.358019Z,-2.172831,0.284352,-0.05351
2019-03-20T18:59:35.559019Z,-3.437676,0.5949810000000001,0.02986
2019-03-20T18:59:35.760019Z,-3.238315,2.0436509999999997,0.334903
2019-03-20T18:59:35.961019Z,-3.767175,0.5547350000000001,0.19834200000000002
2019-03-20T18:59:36.162019Z,-5.281978,-0.854792,0.535987
2019-03-20T18:59:36.363019Z,-4.095692,0.3845,1.22197
2019-03-20T18:59:36.564019Z,-4.140759,0.5622199999999999,1.4093879999999999
2019-03-20T18:59:36.765019Z,-4.379478,0.759306,1.7177619999999998
2019-03-20T18:59:36.967019Z,-4.184118,-0.95524,1.092225
2019-03-20T18:59:37.168019Z,-2.7466009999999996,-1.8508950000000002,1.642677
2019-03-20T18:59:37.370019Z,-4.49753,-0.895776,1.715845
2019-03-20T18:59:37.570019Z,-4.278963,-0.9198879999999999,1.7570189999999999
2019-03-20T18:59:37.771019Z,-3.510731,-0.945477,1.097535
2019-03-20T18:59:37.974019Z,-2.985029,-1.7218080000000002,1.400398
2019-03-20T18:59:38.173019Z,-2.510345,-2.163118,1.598385
2019-03-20T18:59:38.374019Z,-2.638889,-3.033632,2.444841
2019-03-20T18:59:38.575019Z,-2.20269,-3.005649,1.585618
2019-03-20T18:59:38.776019Z,-2.1599009999999996,-2.5230099999999998,1.8396419999999998
2019-03-20T18:59:38.978019Z,-1.005996,-2.394278,2.217707
2019-03-20T18:59:39.178019Z,-0.685593,-3.6825089999999996,0.45496400000000004
2019-03-20T18:59:39.380019Z,-0.784235,-2.9942130000000002,1.627525
2019-03-20T18:59:39.581019Z,-0.965325,-2.780875,1.535536
2019-03-20T18:59:39.781019Z,-1.0763280000000002,-2.004411,1.495319
2019-03-20T18:59:39.983019Z,-0.947873,-1.6435810000000002,1.670897
2019-03-20T18:59:40.183019Z,-0.222012,-3.305093,0.361904
2019-03-20T18:59:40.385019Z,0.365618,-2.1497349999999997,1.129637
2019-03-20T18:59:40.586019Z,-0.368319,-1.265463,1.105954
2019-03-20T18:59:40.787019Z,-0.635283,-1.796662,1.2573459999999999
2019-03-20T18:59:40.989019Z,-1.546298,-3.248744,1.212618
2019-03-20T18:59:41.189019Z,-2.3003139999999997,-1.965286,1.614442
2019-03-20T18:59:41.390019Z,-2.012381,-2.352304,0.9667030000000001
2019-03-20T18:59:41.591019Z,-2.015603,-1.3781139999999998,0.6253810000000001
2019-03-20T18:59:41.793019Z,-1.466577,-1.110663,0.8675370000000001
2019-03-20T18:59:41.994019Z,-1.5102010000000001,-1.022274,0.8390110000000001
2019-03-20T18:59:42.194019Z,-1.7980669999999999,-1.302215,1.393292
2019-03-20T18:59:42.396019Z,-0.886898,-2.3481099999999997,0.178333
2019-03-20T18:59:42.597019Z,-0.24034,-0.883191,0.9254549999999999
2019-03-20T18:59:42.798019Z,-0.747251,-0.41417,0.553026
2019-03-20T18:59:43.000019Z,-1.077497,-0.7116859999999999,0.8777510000000001
2019-03-20T18:59:43.200019Z,-1.098984,-1.9796029999999998,0.8698520000000001
2019-03-20T18:59:43.401019Z,-1.596057,-1.777284,1.7105830000000002
2019-03-20T18:59:43.603019Z,-0.731679,-1.255015,0.523012
2019-03-20T18:59:43.803019Z,-0.892799,-0.9768600000000001,0.603885
2019-03-20T18:59:44.005019Z,-0.526872,-0.8263229999999999,0.481386
2019-03-20T18:59:44.206019Z,-0.609194,-0.654187,0.5827600000000001
2019-03-20T18:59:44.409019Z,-0.48163500000000004,-0.402735,0.255533
2019-03-20T18:59:44.608019Z,-0.24723699999999998,-0.27568200000000004,0.193991
2019-03-20T18:59:44.809019Z,-0.180892,-0.034010000000000006,0.040219
2019-03-20T18:59:45.010019Z,0.317529,-0.03197,0.31009200000000003
2019-03-20T18:59:45.211019Z,0.09489199999999999,-1.3036530000000002,0.5094270000000001
2019-03-20T18:59:45.413019Z,-0.5176609999999999,-1.395393,0.49508599999999997
2019-03-20T18:59:45.614019Z,-0.792664,-0.28596900000000003,-0.019505
2019-03-20T18:59:45.815019Z,-1.571225,-0.502846,0.397352
2019-03-20T18:59:46.016019Z,-1.836037,-0.304188,-0.09788200000000001
2019-03-20T18:59:46.217019Z,-1.007707,-0.22274699999999997,0.9468719999999999
2019-03-20T18:59:46.418019Z,-1.107284,-0.080337,0.137323
2019-03-20T18:59:46.644019Z,-1.341795,0.514953,-0.33226700000000003
2019-03-20T18:59:46.825019Z,-0.5597489999999999,-0.634359,-0.471992
2019-03-20T18:59:47.027019Z,-0.031550999999999996,-0.48482700000000006,-0.31657399999999997
2019-03-20T18:59:47.229019Z,0.7169810000000001,0.6630189999999999,-0.088831
2019-03-20T18:59:47.427019Z,0.641687,1.423015,-0.344093
2019-03-20T18:59:47.634019Z,0.22958499999999998,0.546374,-0.129459
2019-03-20T18:59:47.830019Z,-0.184672,0.630341,0.264776
2019-03-20T18:59:48.032019Z,-0.893048,0.631391,0.105871
2019-03-20T18:59:48.233019Z,-0.223239,0.955623,0.202239
2019-03-20T18:59:48.433019Z,-0.408476,0.806016,-0.33882199999999996
2019-03-20T18:59:48.635019Z,0.516304,0.9099299999999999,-0.115451
2019-03-20T18:59:48.836019Z,-0.198233,0.6122479999999999,-0.073196
2019-03-20T18:59:49.042019Z,0.109676,0.491648,-0.16201500000000002
2019-03-20T18:59:49.238019Z,-0.039137,0.21809099999999998,-0.19930799999999999
2019-03-20T18:59:49.440019Z,-0.061331,0.118309,-0.12233499999999999
2019-03-20T18:59:49.642019Z,-0.055211,-0.055076,0.214405
2019-03-20T18:59:49.842019Z,0.262787,0.016104,-0.191667
2019-03-20T18:59:50.037019Z,0.46286000000000005,0.243222,-1.946909
2019-03-20T18:59:50.238019Z,0.9353239999999999,0.283134,0.126004
2019-03-20T18:59:50.438019Z,0.49103900000000006,-0.368736,0.035182
2019-03-20T18:59:50.639019Z,0.163519,-0.047773,0.628605
2019-03-20T18:59:50.841019Z,0.23367,-0.093001,0.143252
2019-03-20T18:59:51.042019Z,0.33634000000000003,0.257191,0.18429600000000002
2019-03-20T18:59:51.243019Z,-0.08507200000000001,-0.013535,-0.5329149999999999
2019-03-20T18:59:51.444019Z,0.024336,0.29741,0.640472
2019-03-20T18:59:51.645019Z,-0.183839,-0.318851,0.8707090000000001
2019-03-20T18:59:51.846019Z,0.252619,-0.629842,0.08909299999999999
2019-03-20T18:59:52.048019Z,0.08115,0.20051300000000002,0.09489700000000001
2019-03-20T18:59:52.249019Z,0.48642700000000005,0.261775,0.085906
2019-03-20T18:59:52.449019Z,0.155823,0.31547600000000003,0.226066
2019-03-20T18:59:52.651019Z,0.45322700000000005,-0.115218,0.012918
2019-03-20T18:59:52.851019Z,-0.251922,-0.610613,0.10765
2019-03-20T18:59:53.053019Z,-0.918534,-0.086991,0.181819
2019-03-20T18:59:53.254019Z,-0.352342,-0.076303,-0.135441
2019-03-20T18:59:53.455019Z,-0.5695819999999999,-0.513803,0.700278
2019-03-20T18:59:53.655019Z,-0.347121,-0.5604279999999999,0.601901
2019-03-20T18:59:53.858019Z,-1.105451,-0.904732,-0.093547
2019-03-20T18:59:54.058019Z,-0.024332,-0.025097,0.274296
2019-03-20T18:59:54.259019Z,-0.257904,0.113498,-0.625309
2019-03-20T18:59:54.460019Z,-0.457607,-0.586616,0.09714400000000001
2019-03-20T18:59:54.661019Z,-0.143526,-1.470137,-0.029110000000000004
2019-03-20T18:59:54.862019Z,-0.306711,-0.9347040000000001,-0.577649
2019-03-20T18:59:55.063019Z,-0.030524000000000003,-1.446835,0.5675140000000001
2019-03-20T18:59:55.264019Z,0.6197630000000001,0.18398599999999998,0.038654
2019-03-20T18:59:55.465019Z,-0.187885,-0.567128,0.386716
2019-03-20T18:59:55.667019Z,0.142688,-1.313868,-0.48440900000000003
2019-03-20T18:59:55.869019Z,0.223519,-0.742136,0.075062
2019-03-20T18:59:56.069019Z,0.46733500000000006,-0.000795,0.512917
2019-03-20T18:59:56.270019Z,0.670334,0.502319,0.535324
2019-03-20T18:59:56.471019Z,1.7387650000000001,-1.178044,-0.36832
2019-03-20T18:59:56.672019Z,-0.360799,-1.508041,0.931424
2019-03-20T18:59:56.874019Z,0.9795459999999999,-1.250305,0.373612
2019-03-20T18:59:57.074019Z,0.281173,-0.959665,-3.7156569999999998
2019-03-20T18:59:57.275019Z,0.367631,-1.255412,0.61127
2019-03-20T18:59:57.477019Z,0.5374909999999999,-0.434697,0.823149
2019-03-20T18:59:57.677019Z,0.128592,-0.8284450000000001,0.7627010000000001
2019-03-20T18:59:57.879019Z,0.168404,0.155828,1.099864
2019-03-20T18:59:58.080019Z,0.01529,-1.324508,0.40149
2019-03-20T18:59:58.281019Z,0.7897489999999999,-2.1250259999999996,0.9553780000000001
2019-03-20T18:59:58.482019Z,0.38198699999999997,-0.9201959999999999,0.47154300000000005
2019-03-20T18:59:58.683019Z,0.675632,0.9938370000000001,0.47835500000000003
2019-03-20T18:59:58.884019Z,0.380999,0.85688,0.602092
2019-03-20T18:59:59.085019Z,0.500049,-0.8557819999999999,-0.027114
2019-03-20T18:59:59.287019Z,-0.7892560000000001,-1.3131110000000001,0.893682
2019-03-20T18:59:59.488019Z,-0.656641,-0.812411,-0.22619699999999998
2019-03-20T18:59:59.689019Z,0.024021,-0.21448899999999999,-0.247971
2019-03-20T18:59:59.890019Z,0.17638199999999998,-1.140416,0.405098
2019-03-20T19:00:00.091019Z,0.775742,-0.833901,0.927426
2019-03-20T19:00:00.292019Z,0.16509200000000002,-0.8613350000000001,0.487433
2019-03-20T19:00:00.494019Z,0.371589,-1.111537,1.4039139999999999
2019-03-20T19:00:00.694019Z,-0.151303,-0.48353500000000005,0.511863
2019-03-20T19:00:00.896019Z,-0.304516,-0.29175300000000004,-0.196725
2019-03-20T19:00:01.097019Z,-0.14709,0.533346,0.236671
2019-03-20T19:00:01.298019Z,-0.969218,2.104236,-0.8179
2019-03-20T19:00:01.499019Z,0.705641,0.424145,0.162576
2019-03-20T19:00:01.700019Z,-1.776225,-0.654425,0.9728629999999999
2019-03-20T19:00:01.902019Z,-1.0110370000000002,1.411332,-0.915869
2019-03-20T19:00:02.102019Z,-1.7206810000000001,1.3689120000000001,-0.722441
2019-03-20T19:00:02.304019Z,-2.05001,1.10705,1.9505880000000002
2019-03-20T19:00:02.505019Z,0.120475,-0.6589010000000001,-0.685267
2019-03-20T19:00:02.706019Z,0.103148,0.7163729999999999,0.716295
2019-03-20T19:00:02.907019Z,0.482544,1.563275,-0.039029
2019-03-20T19:00:03.108019Z,-0.426392,1.054524,0.44578999999999996
2019-03-20T19:00:03.309019Z,0.008520999999999999,0.351339,-0.09695
2019-03-20T19:00:03.510019Z,-0.273972,0.8207469999999999,-0.82315
2019-03-20T19:00:03.711019Z,-0.157002,0.361958,-0.166023
2019-03-20T19:00:03.913019Z,0.858936,0.42171000000000003,1.2869680000000001
2019-03-20T19:00:04.114019Z,0.034927,-0.32001999999999997,1.154116
2019-03-20T19:00:04.315019Z,0.491324,-1.109163,-0.254807
2019-03-20T19:00:04.516019Z,0.089823,-1.357034,-0.200821
2019-03-20T19:00:04.717019Z,-0.059271000000000004,-0.770076,-0.4386
2019-03-20T19:00:04.918019Z,-0.836951,-0.373366,0.644569
2019-03-20T19:00:05.119019Z,0.7962279999999999,-0.9291370000000001,0.9011979999999999
2019-03-20T19:00:05.321019Z,1.172026,-2.887852,-0.616488
2019-03-20T19:00:05.522019Z,1.412089,-1.5012290000000001,0.034972
2019-03-20T19:00:05.723019Z,1.397326,-1.739791,0.5945550000000001
2019-03-20T19:00:05.924019Z,1.523289,-1.164458,1.351159
2019-03-20T19:00:06.125019Z,1.49516,-2.79441,-0.244608
2019-03-20T19:00:06.350019Z,0.167034,-1.70668,-2.358182
2019-03-20T19:00:06.527019Z,-0.368804,-2.031327,0.315814
2019-03-20T19:00:06.728019Z,0.5180560000000001,-1.0171379999999999,0.558385
2019-03-20T19:00:06.929019Z,-0.04096,-0.904575,0.761463
2019-03-20T19:00:07.130019Z,0.277915,-0.423727,0.319772
2019-03-20T19:00:07.331019Z,-0.043314,-0.336889,0.207438
2019-03-20T19:00:07.532019Z,-0.035808,-1.214205,1.095905
2019-03-20T19:00:07.733019Z,1.341127,-1.082155,-0.300672
2019-03-20T19:00:07.934019Z,0.351224,-0.6710149999999999,-0.284486
2019-03-20T19:00:08.135019Z,0.049371,-0.16205999999999998,0.188421
2019-03-20T19:00:08.336019Z,0.001391,-0.590759,1.109529
2019-03-20T19:00:08.537019Z,-0.605572,-0.490929,-0.551412
2019-03-20T19:00:08.738019Z,-0.8468049999999999,0.048510000000000005,0.06501599999999999
2019-03-20T19:00:08.940019Z,-1.8496279999999998,-0.33177399999999996,-0.746216
2019-03-20T19:00:09.141019Z,-1.755859,-1.5433729999999999,0.44103100000000006
2019-03-20T19:00:09.342019Z,-1.3915790000000001,-0.5231399999999999,-0.005155
