Datetime,accx,accy,accz
2019-05-23T04:13:08.830491Z,-0.10604300000000001,0.545974,-0.232433
2019-05-23T04:13:08.866491Z,-0.252048,0.357554,0.028198
2019-05-23T04:13:08.902491Z,-0.117308,0.403087,0.007862000000000001
2019-05-23T04:13:08.943491Z,-0.068362,0.332411,0.179249
2019-05-23T04:13:08.983491Z,-0.168639,0.17793499999999998,-0.24364899999999998
2019-05-23T04:13:09.023491Z,-0.15321300000000002,0.211202,-0.25267
2019-05-23T04:13:09.063491Z,-0.21372600000000003,0.063124,0.12104000000000001
2019-05-23T04:13:09.121491Z,0.029392,0.068825,0.168659
2019-05-23T04:13:09.144491Z,0.07001900000000001,0.016303,0.186088
2019-05-23T04:13:09.182491Z,0.308881,0.442536,-0.49533699999999997
2019-05-23T04:13:09.223491Z,0.30179,0.34378600000000004,-0.124681
2019-05-23T04:13:09.266491Z,0.262328,0.334225,-0.12186099999999998
2019-05-23T04:13:09.303491Z,-0.008734,0.103878,-0.147844
2019-05-23T04:13:09.343491Z,0.033567,0.28773000000000004,-0.598611
2019-05-23T04:13:09.386491Z,-0.069874,0.20414300000000002,-0.55589
2019-05-23T04:13:09.425491Z,-0.07069600000000001,0.511739,-0.788153
2019-05-23T04:13:09.463491Z,-0.336627,0.49744700000000003,-0.801884
2019-05-23T04:13:09.503491Z,-0.299755,0.622881,-0.842231
2019-05-23T04:13:09.544491Z,-0.5098600000000001,0.5399149999999999,-0.24199
2019-05-23T04:13:09.587491Z,-0.57034,0.7050350000000001,0.057035
2019-05-23T04:13:09.627491Z,-0.572326,0.747696,0.036026
2019-05-23T04:13:09.664491Z,-0.34829899999999997,0.8543700000000001,0.07946900000000001
2019-05-23T04:13:09.704491Z,-0.066151,0.814267,0.44326800000000005
2019-05-23T04:13:09.744491Z,-0.007490000000000001,0.788567,0.43968500000000005
2019-05-23T04:13:09.783491Z,0.146308,0.728699,0.269556
2019-05-23T04:13:09.827491Z,0.23351799999999998,0.848549,0.337885
2019-05-23T04:13:09.866491Z,0.206159,0.7531260000000001,0.36394899999999997
2019-05-23T04:13:09.905491Z,0.07343,0.6805829999999999,1.0412219999999999
2019-05-23T04:13:09.946491Z,0.08870700000000001,0.5943649999999999,-0.235564
2019-05-23T04:13:09.985491Z,0.156106,0.712407,-0.28425
2019-05-23T04:13:10.028491Z,0.693028,0.022077,0.5019319999999999
2019-05-23T04:13:10.065491Z,0.31174,-0.834996,0.506462
2019-05-23T04:13:10.104491Z,0.182153,-1.0848799999999998,0.615848
2019-05-23T04:13:10.146491Z,0.220164,-1.0955620000000001,-0.841526
2019-05-23T04:13:10.185491Z,0.807492,-0.598266,-0.745356
2019-05-23T04:13:10.228491Z,0.8395,-0.5186609999999999,-0.766465
2019-05-23T04:13:10.265491Z,0.614317,-0.43711099999999997,-0.22272600000000004
2019-05-23T04:13:10.306491Z,0.541492,-0.182562,-0.269494
2019-05-23T04:13:10.346491Z,0.582598,-0.135735,-0.28444899999999995
2019-05-23T04:13:10.385491Z,0.588954,0.09500499999999999,-0.47711499999999996
2019-05-23T04:13:10.427491Z,0.325234,0.076676,0.13664500000000002
2019-05-23T04:13:10.500491Z,0.145109,-0.135653,0.239531
2019-05-23T04:13:10.511491Z,0.625959,0.185142,-0.619387
2019-05-23T04:13:10.543491Z,1.058476,0.411821,-0.11350299999999999
2019-05-23T04:13:10.584491Z,1.0443639999999998,0.376751,-0.09801699999999999
2019-05-23T04:13:10.626491Z,1.331048,-0.144826,1.204819
2019-05-23T04:13:10.664491Z,1.735696,-0.006043,-0.010964
2019-05-23T04:13:10.705491Z,1.712954,0.150161,-0.088486
2019-05-23T04:13:10.745491Z,1.424936,-0.8275520000000001,1.442293
2019-05-23T04:13:10.785491Z,1.0933760000000001,-0.9788819999999999,1.011516
2019-05-23T04:13:10.826491Z,0.8576520000000001,-1.104077,1.0744340000000001
2019-05-23T04:13:10.866491Z,2.07313,0.29994299999999996,-0.10904000000000001
2019-05-23T04:13:10.906491Z,2.3306270000000002,0.052335,-0.397294
2019-05-23T04:13:10.945491Z,2.3265,0.198555,-0.46682399999999996
2019-05-23T04:13:10.986491Z,1.652252,-0.6624359999999999,0.27605
2019-05-23T04:13:11.027491Z,0.759382,-0.761405,-0.191327
2019-05-23T04:13:11.064491Z,0.784337,-0.9145040000000001,-0.106965
2019-05-23T04:13:11.105491Z,1.0413780000000001,-0.031553,-1.6978240000000002
2019-05-23T04:13:11.146491Z,0.652539,0.522151,-0.202877
2019-05-23T04:13:11.185491Z,0.749625,0.492158,-0.197147
2019-05-23T04:13:11.225491Z,0.030376,0.928688,-0.016711
2019-05-23T04:13:11.320491Z,-0.142268,1.6950580000000002,0.6532979999999999
2019-05-23T04:13:11.321491Z,-0.24737199999999998,1.664339,0.653894
2019-05-23T04:13:11.351491Z,-0.9124540000000001,0.630811,1.792877
2019-05-23T04:13:11.385491Z,-0.38506799999999997,0.07195900000000001,1.904136
2019-05-23T04:13:11.427491Z,-0.39229200000000003,0.089705,1.864216
2019-05-23T04:13:11.466491Z,-1.017926,-2.113658,1.665089
2019-05-23T04:13:11.507491Z,-1.152297,-2.509631,0.817098
2019-05-23T04:13:11.545491Z,-1.024319,-2.585731,0.855772
2019-05-23T04:13:11.585491Z,-0.446054,-2.162706,-0.7597619999999999
2019-05-23T04:13:11.625491Z,-0.313496,-2.196193,-0.7167680000000001
2019-05-23T04:13:11.664491Z,-0.259075,-1.727754,-0.795134
2019-05-23T04:13:11.704491Z,-0.48963999999999996,-1.340118,-0.943831
2019-05-23T04:13:11.745491Z,-0.375037,-1.3839700000000001,-0.8924719999999999
2019-05-23T04:13:11.787491Z,-0.57481,-0.902775,-0.727946
2019-05-23T04:13:11.826491Z,-0.6792279999999999,-0.11718800000000001,-0.328846
2019-05-23T04:13:11.865491Z,-0.670359,-0.092792,-0.336175
2019-05-23T04:13:11.905491Z,-0.197535,0.18566300000000002,0.7736890000000001
2019-05-23T04:13:11.946491Z,-0.008655,0.11096800000000001,1.425897
2019-05-23T04:13:11.986491Z,0.138454,0.0009660000000000001,1.471092
2019-05-23T04:13:12.025491Z,0.884969,0.43281800000000004,1.331181
2019-05-23T04:13:12.066491Z,-0.41856400000000005,-0.659854,0.534554
2019-05-23T04:13:12.107491Z,-0.289005,-0.732525,0.579306
2019-05-23T04:13:12.146491Z,0.898164,-1.7371310000000002,2.855562
2019-05-23T04:13:12.186491Z,0.300739,-1.735813,0.777812
2019-05-23T04:13:12.227491Z,0.5153909999999999,-1.7878169999999998,0.8266370000000001
2019-05-23T04:13:12.266491Z,1.5285440000000001,-1.8617029999999999,0.62503
2019-05-23T04:13:12.305491Z,0.393063,-1.26509,-2.4896439999999997
2019-05-23T04:13:12.346491Z,0.277903,-1.2266270000000001,-2.4727200000000003
2019-05-23T04:13:12.429491Z,-0.34070700000000004,-0.943789,-2.4794110000000003
2019-05-23T04:13:12.430491Z,-0.484872,-0.823569,-0.716191
2019-05-23T04:13:12.468491Z,-0.822327,-1.0055180000000001,-0.636261
2019-05-23T04:13:12.506491Z,-1.455435,-0.646456,0.734456
2019-05-23T04:13:12.546491Z,0.23992600000000003,0.531077,0.015054
2019-05-23T04:13:12.586491Z,0.188723,0.567937,-0.01326
2019-05-23T04:13:12.627491Z,-0.8781620000000001,0.468125,0.8987370000000001
2019-05-23T04:13:12.666491Z,-0.44773,0.534341,1.6519169999999999
2019-05-23T04:13:12.706491Z,-0.466733,0.52561,1.6224379999999998
2019-05-23T04:13:12.747491Z,-0.195829,0.19578099999999998,0.529737
2019-05-23T04:13:12.813491Z,0.302185,-1.558033,2.6134560000000002
2019-05-23T04:13:12.826491Z,0.359896,-1.583344,2.601985
2019-05-23T04:13:12.867491Z,-0.181853,-1.589775,0.506973
2019-05-23T04:13:12.909491Z,0.556054,-1.265699,-0.631541
2019-05-23T04:13:12.947491Z,0.660353,-1.225751,-0.622444
2019-05-23T04:13:12.986491Z,0.52769,-1.0751959999999998,-1.018724
2019-05-23T04:13:13.029491Z,-0.116699,-0.56739,-1.581115
2019-05-23T04:13:13.067491Z,-0.123226,-0.526277,-1.5714629999999998
2019-05-23T04:13:13.107491Z,-0.18304,-0.438109,-0.500741
2019-05-23T04:13:13.147491Z,-0.296037,-0.191447,-0.115422
2019-05-23T04:13:13.186491Z,-0.308657,-0.240186,-0.088801
2019-05-23T04:13:13.229491Z,-0.629879,0.200594,0.49591499999999994
2019-05-23T04:13:13.297491Z,-0.358356,0.584905,0.536722
2019-05-23T04:13:13.311491Z,-0.5294840000000001,0.5578609999999999,0.527211
2019-05-23T04:13:13.347491Z,-0.250216,0.626567,1.846669
2019-05-23T04:13:13.387491Z,0.131556,0.327228,1.829236
2019-05-23T04:13:13.430491Z,0.254762,0.301124,1.8079450000000001
2019-05-23T04:13:13.466491Z,1.265347,-1.101832,2.447252
2019-05-23T04:13:13.507491Z,0.908459,-0.766162,-0.034988
2019-05-23T04:13:13.547491Z,0.8097850000000001,-0.671089,-0.07595700000000001
2019-05-23T04:13:13.594491Z,0.205981,-0.676153,-1.857425
2019-05-23T04:13:13.626491Z,-0.155641,-1.040715,-1.8358729999999999
2019-05-23T04:13:13.666491Z,-0.266048,-0.928192,-1.83473
2019-05-23T04:13:13.710491Z,0.012596,-1.015417,-0.382042
2019-05-23T04:13:13.747491Z,-0.477782,-0.5957899999999999,-1.3871360000000001
2019-05-23T04:13:13.787491Z,-0.37656300000000004,-0.72763,-1.319518
2019-05-23T04:13:13.829491Z,-0.440557,-0.400054,0.524981
2019-05-23T04:13:13.867491Z,-0.198527,1.00419,0.015512999999999999
2019-05-23T04:13:13.907491Z,-0.059736000000000004,0.946599,0.026289
2019-05-23T04:13:13.948491Z,-0.225545,0.2915,1.590126
2019-05-23T04:13:13.989491Z,0.399512,0.470105,2.035869
2019-05-23T04:13:14.029491Z,0.556338,0.5129199999999999,1.983469
2019-05-23T04:13:14.069491Z,0.058835000000000005,0.217113,1.00539
2019-05-23T04:13:14.109491Z,0.92201,-1.0243879999999999,2.765098
2019-05-23T04:13:14.149491Z,0.950945,-1.1585239999999999,2.7924130000000003
2019-05-23T04:13:14.189491Z,-0.16408299999999998,-1.723782,0.5843510000000001
2019-05-23T04:13:14.231491Z,0.535433,-2.497156,0.501676
2019-05-23T04:13:14.268491Z,0.6037239999999999,-2.585902,0.5664140000000001
2019-05-23T04:13:14.312491Z,0.658012,-2.053175,-0.214786
2019-05-23T04:13:14.347491Z,0.724817,-1.675256,-0.738322
2019-05-23T04:13:14.388491Z,0.44011300000000003,-1.5043549999999999,-0.8141010000000001
2019-05-23T04:13:14.430491Z,-0.438668,-0.6340279999999999,-1.153777
2019-05-23T04:13:14.467491Z,0.016846,-0.8696959999999999,-0.240121
2019-05-23T04:13:14.507491Z,-0.333723,-0.741663,-0.24941799999999997
2019-05-23T04:13:14.548491Z,-0.24700100000000003,-2.352842,2.490813
2019-05-23T04:13:14.588491Z,0.531486,-1.282615,1.513083
2019-05-23T04:13:14.630491Z,1.049401,-1.0685,1.33599
2019-05-23T04:13:14.668491Z,1.197758,0.839324,-2.768073
2019-05-23T04:13:14.709491Z,0.33544,0.689603,1.230897
2019-05-23T04:13:14.750491Z,0.43459799999999993,0.37275,1.342252
2019-05-23T04:13:14.789491Z,-0.12962100000000001,-0.454829,1.1369040000000001
2019-05-23T04:13:14.831491Z,-0.007122,0.017344,-0.904508
2019-05-23T04:13:14.868491Z,0.116746,0.029550999999999997,-0.8900100000000001
2019-05-23T04:13:14.909491Z,0.21113800000000002,0.636083,-0.906278
2019-05-23T04:13:14.949491Z,-0.366233,0.042095999999999995,0.16228499999999998
2019-05-23T04:13:14.989491Z,-0.44430299999999995,-0.125422,0.243377
2019-05-23T04:13:15.029491Z,-0.6049770000000001,0.175726,0.493633
2019-05-23T04:13:15.076491Z,-1.1617879999999998,0.858791,-1.130367
2019-05-23T04:13:15.114491Z,-1.482772,1.0139049999999998,-1.18554
2019-05-23T04:13:15.148491Z,0.718133,-0.789415,2.4842009999999997
2019-05-23T04:13:15.189491Z,0.46748100000000004,-1.224607,1.5229620000000001
2019-05-23T04:13:15.231491Z,0.518371,-1.3922430000000001,1.592746
2019-05-23T04:13:15.268491Z,1.073448,-0.448784,-0.026067
2019-05-23T04:13:15.308491Z,0.49404899999999996,-1.034451,0.12189100000000001
2019-05-23T04:13:15.349491Z,0.559983,-1.150139,0.191975
2019-05-23T04:13:15.389491Z,-0.410033,-1.5043959999999998,0.795896
2019-05-23T04:13:15.430491Z,-0.456991,-1.3080889999999998,0.1987
2019-05-23T04:13:15.469491Z,-0.497021,-1.482764,0.318297
2019-05-23T04:13:15.510491Z,-0.358224,-1.202616,-0.018798
2019-05-23T04:13:15.549491Z,0.165274,-0.90596,-0.14296099999999998
2019-05-23T04:13:15.589491Z,0.16711099999999998,-0.880553,-0.147454
2019-05-23T04:13:15.632491Z,0.269433,-0.535008,0.212327
2019-05-23T04:13:15.669491Z,0.023962999999999998,-0.051263,-0.48027200000000003
2019-05-23T04:13:15.709491Z,-0.035786,0.036135,-0.524872
2019-05-23T04:13:15.750491Z,-0.098374,0.448004,-0.194545
2019-05-23T04:13:15.790491Z,-0.076438,0.402866,0.075425
2019-05-23T04:13:15.830491Z,-0.073412,0.393223,0.075874
2019-05-23T04:13:15.870491Z,-0.379454,0.499199,-0.033707
2019-05-23T04:13:15.909491Z,-0.661884,0.38075,-0.389198
2019-05-23T04:13:15.949491Z,-0.669167,0.408413,-0.402217
2019-05-23T04:13:15.989491Z,-0.766452,0.41041400000000006,-0.42923199999999995
2019-05-23T04:13:16.031491Z,-1.0689600000000001,0.485541,-0.683285
2019-05-23T04:13:16.068491Z,-1.198631,0.5810850000000001,-0.7186739999999999
2019-05-23T04:13:16.109491Z,-0.7739689999999999,0.564868,-0.925715
2019-05-23T04:13:16.149491Z,-0.371539,0.42287299999999994,0.42825
2019-05-23T04:13:16.189491Z,-0.32097800000000004,0.332751,0.46381300000000003
2019-05-23T04:13:16.230491Z,-0.410864,0.829779,-0.019707
2019-05-23T04:13:16.269491Z,-0.793868,1.666103,-0.263371
2019-05-23T04:13:16.310491Z,-0.781798,1.594859,-0.233431
2019-05-23T04:13:16.350491Z,-0.9964360000000001,1.293259,0.6732199999999999
2019-05-23T04:13:16.391491Z,-0.49497700000000006,0.582908,0.5038130000000001
2019-05-23T04:13:16.432491Z,-0.5717220000000001,0.48776,0.558553
2019-05-23T04:13:16.472491Z,-0.814508,0.613006,-0.06391799999999999
2019-05-23T04:13:16.510491Z,0.44869,-0.53972,1.543141
2019-05-23T04:13:16.551491Z,0.605677,-0.5722659999999999,1.529339
2019-05-23T04:13:16.591491Z,0.020775,-1.272846,0.764295
2019-05-23T04:13:16.633491Z,0.044777,-1.518718,-0.310752
2019-05-23T04:13:16.673491Z,0.08189500000000001,-1.478917,-0.317212
2019-05-23T04:13:16.712491Z,-0.437097,-1.7097259999999999,-0.512783
2019-05-23T04:13:16.751491Z,0.005788000000000001,-1.30512,-0.299304
2019-05-23T04:13:16.791491Z,0.110693,-1.2398959999999999,-0.324237
2019-05-23T04:13:16.832491Z,-0.441033,-1.051031,-0.48872
2019-05-23T04:13:16.871491Z,-0.511129,-0.532582,-0.138775
2019-05-23T04:13:16.910491Z,-0.404333,-0.466242,-0.171898
2019-05-23T04:13:16.951491Z,-0.314633,-0.023553,-0.14774500000000002
2019-05-23T04:13:16.991491Z,-0.8684870000000001,0.25843499999999997,0.19903900000000002
2019-05-23T04:13:17.035491Z,-0.8588969999999999,0.227187,0.212461
2019-05-23T04:13:17.073491Z,-0.429838,0.928201,-0.11313
2019-05-23T04:13:17.112491Z,-0.159153,1.216474,0.017414
2019-05-23T04:13:17.151491Z,-0.08235,1.1714639999999998,0.035856
2019-05-23T04:13:17.192491Z,-0.457171,0.5259149999999999,0.9966309999999999
2019-05-23T04:13:17.236491Z,-0.474004,0.709719,0.256151
2019-05-23T04:13:17.272491Z,-0.376096,0.9257190000000001,0.120118
2019-05-23T04:13:17.311491Z,0.14685399999999998,0.841794,1.302675
2019-05-23T04:13:17.351491Z,0.263319,-0.445038,0.7651479999999999
2019-05-23T04:13:17.394491Z,0.254315,-0.47231999999999996,0.772782
2019-05-23T04:13:17.434491Z,0.31459499999999996,-0.738103,0.274702
2019-05-23T04:13:17.472491Z,0.191127,-1.3162989999999999,-0.39623
2019-05-23T04:13:17.512491Z,0.219203,-1.324719,-0.365406
2019-05-23T04:13:17.553491Z,0.155098,-1.191674,-1.087709
2019-05-23T04:13:17.592491Z,0.180581,-0.99474,-0.877323
2019-05-23T04:13:17.634491Z,0.25756599999999996,-0.973943,-0.850384
2019-05-23T04:13:17.671491Z,-0.207644,-0.5235569999999999,-0.8252860000000001
2019-05-23T04:13:17.722491Z,-0.244515,0.31751999999999997,-1.0151059999999998
2019-05-23T04:13:17.750491Z,-0.29831199999999997,0.34067800000000004,-1.026725
2019-05-23T04:13:17.790491Z,-0.9859950000000001,0.796222,-0.18720499999999998
2019-05-23T04:13:17.830491Z,-1.4443350000000001,0.691531,0.595188
2019-05-23T04:13:17.871491Z,-1.460507,0.609648,0.626096
2019-05-23T04:13:17.911491Z,-1.020019,0.457879,0.301149
2019-05-23T04:13:17.954491Z,-1.271255,0.467133,-0.937524
2019-05-23T04:13:17.991491Z,-1.383985,0.607759,-1.026174
2019-05-23T04:13:18.033491Z,-0.806308,-1.280807,2.21956
2019-05-23T04:13:18.090491Z,-0.95229,-1.4096030000000002,1.323236
2019-05-23T04:13:18.111491Z,-0.897436,-1.31428,1.26674
2019-05-23T04:13:18.152491Z,0.42311400000000005,-1.46033,0.444518
2019-05-23T04:13:18.192491Z,0.468135,-1.303895,-0.878922
2019-05-23T04:13:18.233491Z,0.474925,-1.330215,-0.836326
2019-05-23T04:13:18.273491Z,0.397992,-0.403467,-1.3411680000000001
2019-05-23T04:13:18.311491Z,0.049769,-0.19162,-0.14513
2019-05-23T04:13:18.351491Z,0.032986,-0.343764,-0.055561
2019-05-23T04:13:18.391491Z,0.6992109999999999,0.357213,0.45697299999999996
2019-05-23T04:13:18.433491Z,0.6687850000000001,0.43008199999999996,-0.027885000000000004
2019-05-23T04:13:18.472491Z,0.8798239999999999,0.450323,-0.0034590000000000003
2019-05-23T04:13:18.512491Z,0.6314390000000001,0.603049,0.8923629999999999
2019-05-23T04:13:18.553491Z,0.678211,0.810329,0.101686
2019-05-23T04:13:18.594491Z,0.603941,1.0754549999999998,-0.076817
2019-05-23T04:13:18.635491Z,-0.162456,0.73115,0.44293999999999994
2019-05-23T04:13:18.673491Z,0.10708699999999999,-0.91269,1.8890639999999999
2019-05-23T04:13:18.714491Z,-0.028428,-0.900758,1.8327220000000002
2019-05-23T04:13:18.753491Z,-0.232721,-0.827306,-0.239654
2019-05-23T04:13:18.794491Z,0.12852,-1.113516,0.196906
2019-05-23T04:13:18.833491Z,0.161645,-1.145576,0.22847399999999998
2019-05-23T04:13:18.872491Z,-0.122705,-0.9011129999999999,-0.411786
2019-05-23T04:13:18.913491Z,0.047109,-0.49291899999999994,-1.5143440000000001
2019-05-23T04:13:18.953491Z,0.271342,-0.45838999999999996,-1.447558
2019-05-23T04:13:18.992491Z,-0.335409,-0.388849,-1.215758
2019-05-23T04:13:19.032491Z,-1.8878599999999999,-0.5850489999999999,-1.8289799999999998
2019-05-23T04:13:19.101491Z,-1.9613509999999998,-0.567512,-1.830568
2019-05-23T04:13:19.115491Z,-1.362478,-0.8596659999999999,0.318712
2019-05-23T04:13:19.152491Z,-1.647866,-1.15398,1.232683
2019-05-23T04:13:19.192491Z,-1.819818,-1.0577590000000001,1.135541
2019-05-23T04:13:19.232491Z,-1.336892,-1.447461,2.495259
2019-05-23T04:13:19.272491Z,-2.1018830000000004,-1.839721,3.5853800000000002
2019-05-23T04:13:19.313491Z,-2.2044029999999997,-1.934182,3.574058
2019-05-23T04:13:19.353491Z,-2.007259,-2.5041349999999998,1.942663
2019-05-23T04:13:19.393491Z,-1.8462060000000002,-3.577581,0.804994
2019-05-23T04:13:19.466491Z,-1.7882360000000002,-3.5926949999999995,0.8347209999999999
2019-05-23T04:13:19.472491Z,-1.497193,-3.668629,0.18381199999999998
2019-05-23T04:13:19.512491Z,-1.327892,-3.231518,1.6669349999999998
2019-05-23T04:13:19.552491Z,-1.1339620000000001,-3.266455,1.7116209999999998
2019-05-23T04:13:19.592491Z,0.70972,-2.501385,2.619504
2019-05-23T04:13:19.634491Z,0.804329,-2.307848,2.134177
2019-05-23T04:13:19.672491Z,0.977669,-2.3668259999999997,2.195297
2019-05-23T04:13:19.712491Z,1.202346,-2.445042,1.816488
2019-05-23T04:13:19.753491Z,1.115293,-1.979815,0.871862
2019-05-23T04:13:19.792491Z,0.9592280000000001,-2.099766,0.913849
2019-05-23T04:13:19.834491Z,0.824101,-1.618383,0.5313859999999999
2019-05-23T04:13:19.874491Z,1.121777,-1.043205,0.554183
2019-05-23T04:13:19.914491Z,1.07969,-1.070605,0.5676260000000001
2019-05-23T04:13:19.955491Z,0.617677,-1.284233,0.868599
2019-05-23T04:13:19.994491Z,0.906256,-1.206843,0.708741
2019-05-23T04:13:20.036491Z,0.915359,-1.236738,0.7352989999999999
2019-05-23T04:13:20.074491Z,1.123882,-0.729412,0.342756
2019-05-23T04:13:20.114491Z,1.484206,-0.08005,0.5539689999999999
2019-05-23T04:13:20.154491Z,1.39114,-0.12155999999999999,0.558896
2019-05-23T04:13:20.194491Z,1.75545,-0.691403,1.7158689999999999
2019-05-23T04:13:20.236491Z,2.367182,-0.851002,1.6788740000000002
2019-05-23T04:13:20.275491Z,2.386323,-0.879908,1.6928159999999999
2019-05-23T04:13:20.314491Z,2.607758,-0.887956,1.311587
2019-05-23T04:13:20.355491Z,2.581786,-1.148184,0.558611
2019-05-23T04:13:20.395491Z,2.6025549999999997,-1.2122190000000002,0.622627
2019-05-23T04:13:20.434491Z,2.6099069999999998,-1.234805,-0.23541199999999998
2019-05-23T04:13:20.472491Z,2.700498,-0.793905,-0.586715
2019-05-23T04:13:20.513491Z,2.602091,-0.756879,-0.605542
2019-05-23T04:13:20.584491Z,1.9130150000000001,-0.500656,-0.8710620000000001
2019-05-23T04:13:20.600491Z,0.716058,-0.180624,-0.176102
2019-05-23T04:13:20.635491Z,0.543289,-0.161099,-0.21216100000000002
2019-05-23T04:13:20.673491Z,0.38252800000000003,0.337996,0.826442
2019-05-23T04:13:20.714491Z,0.690294,0.6408020000000001,1.328028
2019-05-23T04:13:20.754491Z,0.633003,0.599382,1.321888
2019-05-23T04:13:20.796491Z,0.842139,0.762865,1.433973
2019-05-23T04:13:20.835491Z,0.162929,0.404238,1.476602
2019-05-23T04:13:20.874491Z,0.121778,0.439658,1.4189
2019-05-23T04:13:20.914491Z,-0.435871,-1.365181,1.569299
2019-05-23T04:13:20.953491Z,-0.803272,-1.6288559999999999,-0.328189
2019-05-23T04:13:20.994491Z,-0.98749,-1.591541,-0.34279299999999996
2019-05-23T04:13:21.034491Z,-0.02924,-0.712288,-0.44391800000000003
2019-05-23T04:13:21.074491Z,0.442697,-1.366606,0.009895999999999999
2019-05-23T04:13:21.114491Z,0.462765,-1.3411520000000001,0.00919
2019-05-23T04:13:21.154491Z,0.545513,-0.978353,-0.24925100000000003
2019-05-23T04:13:21.194491Z,0.252287,-0.696237,-0.063194
2019-05-23T04:13:21.255491Z,0.300711,-0.742239,-0.021603
2019-05-23T04:13:21.274491Z,0.973402,-0.573332,0.552072
2019-05-23T04:13:21.314491Z,0.810314,0.215281,0.303744
2019-05-23T04:13:21.354491Z,0.7772399999999999,0.16592200000000001,0.330414
2019-05-23T04:13:21.394491Z,0.799403,0.20759699999999998,1.243759
2019-05-23T04:13:21.436491Z,0.21704,0.383843,0.8873530000000001
2019-05-23T04:13:21.475491Z,0.159996,0.424403,0.838585
2019-05-23T04:13:21.515491Z,0.826666,-0.46242799999999995,2.48877
2019-05-23T04:13:21.554491Z,0.505944,-1.356784,0.627304
2019-05-23T04:13:21.594491Z,0.511598,-1.384931,0.6535529999999999
2019-05-23T04:13:21.693491Z,0.7250909999999999,-1.565256,-0.758444
2019-05-23T04:13:21.694491Z,0.354971,-0.9919969999999999,-0.690176
2019-05-23T04:13:21.726491Z,0.177829,-1.050073,-0.630522
2019-05-23T04:13:21.754491Z,-0.7451220000000001,-1.0565879999999999,-0.073281
2019-05-23T04:13:21.794491Z,-0.14419400000000002,-0.69526,-0.5391239999999999
2019-05-23T04:13:21.836491Z,-0.129002,-0.665053,-0.5438810000000001
2019-05-23T04:13:21.875491Z,-0.669186,-0.5185770000000001,-0.47129899999999997
2019-05-23T04:13:21.915491Z,-0.8440629999999999,-0.439879,0.731934
2019-05-23T04:13:21.955491Z,-0.991798,-0.528129,0.802369
2019-05-23T04:13:21.995491Z,-0.6248090000000001,-0.336828,1.8412810000000002
2019-05-23T04:13:22.061491Z,-0.866189,0.305581,1.605243
2019-05-23T04:13:22.075491Z,-0.82499,0.37222,1.525316
2019-05-23T04:13:22.115491Z,-1.2636969999999998,-0.385804,2.753232
2019-05-23T04:13:22.155491Z,-1.9394169999999997,-1.2040950000000001,1.03193
2019-05-23T04:13:22.195491Z,-1.8625180000000001,-1.086435,0.946786
2019-05-23T04:13:22.238491Z,-1.6582270000000001,-2.037515,0.44149700000000003
2019-05-23T04:13:22.275491Z,-0.685008,-2.619759,0.8549049999999999
2019-05-23T04:13:22.316491Z,-0.527642,-2.5827169999999997,0.8480530000000001
2019-05-23T04:13:22.356491Z,-0.625464,-2.0817900000000003,0.46052200000000004
2019-05-23T04:13:22.396491Z,0.280881,-0.7595930000000001,1.690549
2019-05-23T04:13:22.435491Z,0.539362,-0.9126989999999999,1.7981790000000002
2019-05-23T04:13:22.475491Z,1.0862290000000001,-0.5404720000000001,0.672575
2019-05-23T04:13:22.515491Z,0.734963,-0.739507,0.037475
2019-05-23T04:13:22.557491Z,0.7274649999999999,-0.838017,0.121003
2019-05-23T04:13:22.596491Z,0.341656,-0.675188,-0.243889
2019-05-23T04:13:22.639491Z,0.9838709999999999,-0.02242,0.611122
2019-05-23T04:13:22.677491Z,0.955364,0.007312999999999999,0.5768439999999999
2019-05-23T04:13:22.718491Z,0.092964,-0.029220999999999997,1.0086870000000001
2019-05-23T04:13:22.757491Z,0.42947700000000005,0.167194,0.8636790000000001
2019-05-23T04:13:22.797491Z,0.518613,0.184776,0.8444969999999999
2019-05-23T04:13:22.839491Z,1.158225,-0.830784,1.4145159999999999
2019-05-23T04:13:22.877491Z,0.346001,-0.6716850000000001,-0.011548000000000001
2019-05-23T04:13:22.916491Z,0.46101899999999996,-0.636678,-0.012526
2019-05-23T04:13:22.958491Z,1.045464,-1.268565,0.467
2019-05-23T04:13:22.997491Z,0.624754,-1.097442,-0.589252
2019-05-23T04:13:23.037491Z,0.660456,-1.117389,-0.543778
2019-05-23T04:13:23.078491Z,0.8726280000000001,-0.738388,-0.502087
2019-05-23T04:13:23.115491Z,0.420613,-0.6789930000000001,-1.746176
2019-05-23T04:13:23.173491Z,0.442597,-0.5439930000000001,-1.801767
2019-05-23T04:13:23.205491Z,1.898482,0.943758,-1.099064
2019-05-23T04:13:23.236491Z,0.336855,0.8481799999999999,0.49791199999999997
2019-05-23T04:13:23.276491Z,0.183917,0.7411369999999999,0.526099
2019-05-23T04:13:23.319491Z,-0.155805,0.926076,1.1186909999999999
2019-05-23T04:13:23.356491Z,0.12150999999999999,0.9499559999999999,1.3468790000000002
2019-05-23T04:13:23.397491Z,0.10667,0.881403,1.3607
2019-05-23T04:13:23.436491Z,0.226983,0.879175,0.238819
2019-05-23T04:13:23.476491Z,0.5632659999999999,0.04362,1.30935
2019-05-23T04:13:23.521491Z,0.589314,0.057374,1.2822870000000002
2019-05-23T04:13:23.556491Z,0.586558,-1.2610700000000001,0.7876810000000001
2019-05-23T04:13:23.596491Z,0.970059,-1.259264,0.22177199999999997
2019-05-23T04:13:23.638491Z,0.9694219999999999,-1.234599,0.217612
2019-05-23T04:13:23.676491Z,1.046145,-1.401109,-0.326185
2019-05-23T04:13:23.717491Z,0.709839,-1.05344,-1.0221209999999998
2019-05-23T04:13:23.756491Z,0.611254,-0.989769,-1.046568
2019-05-23T04:13:23.797491Z,0.563617,-0.501948,-0.987425
2019-05-23T04:13:23.839491Z,1.0765799999999999,-0.113125,-0.402832
2019-05-23T04:13:23.877491Z,1.074215,-0.093097,-0.406075
2019-05-23T04:13:23.917491Z,0.510916,0.28416199999999997,0.42986899999999995
2019-05-23T04:13:23.957491Z,0.755063,0.800798,1.868481
2019-05-23T04:13:23.998491Z,0.889792,0.672284,1.9334630000000002
2019-05-23T04:13:24.039491Z,1.246122,0.6360319999999999,1.4168049999999999
2019-05-23T04:13:24.078491Z,0.794331,-0.050362,2.002241
2019-05-23T04:13:24.118491Z,0.972318,-0.243588,2.13954
2019-05-23T04:13:24.158491Z,1.408325,-0.9682569999999999,0.325809
2019-05-23T04:13:24.197491Z,1.198112,-0.9102399999999999,0.229303
2019-05-23T04:13:24.237491Z,1.089334,-0.8799899999999999,0.20158299999999998
2019-05-23T04:13:24.323491Z,1.773423,-0.8713,0.080249
2019-05-23T04:13:24.324491Z,1.306656,-1.40415,0.816149
2019-05-23T04:13:24.359491Z,1.190075,-1.416094,0.819217
2019-05-23T04:13:24.396491Z,1.7462900000000001,-1.0548110000000002,-0.38608600000000004
2019-05-23T04:13:24.437491Z,1.7589549999999998,-0.8932049999999999,-0.672966
2019-05-23T04:13:24.477491Z,1.697719,-0.8463290000000001,-0.6874640000000001
2019-05-23T04:13:24.517491Z,1.803866,-0.134203,0.069223
2019-05-23T04:13:24.557491Z,1.6693380000000002,-0.06807200000000001,1.277306
2019-05-23T04:13:24.597491Z,1.436508,-0.022532,1.215302
2019-05-23T04:13:24.639491Z,2.057729,0.257668,1.408287
2019-05-23T04:13:24.677491Z,2.488132,-0.82396,1.27239
2019-05-23T04:13:24.717491Z,2.44046,-0.7318560000000001,1.1972040000000002
2019-05-23T04:13:24.758491Z,0.9799829999999999,-1.109828,1.382838
2019-05-23T04:13:24.798491Z,0.288773,-1.876261,1.404591
2019-05-23T04:13:24.838491Z,0.227805,-1.779384,1.336873
2019-05-23T04:13:24.878491Z,-0.052775999999999997,-0.8159350000000001,-0.787245
2019-05-23T04:13:24.917491Z,0.809344,-0.459021,-0.09435700000000001
2019-05-23T04:13:24.957491Z,0.759696,-0.375784,-0.13840999999999998
2019-05-23T04:13:24.998491Z,-0.304946,-0.580699,-0.644526
2019-05-23T04:13:25.040491Z,0.143483,0.049491,0.027891000000000003
2019-05-23T04:13:25.078491Z,0.217023,0.026115,0.04142
2019-05-23T04:13:25.117491Z,0.179375,0.158394,0.675671
2019-05-23T04:13:25.158491Z,-0.051875,0.36844499999999997,1.9229189999999998
2019-05-23T04:13:25.197491Z,0.142559,0.294686,1.9389619999999999
2019-05-23T04:13:25.239491Z,-0.061751,-0.123302,1.196542
2019-05-23T04:13:25.278491Z,0.5525939999999999,-0.41183800000000004,2.41188
2019-05-23T04:13:25.318491Z,0.594758,-0.566893,2.482884
2019-05-23T04:13:25.360491Z,0.717134,-1.0959809999999999,-1.120311
2019-05-23T04:13:25.399491Z,1.243999,-1.349237,0.373191
2019-05-23T04:13:25.439491Z,1.260918,-1.3711389999999999,0.398437
2019-05-23T04:13:25.477491Z,1.02034,-1.7378650000000002,0.8406299999999999
2019-05-23T04:13:25.563491Z,0.9299780000000001,-1.128166,-0.542199
2019-05-23T04:13:25.564491Z,0.9524219999999999,-1.1141459999999999,-0.528255
2019-05-23T04:13:25.597491Z,0.659085,-1.08241,-0.12507100000000002
2019-05-23T04:13:25.639491Z,0.89556,-1.368335,0.9591069999999999
2019-05-23T04:13:25.677491Z,0.9271299999999999,-1.394617,0.9806219999999999
2019-05-23T04:13:25.719491Z,0.470458,-1.5243200000000001,0.928264
2019-05-23T04:13:25.760491Z,0.197996,-1.1271,1.2012260000000001
2019-05-23T04:13:25.799491Z,0.12556199999999998,-1.1260270000000001,1.1904299999999999
2019-05-23T04:13:25.841491Z,0.8581709999999999,-0.752053,1.993068
2019-05-23T04:13:25.879491Z,0.828427,-1.527443,1.564653
2019-05-23T04:13:25.927491Z,0.845622,-1.417067,1.480233
2019-05-23T04:13:25.957491Z,0.631797,-1.7653560000000001,1.350951
2019-05-23T04:13:25.999491Z,0.9957940000000001,-2.359619,0.9786040000000001
2019-05-23T04:13:26.040491Z,1.038214,-2.0771450000000002,0.81424
2019-05-23T04:13:26.078491Z,0.800689,-1.491105,-0.928024
2019-05-23T04:13:26.119491Z,0.783155,-1.305774,0.48747299999999993
2019-05-23T04:13:26.159491Z,0.8451219999999999,-1.298227,0.49399499999999996
2019-05-23T04:13:26.199491Z,0.5577439999999999,-0.69526,0.49078299999999997
2019-05-23T04:13:26.241491Z,0.198097,-0.002589,-0.4095
2019-05-23T04:13:26.279491Z,0.21087199999999998,-0.024353,-0.38902800000000004
2019-05-23T04:13:26.319491Z,-0.485885,-0.157208,0.7702260000000001
2019-05-23T04:13:26.361491Z,0.234436,0.128444,1.394239
2019-05-23T04:13:26.400491Z,0.280302,-0.085425,1.5045620000000002
2019-05-23T04:13:26.440491Z,0.715386,-0.5839850000000001,1.5713270000000001
2019-05-23T04:13:26.480491Z,-0.161734,-0.9564159999999999,0.101024
2019-05-23T04:13:26.522491Z,-0.224117,-0.999235,0.127172
2019-05-23T04:13:26.558491Z,-0.23369499999999999,-2.463645,1.397725
2019-05-23T04:13:26.656491Z,-0.03862,-1.532805,-0.08000499999999999
2019-05-23T04:13:26.658491Z,0.008986,-1.387782,-0.142763
2019-05-23T04:13:26.690491Z,-0.239275,-1.38134,0.085664
2019-05-23T04:13:26.719491Z,0.0014529999999999999,-0.82229,-0.51726
2019-05-23T04:13:26.760491Z,-0.014025999999999999,-0.785763,-0.52289
2019-05-23T04:13:26.800491Z,-0.263782,-0.5774739999999999,-1.094666
2019-05-23T04:13:26.839491Z,-0.176984,-0.282529,-0.033063999999999996
2019-05-23T04:13:26.879491Z,-0.188027,-0.344158,0.004188
2019-05-23T04:13:26.919491Z,-0.11038699999999999,0.0944,0.152091
2019-05-23T04:13:26.960491Z,-0.41445299999999996,0.048527,0.692054
2019-05-23T04:13:27.016491Z,-0.499026,-0.086814,0.7544609999999999
2019-05-23T04:13:27.040491Z,-0.43697299999999994,0.127236,1.307374
2019-05-23T04:13:27.080491Z,0.021723,0.519595,0.092581
2019-05-23T04:13:27.120491Z,-0.057063,0.659844,-0.008615000000000001
2019-05-23T04:13:27.161491Z,0.239761,-0.533518,2.571525
2019-05-23T04:13:27.200491Z,-0.27039,-2.125312,1.325038
2019-05-23T04:13:27.242491Z,-0.253857,-2.0297520000000002,1.2685799999999998
2019-05-23T04:13:27.280491Z,-0.16445099999999999,-1.8004369999999998,0.714521
2019-05-23T04:13:27.320491Z,0.486883,-1.39719,-0.296074
2019-05-23T04:13:27.360491Z,0.6129220000000001,-1.180962,-0.381389
2019-05-23T04:13:27.400491Z,0.5779270000000001,-1.026534,-1.538527
2019-05-23T04:13:27.482491Z,-0.038109,-0.992282,-0.8170470000000001
2019-05-23T04:13:27.486491Z,-0.014618,-1.028191,-0.7740199999999999
2019-05-23T04:13:27.522491Z,0.25043899999999997,-0.370235,-0.9444239999999999
2019-05-23T04:13:27.560491Z,0.296987,0.09611499999999999,-0.038341
2019-05-23T04:13:27.599491Z,0.293381,0.15526900000000002,-0.067451
2019-05-23T04:13:27.641491Z,-0.334489,0.068017,0.38238
2019-05-23T04:13:27.691491Z,-0.07750499999999999,0.565375,2.523918
2019-05-23T04:13:27.719491Z,-0.10516800000000001,0.597811,2.457986
2019-05-23T04:13:27.759491Z,-0.650184,0.42800200000000005,0.028852999999999997
2019-05-23T04:13:27.800491Z,0.136546,-1.3604100000000001,2.948759
2019-05-23T04:13:27.840491Z,0.056852,-1.337275,2.895059
2019-05-23T04:13:27.882491Z,-0.400825,-1.617832,1.229671
2019-05-23T04:13:27.921491Z,0.340055,-1.8365919999999998,0.80199
2019-05-23T04:13:27.960491Z,0.392513,-1.839046,0.806429
2019-05-23T04:13:28.001491Z,0.656748,-1.263096,-1.514499
2019-05-23T04:13:28.065491Z,0.686561,-0.698389,-2.260904
2019-05-23T04:13:28.081491Z,0.574979,-0.679253,-2.2300169999999997
2019-05-23T04:13:28.121491Z,0.19286099999999998,-0.620821,-0.665944
2019-05-23T04:13:28.160491Z,0.045982999999999996,0.014252,0.8589
2019-05-23T04:13:28.200491Z,0.090046,-0.024662,0.863856
2019-05-23T04:13:28.241491Z,0.049773000000000005,0.307744,0.8566950000000001
2019-05-23T04:13:28.281491Z,-0.090918,0.329841,1.597343
2019-05-23T04:13:28.321491Z,0.062062,0.24491500000000002,1.613544
2019-05-23T04:13:28.361491Z,-0.26521999999999996,0.080592,1.241543
2019-05-23T04:13:28.400491Z,-0.482126,-0.288454,0.991524
2019-05-23T04:13:28.444491Z,-0.544503,-0.35242399999999996,1.0074530000000002
2019-05-23T04:13:28.482491Z,0.095914,-1.951186,1.6895229999999999
2019-05-23T04:13:28.522491Z,0.029110000000000004,-1.5388819999999999,0.134258
2019-05-23T04:13:28.561491Z,0.0018679999999999999,-1.554368,0.151475
2019-05-23T04:13:28.601491Z,0.799908,-1.316535,-0.037229000000000005
2019-05-23T04:13:28.645491Z,0.8939590000000001,-1.183151,-1.266317
2019-05-23T04:13:28.682491Z,0.976851,-1.1803379999999999,-1.233203
2019-05-23T04:13:28.720491Z,0.7507199999999999,-0.721834,-1.474977
2019-05-23T04:13:28.761491Z,0.671176,-0.640173,-0.6076090000000001
2019-05-23T04:13:28.840491Z,0.582809,-0.789044,-0.515729
2019-05-23T04:13:28.861491Z,1.248204,-0.41824399999999995,0.705244
2019-05-23T04:13:28.881491Z,1.506176,-0.03656,0.580325
2019-05-23T04:13:28.920491Z,1.5456940000000001,-0.074685,0.591862
2019-05-23T04:13:28.962491Z,1.7699029999999998,0.026447000000000002,1.302624
2019-05-23T04:13:29.001491Z,1.5563639999999999,-0.610462,1.9522130000000002
2019-05-23T04:13:29.043491Z,1.607106,-0.613725,1.9239560000000002
2019-05-23T04:13:29.081491Z,2.420692,-1.324378,1.666677
2019-05-23T04:13:29.121491Z,2.52812,-0.987044,0.114041
2019-05-23T04:13:29.162491Z,2.395607,-0.997848,0.13025799999999998
2019-05-23T04:13:29.222491Z,1.959025,-1.352962,0.015184
2019-05-23T04:13:29.244491Z,1.438944,-1.6464009999999998,-0.100779
2019-05-23T04:13:29.282491Z,1.512218,-1.5941040000000002,-0.118151
2019-05-23T04:13:29.322491Z,1.023285,-1.02597,-0.7542979999999999
2019-05-23T04:13:29.361491Z,0.504599,-0.891631,-0.117998
2019-05-23T04:13:29.401491Z,0.5326770000000001,-0.905592,-0.10326199999999999
2019-05-23T04:13:29.442491Z,-0.066596,-0.11941500000000001,0.19805
2019-05-23T04:13:29.482491Z,-0.289622,0.882682,0.24539499999999997
2019-05-23T04:13:29.522491Z,-0.31353400000000003,0.803655,0.275982
2019-05-23T04:13:29.561491Z,0.463581,1.140907,0.874374
2019-05-23T04:13:29.602491Z,0.406579,0.14743,1.451573
2019-05-23T04:13:29.645491Z,0.538542,0.022156,1.494361
2019-05-23T04:13:29.684491Z,0.463084,-0.302379,1.618632
2019-05-23T04:13:29.723491Z,0.103772,-1.458312,1.748841
2019-05-23T04:13:29.763491Z,0.20579499999999998,-1.4192,1.710906
2019-05-23T04:13:29.804491Z,-0.669728,-1.7868700000000002,-0.37041999999999997
2019-05-23T04:13:29.844491Z,0.18682,-2.498414,0.811359
2019-05-23T04:13:29.883491Z,0.29644499999999996,-2.449576,0.796519
2019-05-23T04:13:29.923491Z,0.179471,-2.3851150000000003,0.6261140000000001
2019-05-23T04:13:29.963491Z,0.572333,-1.8333509999999997,0.45696499999999995
2019-05-23T04:13:30.001491Z,0.611766,-1.8640150000000002,0.49091999999999997
2019-05-23T04:13:30.078491Z,0.768062,-1.220688,-0.930632
2019-05-23T04:13:30.090491Z,1.194417,-1.119812,-0.291085
2019-05-23T04:13:30.122491Z,1.076467,-1.208417,-0.229559
2019-05-23T04:13:30.162491Z,0.708779,-1.681945,1.788107
2019-05-23T04:13:30.203491Z,1.9647299999999999,-1.8878119999999998,1.6938380000000002
2019-05-23T04:13:30.244491Z,2.0293959999999998,-1.8951310000000001,1.697491
2019-05-23T04:13:30.284491Z,2.4765029999999997,-2.0819360000000002,2.193363
2019-05-23T04:13:30.322491Z,1.8830040000000001,-2.556477,3.4318980000000003
2019-05-23T04:13:30.363491Z,1.8642580000000002,-2.400786,3.305946
2019-05-23T04:13:30.403491Z,1.448402,-2.525076,2.3485669999999996
2019-05-23T04:13:30.463491Z,3.050496,-0.695195,1.83912
2019-05-23T04:13:30.483491Z,3.047837,-0.689882,1.813277
2019-05-23T04:13:30.522491Z,3.063471,-1.7501639999999998,-0.052923000000000005
2019-05-23T04:13:30.563491Z,1.5929879999999998,-2.71502,-0.639654
2019-05-23T04:13:30.602491Z,1.539773,-2.630473,-0.65261
2019-05-23T04:13:30.643491Z,-0.058931,-2.153207,-1.062936
2019-05-23T04:13:30.682491Z,-0.210064,-1.1912909999999999,0.10313
2019-05-23T04:13:30.723491Z,-0.336327,-1.115041,0.073799
2019-05-23T04:13:30.763491Z,0.150057,-0.366205,0.819037
2019-05-23T04:13:30.803491Z,0.18429,-0.43195100000000003,0.832951
2019-05-23T04:13:30.846491Z,0.303712,-0.40168899999999996,0.806725
2019-05-23T04:13:30.884491Z,-0.14685299999999998,-0.7247,0.45481099999999997
2019-05-23T04:13:30.925491Z,-0.36825399999999997,-0.9115559999999999,0.324627
2019-05-23T04:13:30.964491Z,-0.255,-0.998022,0.376008
2019-05-23T04:13:31.004491Z,-0.193147,-0.527058,0.5486989999999999
2019-05-23T04:13:31.045491Z,-0.408379,-0.251888,0.9402860000000001
2019-05-23T04:13:31.084491Z,-0.283815,-0.20152899999999999,0.907285
2019-05-23T04:13:31.123491Z,0.038892,-1.226307,1.770425
2019-05-23T04:13:31.164491Z,-0.355667,-0.872611,-0.389892
2019-05-23T04:13:31.205491Z,-0.44907700000000006,-0.841915,-0.39673
2019-05-23T04:13:31.245491Z,-0.049921,-1.30425,0.712966
2019-05-23T04:13:31.284491Z,0.19915,-1.262204,0.038448
2019-05-23T04:13:31.325491Z,0.24321900000000002,-1.247107,0.044541000000000004
2019-05-23T04:13:31.364491Z,0.410426,-0.919166,-0.369554
2019-05-23T04:13:31.406491Z,0.8316319999999999,-0.773679,0.0028120000000000003
2019-05-23T04:13:31.444491Z,0.809077,-0.799199,0.020768000000000002
2019-05-23T04:13:31.485491Z,0.923572,-0.741492,0.81037
2019-05-23T04:13:31.526491Z,1.208148,-0.951578,1.921334
2019-05-23T04:13:31.564491Z,1.253208,-1.009757,1.9326310000000002
2019-05-23T04:13:31.605491Z,1.139543,-0.8825850000000001,0.966519
2019-05-23T04:13:31.647491Z,1.115065,-0.957367,1.242298
2019-05-23T04:13:31.684491Z,1.1068639999999998,-1.013196,1.2573889999999999
2019-05-23T04:13:31.726491Z,1.1889129999999999,-1.172061,1.177821
2019-05-23T04:13:31.765491Z,1.2568549999999998,-0.744926,-0.722795
2019-05-23T04:13:31.805491Z,1.209418,-0.690254,-0.733118
2019-05-23T04:13:31.848491Z,1.296067,-0.787723,-0.447183
2019-05-23T04:13:31.885491Z,0.718891,-0.682755,-0.023646
2019-05-23T04:13:31.926491Z,0.6745399999999999,-0.656513,-0.031760000000000004
2019-05-23T04:13:31.964491Z,0.809511,-0.472038,-0.046535
2019-05-23T04:13:32.006491Z,0.6250680000000001,-0.32700300000000004,-0.10968399999999999
2019-05-23T04:13:32.059491Z,0.623123,-0.292997,-0.12087
2019-05-23T04:13:32.083491Z,0.158944,-0.498767,0.30454899999999996
2019-05-23T04:13:32.123491Z,0.117797,-0.69947,1.670596
2019-05-23T04:13:32.165491Z,0.18006,-0.8123819999999999,1.709383
2019-05-23T04:13:32.206491Z,0.11430499999999999,-0.472138,0.332424
2019-05-23T04:13:32.244491Z,-0.184291,-0.682647,0.670196
2019-05-23T04:13:32.284491Z,-0.156304,-0.6479199999999999,0.648544
2019-05-23T04:13:32.324491Z,-0.580071,-1.157234,0.816574
2019-05-23T04:13:32.365491Z,-0.559575,-0.935112,-0.226834
2019-05-23T04:13:32.404491Z,-0.5908640000000001,-0.8854870000000001,-0.243033
2019-05-23T04:13:32.446491Z,-0.640338,-0.532826,-0.776104
2019-05-23T04:13:32.485491Z,-0.03601,-0.899148,0.09527999999999999
2019-05-23T04:13:32.526491Z,0.040374,-0.8806209999999999,0.097893
2019-05-23T04:13:32.565491Z,-0.3321,-0.719569,-0.5478310000000001
2019-05-23T04:13:32.604491Z,-0.096885,-0.410606,-0.256927
2019-05-23T04:13:32.644491Z,-0.085823,-0.420472,-0.243829
2019-05-23T04:13:32.686491Z,0.05017,-0.590294,0.400534
2019-05-23T04:13:32.725491Z,0.34533800000000003,-0.492536,0.843102
2019-05-23T04:13:32.764491Z,0.356771,-0.655301,0.918925
2019-05-23T04:13:32.805491Z,0.493041,-0.32798499999999997,1.576436
2019-05-23T04:13:32.849491Z,0.623884,0.317248,0.464942
2019-05-23T04:13:32.886491Z,0.5771310000000001,0.432662,0.391776
2019-05-23T04:13:32.926491Z,0.16731,-0.54119,1.121324
2019-05-23T04:13:32.966491Z,0.5991609999999999,-0.8894120000000001,0.7529899999999999
2019-05-23T04:13:33.006491Z,0.575322,-0.7499359999999999,0.6795859999999999
2019-05-23T04:13:33.049491Z,1.026841,-0.615143,-0.542856
2019-05-23T04:13:33.085491Z,0.9675799999999999,-0.634369,0.032686
2019-05-23T04:13:33.126491Z,0.978849,-0.600382,0.023129
2019-05-23T04:13:33.166491Z,0.9518780000000001,-0.5211100000000001,-0.062648
2019-05-23T04:13:33.207491Z,1.032071,-0.304417,-0.266689
2019-05-23T04:13:33.249491Z,1.072632,-0.356134,-0.23581799999999997
2019-05-23T04:13:33.286491Z,0.988276,-0.465337,-0.033644
2019-05-23T04:13:33.326491Z,0.742751,-0.391856,0.328675
2019-05-23T04:13:33.366491Z,0.7476010000000001,-0.486883,0.372222
2019-05-23T04:13:33.404491Z,0.744937,-0.14786,-0.395367
2019-05-23T04:13:33.521491Z,0.8731559999999999,0.404428,-0.502692
2019-05-23T04:13:33.522491Z,0.7679600000000001,0.44235699999999994,-0.518282
2019-05-23T04:13:33.539491Z,0.816331,0.43094,0.35603
2019-05-23T04:13:33.565491Z,0.888926,0.164423,0.755731
2019-05-23T04:13:33.604491Z,0.864516,0.292362,0.684768
2019-05-23T04:13:33.645491Z,0.565168,0.18177000000000001,-0.240092
2019-05-23T04:13:33.715491Z,1.861591,-0.9625799999999999,2.470432
2019-05-23T04:13:33.725491Z,2.108189,-1.021073,2.454407
2019-05-23T04:13:33.765491Z,1.984825,-1.784615,0.622616
2019-05-23T04:13:33.805491Z,1.833647,-1.308614,-0.156169
2019-05-23T04:13:33.848491Z,1.8528799999999999,-1.281217,-0.15598499999999998
2019-05-23T04:13:33.899491Z,1.7014880000000001,-2.1160259999999997,1.095357
2019-05-23T04:13:33.926491Z,1.2794290000000001,-1.5452540000000001,0.163898
2019-05-23T04:13:33.966491Z,1.345227,-1.5352700000000001,0.169938
2019-05-23T04:13:34.005491Z,0.612535,-1.209742,-0.22808
2019-05-23T04:13:34.047491Z,-0.101829,-1.349429,0.12151400000000001
2019-05-23T04:13:34.086491Z,-0.075476,-1.322985,0.118629
2019-05-23T04:13:34.126491Z,-0.224766,-1.185116,0.403424
2019-05-23T04:13:34.166491Z,-0.574876,-0.785125,-0.012736
2019-05-23T04:13:34.206491Z,-0.589276,-0.7454390000000001,-0.023191
2019-05-23T04:13:34.246491Z,-0.739761,-0.574336,0.003173
2019-05-23T04:13:34.287491Z,-0.909904,-0.398069,0.053547000000000004
2019-05-23T04:13:34.328491Z,-0.954249,-0.47473000000000004,0.082539
2019-05-23T04:13:34.367491Z,-0.940268,-0.324536,0.606459
2019-05-23T04:13:34.407491Z,-1.038749,-0.457301,0.326309
2019-05-23T04:13:34.448491Z,-1.016835,-0.372216,0.29280500000000004
2019-05-23T04:13:34.486491Z,-0.9456129999999999,-1.019123,0.7009029999999999
2019-05-23T04:13:34.527491Z,-0.32505700000000004,-1.334395,0.586561
2019-05-23T04:13:34.567491Z,-0.285202,-1.355692,0.593812
2019-05-23T04:13:34.606491Z,0.156755,-1.290778,0.20758200000000002
2019-05-23T04:13:34.649491Z,0.078486,-0.967766,-0.034980000000000004
2019-05-23T04:13:34.688491Z,0.095794,-0.936942,-0.038505000000000005
2019-05-23T04:13:34.728491Z,-0.10781800000000001,-1.122359,0.16961600000000002
2019-05-23T04:13:34.767491Z,-0.185949,-1.0721690000000001,0.344381
2019-05-23T04:13:34.807491Z,-0.204072,-1.0173299999999998,0.325087
2019-05-23T04:13:34.849491Z,-0.368671,-0.709383,0.280697
2019-05-23T04:13:34.888491Z,-0.357281,-0.745875,0.565154
2019-05-23T04:13:34.928491Z,-0.379748,-0.642383,0.527227
2019-05-23T04:13:34.969491Z,-0.296694,-0.667417,0.717615
2019-05-23T04:13:35.007491Z,-0.364944,-0.553347,0.358079
2019-05-23T04:13:35.050491Z,-0.462556,-0.537724,0.347582
2019-05-23T04:13:35.088491Z,-0.169504,-0.469858,0.291283
2019-05-23T04:13:35.128491Z,0.032414,-0.479396,0.087411
2019-05-23T04:13:35.168491Z,-0.070361,-0.425274,0.073168
2019-05-23T04:13:35.208491Z,-0.14535499999999998,-0.497015,0.26707600000000004
2019-05-23T04:13:35.251491Z,-0.168265,-0.552711,0.062944
2019-05-23T04:13:35.288491Z,-0.301492,-0.589961,0.078388
2019-05-23T04:13:35.329491Z,-0.203052,-0.460215,0.118807
2019-05-23T04:13:35.368491Z,0.13334300000000002,-0.439478,0.09106
2019-05-23T04:13:35.409491Z,0.10348099999999999,-0.43292700000000006,0.091153
2019-05-23T04:13:35.456491Z,0.043883,-0.358977,-0.073641
2019-05-23T04:13:35.487491Z,0.295948,-0.292877,0.21491100000000002
2019-05-23T04:13:35.527491Z,0.277404,-0.27819299999999997,0.20964699999999997
2019-05-23T04:13:35.567491Z,0.47803999999999996,-0.128804,0.143652
2019-05-23T04:13:35.607491Z,0.455092,-0.038665,0.225766
2019-05-23T04:13:35.647491Z,0.50743,-0.0006730000000000001,0.208458
2019-05-23T04:13:35.687491Z,0.480126,-0.036613,0.392432
2019-05-23T04:13:35.727491Z,0.381917,0.121938,0.10334000000000002
2019-05-23T04:13:35.767491Z,0.366217,0.12389800000000001,0.101191
2019-05-23T04:13:35.808491Z,0.318713,0.271433,-0.344466
2019-05-23T04:13:35.849491Z,0.10656800000000001,0.09346900000000001,-0.243348
2019-05-23T04:13:35.887491Z,0.075593,0.048438,-0.22643899999999997
2019-05-23T04:13:35.928491Z,-0.227535,0.334633,-0.11861500000000001
2019-05-23T04:13:35.969491Z,0.159994,0.762309,0.153131
2019-05-23T04:13:36.008491Z,0.142426,0.64837,0.181329
2019-05-23T04:13:36.049491Z,0.010584999999999999,0.7866609999999999,0.25955100000000003
2019-05-23T04:13:36.088491Z,0.255196,0.35339699999999996,0.842706
2019-05-23T04:13:36.128491Z,0.293905,0.172603,0.88876
2019-05-23T04:13:36.168491Z,0.350182,0.021774,0.302535
2019-05-23T04:13:36.210491Z,0.304107,-0.499255,-0.059489
2019-05-23T04:13:36.251491Z,0.345987,-0.562141,-0.032337
2019-05-23T04:13:36.289491Z,-0.027689,-0.865028,0.127076
2019-05-23T04:13:36.328491Z,-0.030367,-0.9522010000000001,0.336042
2019-05-23T04:13:36.369491Z,0.066063,-0.9413879999999999,0.329277
2019-05-23T04:13:36.410491Z,0.203693,-0.8383649999999999,0.521297
2019-05-23T04:13:36.449491Z,0.400828,-0.34682199999999996,-0.614499
2019-05-23T04:13:36.489491Z,0.448684,-0.40631,-0.577437
2019-05-23T04:13:36.530491Z,0.609935,0.064359,-0.767722
2019-05-23T04:13:36.569491Z,0.36691599999999996,-0.094794,-1.082463
2019-05-23T04:13:36.609491Z,0.386793,-0.08881900000000001,-1.065966
2019-05-23T04:13:36.649491Z,0.131275,-0.174006,-0.552308
2019-05-23T04:13:36.690491Z,0.114325,-0.345767,-0.014583
2019-05-23T04:13:36.730491Z,0.06362000000000001,-0.388019,0.006101
2019-05-23T04:13:36.771491Z,0.200794,-0.325316,0.738559
2019-05-23T04:13:36.810491Z,0.36052199999999995,0.457697,0.091781
2019-05-23T04:13:36.849491Z,0.327413,0.520161,0.059352999999999996
2019-05-23T04:13:36.889491Z,-0.015226,0.446797,-0.341428
2019-05-23T04:13:36.930491Z,-0.353509,-0.815467,1.3192540000000001
2019-05-23T04:13:36.970491Z,-0.3597,-0.787303,1.291408
2019-05-23T04:13:37.009491Z,-0.9695219999999999,-0.9170159999999999,0.636898
2019-05-23T04:13:37.052491Z,-0.20133,-0.9194540000000001,0.717497
2019-05-23T04:13:37.088491Z,-0.209941,-0.896847,0.702873
2019-05-23T04:13:37.128491Z,0.046977,-0.7409859999999999,0.068357
2019-05-23T04:13:37.169491Z,0.048534,-1.084514,0.213538
2019-05-23T04:13:37.208491Z,0.059734,-1.06978,0.211069
2019-05-23T04:13:37.250491Z,-0.041132,-0.7711399999999999,-0.070301
2019-05-23T04:13:37.289491Z,-0.046157,-0.736639,0.38050500000000004
2019-05-23T04:13:37.330491Z,-0.145169,-0.7319760000000001,0.380735
2019-05-23T04:13:37.371491Z,0.010828,-0.689996,0.43604899999999996
2019-05-23T04:13:37.410491Z,0.31808400000000003,-0.477733,0.41093500000000005
2019-05-23T04:13:37.452491Z,0.308701,-0.450349,0.39664099999999997
2019-05-23T04:13:37.491491Z,0.387794,-0.11096500000000001,0.273187
2019-05-23T04:13:37.532491Z,0.086158,-0.301454,0.298498
2019-05-23T04:13:37.570491Z,0.045086,-0.296984,0.296212
2019-05-23T04:13:37.610491Z,0.226194,-0.5377,0.39413899999999996
2019-05-23T04:13:37.653491Z,0.008339,-0.417857,0.134404
2019-05-23T04:13:37.690491Z,-0.04659,-0.44782799999999995,0.15088900000000002
2019-05-23T04:13:37.731491Z,0.355878,-0.192144,0.13352
2019-05-23T04:13:37.771491Z,0.049907,-0.147204,0.068636
2019-05-23T04:13:37.811491Z,0.072115,-0.16028399999999998,0.071752
2019-05-23T04:13:37.854491Z,0.019698,-0.019681999999999998,-0.364206
2019-05-23T04:13:37.892491Z,0.09623999999999999,-0.08504400000000001,-0.186789
2019-05-23T04:13:37.933491Z,0.12437100000000001,-0.1367,-0.16430999999999998
2019-05-23T04:13:37.971491Z,-0.027408999999999996,-0.25104,0.039519
2019-05-23T04:13:38.012491Z,-0.08079700000000001,-0.043715,-0.254156
2019-05-23T04:13:38.053491Z,0.012121,-0.031669,-0.26013200000000003
2019-05-23T04:13:38.090491Z,-0.082014,0.075196,-0.32301399999999997
2019-05-23T04:13:38.129491Z,-0.089479,0.20282999999999998,-0.26755
2019-05-23T04:13:38.170491Z,-0.080789,0.22012800000000002,-0.271914
2019-05-23T04:13:38.209491Z,-0.324613,-0.047162,-0.09725700000000001
2019-05-23T04:13:38.280491Z,-0.016406999999999998,0.31604099999999996,0.09865
2019-05-23T04:13:38.297491Z,-0.00761,0.36188200000000004,0.076183
2019-05-23T04:13:38.331491Z,-0.322853,0.338659,-0.16273900000000002
2019-05-23T04:13:38.369491Z,-0.154089,0.27018400000000004,-0.137403
2019-05-23T04:13:38.409491Z,-0.192626,0.288059,-0.142233
2019-05-23T04:13:38.450491Z,-0.209213,0.293626,-0.32516999999999996
2019-05-23T04:13:38.490491Z,0.079069,0.40003099999999997,-0.356658
2019-05-23T04:13:38.530491Z,0.09500399999999999,0.44832299999999997,-0.37304699999999996
2019-05-23T04:13:38.571491Z,-0.016219,0.647601,-0.8104640000000001
2019-05-23T04:13:38.610491Z,-0.363693,0.946892,-0.813669
2019-05-23T04:13:38.674491Z,-0.409026,1.0063090000000001,-0.8251629999999999
2019-05-23T04:13:38.691491Z,-0.040487,1.1543729999999999,-0.160141
2019-05-23T04:13:38.731491Z,-0.134713,1.190577,-0.210892
2019-05-23T04:13:38.771491Z,-0.171374,1.1781110000000001,-0.207669
2019-05-23T04:13:38.809491Z,-0.151317,0.9265399999999999,-0.209132
2019-05-23T04:13:38.851491Z,-0.217241,0.793772,0.14743900000000001
2019-05-23T04:13:38.889491Z,-0.215669,0.655358,0.192466
2019-05-23T04:13:38.930491Z,0.039488999999999996,0.690811,0.50542
2019-05-23T04:13:38.970491Z,0.060080999999999996,0.500001,0.31042600000000004
2019-05-23T04:13:39.010491Z,0.28113299999999997,0.452169,0.314985
2019-05-23T04:13:39.052491Z,-0.049826999999999996,0.512786,-0.183171
2019-05-23T04:13:39.091491Z,0.08253200000000001,-0.204945,0.978331
2019-05-23T04:13:39.130491Z,0.166492,-0.148094,0.9384809999999999
2019-05-23T04:13:39.170491Z,-0.40771799999999997,-0.720724,0.43515299999999996
2019-05-23T04:13:39.210491Z,-0.195848,-0.646217,0.117346
2019-05-23T04:13:39.252491Z,-0.250655,-0.656267,0.124207
2019-05-23T04:13:39.291491Z,-0.298653,-0.39800599999999997,-0.636156
2019-05-23T04:13:39.331491Z,-0.129098,-0.34171799999999997,-0.845299
2019-05-23T04:13:39.371491Z,-0.055938999999999996,-0.24051799999999998,-0.868871
2019-05-23T04:13:39.411491Z,-0.084564,-0.033339999999999995,-0.747799
2019-05-23T04:13:39.453491Z,-0.165122,0.242954,-1.055499
2019-05-23T04:13:39.492491Z,-0.167225,0.333925,-1.07333
2019-05-23T04:13:39.530491Z,0.055220000000000005,0.671396,-0.841141
2019-05-23T04:13:39.631491Z,-0.12163399999999999,0.606745,-0.36478299999999997
2019-05-23T04:13:39.633491Z,-0.16323,0.512781,-0.328899
2019-05-23T04:13:39.667491Z,0.205646,0.627237,1.031333
2019-05-23T04:13:39.690491Z,-0.13827,0.544979,1.011352
2019-05-23T04:13:39.730491Z,-0.18224400000000002,0.552556,0.988309
2019-05-23T04:13:39.770491Z,-0.401548,-0.042758,0.069346
2019-05-23T04:13:39.811491Z,0.015565,-0.927776,1.145982
2019-05-23T04:13:39.852491Z,-0.11543800000000001,-0.88841,1.1274389999999999
2019-05-23T04:13:39.891491Z,0.363501,-1.2464600000000001,1.0468629999999999
2019-05-23T04:13:39.932491Z,0.48576800000000003,-0.629038,-0.540419
2019-05-23T04:13:39.992491Z,0.350186,-0.578499,-0.532922
2019-05-23T04:13:40.011491Z,0.38813800000000004,-0.339084,-0.642556
2019-05-23T04:13:40.051491Z,0.328964,-0.18720699999999998,-0.44133100000000003
2019-05-23T04:13:40.091491Z,0.19703900000000002,-0.21129499999999998,-0.407085
2019-05-23T04:13:40.131491Z,0.314689,-0.10250999999999999,-0.189652
2019-05-23T04:13:40.171491Z,0.496385,0.051966,-0.311266
2019-05-23T04:13:40.212491Z,0.485917,0.032469,-0.299373
2019-05-23T04:13:40.252491Z,0.312002,-0.028804000000000003,-0.578887
2019-05-23T04:13:40.292491Z,1.15296,0.634731,-0.011909000000000001
2019-05-23T04:13:40.334491Z,1.157455,0.632128,-0.018692
2019-05-23T04:13:40.370491Z,0.294101,0.747492,-0.6029329999999999
2019-05-23T04:13:40.416491Z,0.457794,0.11266300000000001,0.701112
2019-05-23T04:13:40.452491Z,0.49121400000000004,0.10374100000000001,0.686318
2019-05-23T04:13:40.492491Z,0.204408,0.634051,1.4241270000000001
2019-05-23T04:13:40.534491Z,-0.31456300000000004,0.126002,1.000461
2019-05-23T04:13:40.571491Z,-0.25014899999999995,0.178695,0.959181
2019-05-23T04:13:40.610491Z,0.06437000000000001,-0.780838,1.17205
2019-05-23T04:13:40.651491Z,-0.255683,-0.707557,-0.393554
2019-05-23T04:13:40.692491Z,-0.266467,-0.725218,-0.376208
2019-05-23T04:13:40.731491Z,-0.5234340000000001,-0.527936,-0.31216
2019-05-23T04:13:40.772491Z,-0.696214,-0.80156,-0.14264100000000002
2019-05-23T04:13:40.812491Z,-0.6176520000000001,-0.819399,-0.139138
2019-05-23T04:13:40.853491Z,0.518467,-0.388229,0.088646
2019-05-23T04:13:40.891491Z,0.186921,0.204569,-1.383137
2019-05-23T04:13:40.931491Z,0.401489,0.359775,-1.416368
2019-05-23T04:13:40.971491Z,0.093348,0.426836,-0.625395
2019-05-23T04:13:41.012491Z,0.08904,0.11755399999999999,-0.34751
2019-05-23T04:13:41.053491Z,0.265282,-0.047002999999999996,-0.296579
2019-05-23T04:13:41.094491Z,0.6567850000000001,-0.12187100000000001,0.394023
2019-05-23T04:13:41.131491Z,-0.150897,0.40269699999999997,0.302338
2019-05-23T04:13:41.172491Z,-0.21009499999999998,0.27048,0.335406
2019-05-23T04:13:41.212491Z,-0.057116,0.222662,0.182036
2019-05-23T04:13:41.254491Z,-0.195998,0.27684200000000003,0.538738
2019-05-23T04:13:41.292491Z,-0.298269,0.406931,0.486907
2019-05-23T04:13:41.332491Z,-0.6985899999999999,-0.556316,1.333584
2019-05-23T04:13:41.372491Z,0.034155,-1.061016,1.509557
2019-05-23T04:13:41.412491Z,0.029327999999999996,-1.089777,1.498591
2019-05-23T04:13:41.453491Z,1.259668,-0.84288,-0.39656199999999997
2019-05-23T04:13:41.494491Z,0.476329,-0.549415,-0.281079
2019-05-23T04:13:41.534491Z,0.467146,-0.50344,-0.287487
2019-05-23T04:13:41.573491Z,-0.13758499999999999,-0.38063600000000003,-0.336541
2019-05-23T04:13:41.612491Z,0.153928,-0.027373,-0.12488699999999998
2019-05-23T04:13:41.655491Z,0.080093,0.005195,-0.128848
2019-05-23T04:13:41.692491Z,0.373786,0.268404,-0.870941
2019-05-23T04:13:41.732491Z,0.13958800000000002,0.3926,-0.9540219999999999
2019-05-23T04:13:41.801491Z,0.124644,0.37396399999999996,-0.934426
2019-05-23T04:13:41.815491Z,0.256481,0.375411,-0.332855
2019-05-23T04:13:41.853491Z,-0.569112,0.8974719999999999,-0.30597399999999997
2019-05-23T04:13:41.892491Z,-0.602514,0.963484,-0.319096
2019-05-23T04:13:41.933491Z,0.7705649999999999,0.820414,-0.259261
2019-05-23T04:13:41.972491Z,0.410189,0.917125,0.030187000000000002
2019-05-23T04:13:42.013491Z,0.562699,0.924625,0.01652
2019-05-23T04:13:42.053491Z,0.49205699999999997,0.8404200000000001,0.240337
2019-05-23T04:13:42.093491Z,1.073395,0.090461,1.526856
2019-05-23T04:13:42.133491Z,1.089569,-0.26063000000000003,1.61281
2019-05-23T04:13:42.176491Z,-0.390785,-0.26202800000000004,0.43620200000000003
2019-05-23T04:13:42.213491Z,-0.767146,-0.512835,1.019261
2019-05-23T04:13:42.254491Z,-0.757279,-0.538111,1.012718
2019-05-23T04:13:42.293491Z,-0.34267600000000004,-0.8677969999999999,0.485375
2019-05-23T04:13:42.334491Z,-0.45043500000000003,-0.49018999999999996,-1.015321
2019-05-23T04:13:42.374491Z,-0.499515,-0.416141,-1.018074
2019-05-23T04:13:42.414491Z,-0.329376,-0.509054,-0.012333
2019-05-23T04:13:42.453491Z,0.166284,-0.56467,-0.033424
2019-05-23T04:13:42.494491Z,0.273012,-0.518888,-0.04269
2019-05-23T04:13:42.534491Z,0.34713499999999997,-0.123188,-0.443827
2019-05-23T04:13:42.573491Z,-0.136732,-0.004454,-1.0963370000000001
2019-05-23T04:13:42.613491Z,-0.04919,0.066024,-1.0949229999999999
2019-05-23T04:13:42.691491Z,-0.180508,0.559665,-0.8851120000000001
2019-05-23T04:13:42.709491Z,-1.1316190000000002,0.131351,0.020825
2019-05-23T04:13:42.735491Z,-1.2669059999999999,0.119401,0.021955000000000002
2019-05-23T04:13:42.773491Z,-0.84724,0.813895,0.368872
2019-05-23T04:13:42.813491Z,-0.665108,0.465649,0.334964
2019-05-23T04:13:42.855491Z,-0.756559,0.38519000000000003,0.352027
2019-05-23T04:13:42.894491Z,-0.69984,0.179121,-0.014277000000000001
2019-05-23T04:13:42.935491Z,-0.877632,-0.110674,0.45948
2019-05-23T04:13:42.974491Z,-0.8554930000000001,-0.14038699999999998,0.461483
2019-05-23T04:13:43.014491Z,-1.423193,-0.44153000000000003,0.5049100000000001
2019-05-23T04:13:43.074491Z,-1.5957290000000002,-0.9455450000000001,1.5253079999999999
2019-05-23T04:13:43.093491Z,-1.517074,-0.985183,1.515275
2019-05-23T04:13:43.165491Z,-0.9078430000000001,-0.9873120000000001,-0.017787999999999998
2019-05-23T04:13:43.174491Z,-1.196513,-0.945376,-0.509968
2019-05-23T04:13:43.217491Z,-1.149735,-0.9483889999999999,-0.49597399999999997
2019-05-23T04:13:43.255491Z,-0.8431120000000001,-1.114299,-0.225477
2019-05-23T04:13:43.294491Z,-0.167742,-0.957342,-0.02858
2019-05-23T04:13:43.334491Z,-0.07183300000000001,-0.8074,-0.068192
2019-05-23T04:13:43.375491Z,-0.036114,-0.282762,-0.665565
2019-05-23T04:13:43.414491Z,-0.36215,-0.217033,-0.13990999999999998
2019-05-23T04:13:43.455491Z,-0.323101,-0.081118,-0.16861800000000002
2019-05-23T04:13:43.493491Z,0.440683,-0.22570700000000002,-0.207164
2019-05-23T04:13:43.536491Z,1.025699,-0.006666,-0.188936
2019-05-23T04:13:43.574491Z,1.040093,-0.116417,-0.160692
2019-05-23T04:13:43.617491Z,2.021627,0.320567,0.12155
2019-05-23T04:13:43.655491Z,1.9999580000000001,0.913424,0.169998
2019-05-23T04:13:43.694491Z,2.017145,0.823106,0.185927
2019-05-23T04:13:43.735491Z,1.8435119999999998,0.599553,0.679953
2019-05-23T04:13:43.775491Z,1.6065479999999999,0.456891,0.77988
2019-05-23T04:13:43.814491Z,1.6797389999999999,0.32610300000000003,0.8051119999999999
2019-05-23T04:13:43.859491Z,0.990751,0.348533,0.180556
2019-05-23T04:13:43.893491Z,0.972108,-0.7146170000000001,1.642893
2019-05-23T04:13:43.934491Z,1.112572,-0.8088609999999999,1.656202
2019-05-23T04:13:43.974491Z,0.9676819999999999,-1.06348,0.802133
2019-05-23T04:13:44.018491Z,0.8600129999999999,-0.9030870000000001,-0.21918400000000002
2019-05-23T04:13:44.060491Z,0.9012180000000001,-0.997007,-0.174986
2019-05-23T04:13:44.095491Z,1.523787,-1.104956,-0.205065
2019-05-23T04:13:44.134491Z,1.868801,-0.941852,0.333968
2019-05-23T04:13:44.175491Z,1.8968180000000001,-1.247719,0.46115
2019-05-23T04:13:44.215491Z,0.5163399999999999,-0.6832779999999999,-0.503713
2019-05-23T04:13:44.255491Z,1.265807,-0.044017,-1.04989
2019-05-23T04:13:44.295491Z,1.442867,-0.047017,-1.004486
2019-05-23T04:13:44.337491Z,0.842493,0.49463,-0.853575
2019-05-23T04:13:44.378491Z,1.3058319999999999,0.14189200000000002,0.101753
2019-05-23T04:13:44.417491Z,1.475494,0.019788999999999998,0.189896
2019-05-23T04:13:44.459491Z,1.4243649999999999,0.22330100000000003,-0.17777300000000001
2019-05-23T04:13:44.549491Z,-0.112821,0.561994,-0.126081
2019-05-23T04:13:44.550491Z,-0.4016,0.413454,-0.101636
2019-05-23T04:13:44.584491Z,0.14064400000000002,0.341355,1.1757469999999999
2019-05-23T04:13:44.614491Z,0.447143,0.031682999999999996,0.607937
2019-05-23T04:13:44.656491Z,0.369258,0.06406,0.5735520000000001
2019-05-23T04:13:44.695491Z,0.334469,-0.006765,0.839417
2019-05-23T04:13:44.736491Z,0.373456,-0.305077,0.579145
2019-05-23T04:13:44.776491Z,0.374596,-0.287393,0.563645
2019-05-23T04:13:44.815491Z,1.1808040000000002,-0.462239,-0.42235200000000006
2019-05-23T04:13:44.857491Z,0.846672,-0.6764180000000001,-0.290669
2019-05-23T04:13:44.913491Z,0.905415,-0.660389,-0.282026
2019-05-23T04:13:44.935491Z,0.861067,-0.559016,-0.17603
2019-05-23T04:13:44.976491Z,0.7602909999999999,-0.646833,-0.051733
2019-05-23T04:13:45.016491Z,0.785068,-0.629632,-0.050247
2019-05-23T04:13:45.057491Z,0.752835,-0.352221,-0.6010949999999999
2019-05-23T04:13:45.096491Z,0.8801450000000001,-0.140399,-0.939051
2019-05-23T04:13:45.136491Z,0.7911560000000001,-0.083315,-0.9568989999999999
2019-05-23T04:13:45.176491Z,0.597893,-0.06869600000000001,-0.639944
2019-05-23T04:13:45.216491Z,0.854368,0.25001799999999996,-0.769429
2019-05-23T04:13:45.256491Z,0.796952,0.312562,-0.790872
2019-05-23T04:13:45.295491Z,0.131179,0.80445,-0.356129
2019-05-23T04:13:45.339491Z,-0.203084,1.120096,-1.065876
2019-05-23T04:13:45.377491Z,-0.551751,1.1637709999999999,-1.0760450000000001
2019-05-23T04:13:45.416491Z,0.074447,1.5144229999999999,-0.182672
2019-05-23T04:13:45.456491Z,-0.011222,0.8378,0.008820999999999999
2019-05-23T04:13:45.495491Z,0.117692,0.9014540000000001,-0.026182
2019-05-23T04:13:45.535491Z,1.0806930000000001,1.262404,0.883014
2019-05-23T04:13:45.576491Z,0.629807,1.105453,-0.21849000000000002
2019-05-23T04:13:45.616491Z,0.407072,1.1073879999999998,-0.213223
2019-05-23T04:13:45.659491Z,0.502195,0.044873,1.504514
2019-05-23T04:13:45.697491Z,0.628308,-0.973319,1.031888
2019-05-23T04:13:45.737491Z,0.64141,-1.118411,1.081564
2019-05-23T04:13:45.778491Z,-0.27260100000000004,-1.215809,0.749015
2019-05-23T04:13:45.817491Z,0.229057,-1.378033,0.116818
2019-05-23T04:13:45.857491Z,0.388206,-1.441751,0.155724
2019-05-23T04:13:45.899491Z,0.45711199999999996,-0.7776890000000001,-0.275131
2019-05-23T04:13:45.938491Z,0.304648,-0.5252720000000001,-0.269637
2019-05-23T04:13:45.978491Z,0.513834,-0.490816,-0.263019
2019-05-23T04:13:46.019491Z,0.317101,-0.446596,-0.22079000000000001
2019-05-23T04:13:46.056491Z,0.06598,-0.12232799999999999,-0.628104
2019-05-23T04:13:46.096491Z,-0.026494999999999998,-0.178616,-0.5985560000000001
2019-05-23T04:13:46.164491Z,-0.430849,-0.011356999999999999,-0.023818000000000002
2019-05-23T04:13:46.181491Z,-1.112949,-0.173952,-0.392769
2019-05-23T04:13:46.216491Z,-1.387422,-0.26314499999999996,-0.338555
2019-05-23T04:13:46.280491Z,-0.12473699999999999,0.36819,-0.393847
2019-05-23T04:13:46.297491Z,0.456079,0.625963,0.036136
2019-05-23T04:13:46.337491Z,0.428676,0.651266,0.017743000000000002
2019-05-23T04:13:46.378491Z,0.346715,1.03129,0.763075
2019-05-23T04:13:46.417491Z,0.372525,1.099761,-0.045257
2019-05-23T04:13:46.456491Z,0.21189299999999997,1.108476,-0.051208000000000004
2019-05-23T04:13:46.510491Z,0.785013,0.25409499999999996,1.115284
2019-05-23T04:13:46.537491Z,1.1049440000000001,-0.4536,0.204124
2019-05-23T04:13:46.578491Z,1.180865,-0.397154,0.171724
2019-05-23T04:13:46.618491Z,0.749776,-0.513683,-0.7489979999999999
2019-05-23T04:13:46.659491Z,0.6100800000000001,-0.754262,0.017561
2019-05-23T04:13:46.697491Z,0.693218,-0.722952,0.007209999999999999
2019-05-23T04:13:46.738491Z,0.16901300000000002,-0.714197,-0.136506
2019-05-23T04:13:46.777491Z,0.48276199999999997,-0.27316599999999996,-0.464632
2019-05-23T04:13:46.818491Z,0.5999180000000001,-0.23429299999999997,-0.47130500000000003
2019-05-23T04:13:46.857491Z,0.561787,0.068602,-0.668715
2019-05-23T04:13:46.898491Z,0.073869,0.156864,-0.704522
2019-05-23T04:13:46.938491Z,-0.009156000000000001,0.188796,-0.711482
2019-05-23T04:13:46.980491Z,-0.026061,0.214344,-0.144501
2019-05-23T04:13:47.019491Z,0.19578099999999998,0.502333,0.13213
2019-05-23T04:13:47.062491Z,0.222588,0.49740500000000004,0.129079
2019-05-23T04:13:47.098491Z,-0.15142,0.545387,0.32776900000000003
2019-05-23T04:13:47.137491Z,0.34219499999999997,0.798268,0.702857
2019-05-23T04:13:47.177491Z,0.448429,0.6752279999999999,0.747977
2019-05-23T04:13:47.219491Z,0.559246,0.739953,0.49118599999999996
2019-05-23T04:13:47.260491Z,0.312324,0.8876459999999999,-0.44728199999999996
2019-05-23T04:13:47.297491Z,0.36307399999999995,0.9636129999999999,-0.48069300000000004
2019-05-23T04:13:47.338491Z,-0.121116,0.161876,0.747613
2019-05-23T04:13:47.379491Z,0.11225399999999999,-1.297923,0.839067
2019-05-23T04:13:47.420491Z,0.187832,-1.32972,0.8626959999999999
2019-05-23T04:13:47.462491Z,0.084165,-0.897206,-0.578029
2019-05-23T04:13:47.498491Z,0.186041,-0.9173049999999999,-0.40679299999999996
2019-05-23T04:13:47.538491Z,0.132748,-0.788325,-0.464557
2019-05-23T04:13:47.612491Z,-0.305656,-0.461531,-0.8532620000000001
2019-05-23T04:13:47.627491Z,-0.22912,-0.041179,-1.049572
2019-05-23T04:13:47.663491Z,-0.21144699999999997,0.09975,-1.093481
2019-05-23T04:13:47.697491Z,-0.5379649999999999,-0.049091,-0.783234
2019-05-23T04:13:47.738491Z,-0.357036,0.06846100000000001,-0.08644
2019-05-23T04:13:47.778491Z,-0.38463200000000003,0.106097,-0.10491500000000001
2019-05-23T04:13:47.818491Z,-0.20530900000000002,0.165904,0.44584799999999997
2019-05-23T04:13:47.861491Z,-0.25264000000000003,0.411822,0.52913
2019-05-23T04:13:47.899491Z,-0.269449,0.381644,0.527954
2019-05-23T04:13:47.940491Z,0.075834,0.693224,0.180784
2019-05-23T04:13:47.979491Z,0.042168000000000004,0.769618,0.172031
2019-05-23T04:13:48.018491Z,0.00939,0.6825399999999999,0.198478
2019-05-23T04:13:48.060491Z,0.143253,0.536575,0.140071
2019-05-23T04:13:48.098491Z,0.028622,-0.041174,0.580872
2019-05-23T04:13:48.138491Z,0.147201,-0.06646200000000001,0.590394
2019-05-23T04:13:48.179491Z,0.087043,-1.099531,0.918386
2019-05-23T04:13:48.218491Z,-0.058552999999999994,-0.158163,-0.521346
2019-05-23T04:13:48.260491Z,-0.068675,-0.121938,-0.5273760000000001
2019-05-23T04:13:48.299491Z,0.658045,-0.593066,-0.008965
2019-05-23T04:13:48.339491Z,0.372603,-0.572485,-0.035956999999999996
2019-05-23T04:13:48.380491Z,0.351094,-0.575079,-0.031445999999999995
2019-05-23T04:13:48.420491Z,0.562178,-0.389099,0.016883000000000002
2019-05-23T04:13:48.460491Z,0.5321100000000001,0.232263,-0.62135
2019-05-23T04:13:48.500491Z,0.535335,0.263015,-0.6237020000000001
2019-05-23T04:13:48.540491Z,0.17904,0.299566,-0.197265
2019-05-23T04:13:48.581491Z,0.33597899999999997,0.236263,-0.347977
2019-05-23T04:13:48.621491Z,0.46831000000000006,0.32816300000000004,-0.367271
2019-05-23T04:13:48.663491Z,0.5360010000000001,0.41159799999999996,-0.008938
2019-05-23T04:13:48.699491Z,0.23325700000000002,0.483703,0.165965
2019-05-23T04:13:48.738491Z,0.213569,0.384115,0.196027
2019-05-23T04:13:48.779491Z,-0.152898,0.48260600000000003,0.447432
2019-05-23T04:13:48.819491Z,0.600537,0.588005,0.827311
2019-05-23T04:13:48.861491Z,0.642958,0.460662,0.870358
2019-05-23T04:13:48.900491Z,0.54752,0.546745,0.188579
2019-05-23T04:13:48.940491Z,0.160352,0.082829,0.58649
2019-05-23T04:13:48.981491Z,0.22803800000000002,-0.061175,0.650601
2019-05-23T04:13:49.020491Z,0.55343,-0.8544950000000001,1.613588
2019-05-23T04:13:49.061491Z,0.977141,-0.726901,-0.25951799999999997
2019-05-23T04:13:49.100491Z,1.124192,-0.799582,-0.185305
2019-05-23T04:13:49.139491Z,1.620105,-0.9773950000000001,-0.302712
2019-05-23T04:13:49.180491Z,1.082279,-0.681726,0.007115000000000001
2019-05-23T04:13:49.221491Z,1.243247,-0.78557,0.114371
2019-05-23T04:13:49.258491Z,0.625171,-0.769479,-0.5312319999999999
2019-05-23T04:13:49.348491Z,0.356029,0.13602,-1.498533
2019-05-23T04:13:49.349491Z,0.312494,0.25405700000000003,-1.548251
2019-05-23T04:13:49.385491Z,0.11880999999999999,0.281573,-1.4540620000000002
2019-05-23T04:13:49.419491Z,0.248678,0.513889,-0.48139
2019-05-23T04:13:49.460491Z,0.165428,0.591272,-0.5315489999999999
2019-05-23T04:13:49.500491Z,0.376707,0.7340949999999999,-0.002139
2019-05-23T04:13:49.539491Z,0.286023,0.7289180000000001,0.424433
2019-05-23T04:13:49.580491Z,0.236118,0.678959,0.426526
2019-05-23T04:13:49.620491Z,0.008896,0.5459649999999999,1.071911
2019-05-23T04:13:49.659491Z,0.437522,0.713382,0.49261099999999997
2019-05-23T04:13:49.707491Z,0.36942800000000003,0.7573,0.44773999999999997
2019-05-23T04:13:49.740491Z,0.5777,0.185943,0.809882
2019-05-23T04:13:49.780491Z,0.676092,-0.42048900000000006,1.379946
2019-05-23T04:13:49.821491Z,0.623374,-0.5242979999999999,1.404986
2019-05-23T04:13:49.860491Z,0.909689,-0.619954,0.125857
2019-05-23T04:13:49.900491Z,0.818592,-0.71033,-0.212941
2019-05-23T04:13:49.940491Z,0.7935840000000001,-0.6940109999999999,-0.213067
2019-05-23T04:13:49.980491Z,0.785936,-0.8687389999999999,0.181922
2019-05-23T04:13:50.021491Z,0.8381430000000001,-0.4215,-0.109491
2019-05-23T04:13:50.062491Z,1.02348,-0.47290600000000005,-0.046539
2019-05-23T04:13:50.100491Z,0.9293680000000001,-0.569145,-0.674456
2019-05-23T04:13:50.141491Z,0.39648,0.321861,-1.042641
2019-05-23T04:13:50.182491Z,0.357848,0.27812800000000004,-1.009874
2019-05-23T04:13:50.220491Z,0.203787,0.31085300000000005,-0.45550100000000004
2019-05-23T04:13:50.261491Z,-0.7724840000000001,0.574264,-0.8324229999999999
2019-05-23T04:13:50.301491Z,-1.171367,0.646126,-0.8862959999999999
2019-05-23T04:13:50.340491Z,-0.065893,0.605598,0.355103
2019-05-23T04:13:50.380491Z,-0.386497,-0.011419,0.976418
2019-05-23T04:13:50.420491Z,-0.254427,-0.002984,0.958404
2019-05-23T04:13:50.461491Z,0.579434,0.208992,1.398296
2019-05-23T04:13:50.500491Z,-0.790285,-0.406571,0.519385
2019-05-23T04:13:50.541491Z,-0.920477,-0.516121,0.566285
2019-05-23T04:13:50.580491Z,0.059502,-0.597276,0.9607549999999999
2019-05-23T04:13:50.621491Z,0.186553,-0.614813,0.33508000000000004
2019-05-23T04:13:50.662491Z,0.259137,-0.6811020000000001,0.372502
2019-05-23T04:13:50.701491Z,-0.335036,-0.974359,-0.155891
2019-05-23T04:13:50.740491Z,-0.056277999999999995,-0.9291159999999999,-0.051667
2019-05-23T04:13:50.780491Z,0.067875,-0.8737469999999999,-0.064862
2019-05-23T04:13:50.820491Z,-0.39353,-0.74143,-1.25247
2019-05-23T04:13:50.897491Z,-0.148472,-0.26090100000000005,-0.769005
2019-05-23T04:13:50.909491Z,-0.240856,-0.20873000000000003,-0.787875
2019-05-23T04:13:50.940491Z,-0.938788,-0.25050300000000003,-0.9860959999999999
2019-05-23T04:13:50.980491Z,-0.586543,0.18220799999999998,0.385737
2019-05-23T04:13:51.021491Z,-0.617472,0.16209,0.38653899999999997
2019-05-23T04:13:51.061491Z,-0.550586,0.527733,0.28629299999999996
2019-05-23T04:13:51.101491Z,-0.261499,0.6432260000000001,0.47703
2019-05-23T04:13:51.142491Z,-0.241513,0.594364,0.489833
2019-05-23T04:13:51.182491Z,-0.002248,0.666944,0.62027
2019-05-23T04:13:51.222491Z,0.20410899999999998,0.677129,-0.011391
2019-05-23T04:13:51.263491Z,0.26258200000000004,0.834624,-0.092921
2019-05-23T04:13:51.301491Z,0.025697,0.111765,0.921824
2019-05-23T04:13:51.342491Z,0.069826,-0.974792,1.234675
2019-05-23T04:13:51.382491Z,0.024409,-1.057253,1.263249
2019-05-23T04:13:51.421491Z,0.6504800000000001,-0.686503,-0.655022
2019-05-23T04:13:51.463491Z,0.507141,-0.726009,-0.08529199999999999
2019-05-23T04:13:51.501491Z,0.425605,-0.683862,-0.103452
2019-05-23T04:13:51.542491Z,-0.17743499999999998,-1.082372,0.331648
2019-05-23T04:13:51.581491Z,0.089431,-0.63798,-0.77876
2019-05-23T04:13:51.622491Z,-0.050664999999999995,-0.608096,-0.777008
2019-05-23T04:13:51.666491Z,0.6331939999999999,0.05563,-1.32704
2019-05-23T04:13:51.703491Z,0.45894300000000005,0.30932800000000005,-0.686098
2019-05-23T04:13:51.744491Z,0.438831,0.356665,-0.699855
2019-05-23T04:13:51.783491Z,0.039513,0.12197100000000001,0.193498
2019-05-23T04:13:51.823491Z,0.116211,0.592641,0.523993
2019-05-23T04:13:51.863491Z,0.097441,0.522891,0.5448350000000001
2019-05-23T04:13:51.903491Z,0.06649,0.55362,0.8954
2019-05-23T04:13:51.943491Z,0.003118,0.343124,0.951383
2019-05-23T04:13:51.983491Z,0.009089,0.382974,0.911537
2019-05-23T04:13:52.024491Z,-0.6967979999999999,0.49249799999999994,-0.27719299999999997
2019-05-23T04:13:52.065491Z,-0.787906,0.092184,1.798627
2019-05-23T04:13:52.103491Z,-0.696815,0.042476,1.7905200000000001
2019-05-23T04:13:52.143491Z,-0.125191,-0.5646680000000001,1.0810959999999998
2019-05-23T04:13:52.183491Z,-0.326919,-0.689604,-0.462584
2019-05-23T04:13:52.224491Z,-0.244292,-0.648472,-0.47065500000000005
2019-05-23T04:13:52.265491Z,0.141968,-0.648187,-0.37285300000000005
2019-05-23T04:13:52.303491Z,0.301509,-0.643302,0.025861000000000002
2019-05-23T04:13:52.343491Z,0.409353,-0.657848,0.0464
2019-05-23T04:13:52.382491Z,0.019957,-0.526948,-0.35739299999999996
2019-05-23T04:13:52.483491Z,0.044185,-0.061860000000000005,-1.469052
2019-05-23T04:13:52.484491Z,0.003722,-0.035357,-1.4609809999999999
2019-05-23T04:13:52.512491Z,0.01277,0.24935500000000002,-0.945682
2019-05-23T04:13:52.542491Z,-0.23732199999999998,0.343007,-0.20537600000000003
2019-05-23T04:13:52.582491Z,-0.41454799999999997,0.24392800000000003,-0.164125
2019-05-23T04:13:52.622491Z,-0.436435,0.49121499999999996,0.337654
2019-05-23T04:13:52.663491Z,0.6247010000000001,1.064155,0.147482
2019-05-23T04:13:52.703491Z,0.546253,0.952325,0.199248
2019-05-23T04:13:52.742491Z,0.033953,0.614694,0.8934139999999999
2019-05-23T04:13:52.783491Z,-0.332295,0.333179,0.157825
2019-05-23T04:13:52.842491Z,-0.32941,0.407028,0.110909
2019-05-23T04:13:52.864491Z,-0.124699,-1.2699639999999999,2.105095
2019-05-23T04:13:52.903491Z,-0.016426,-1.0422930000000001,-0.651875
2019-05-23T04:13:52.943491Z,-0.0942,-0.9935350000000001,-0.6586310000000001
2019-05-23T04:13:52.984491Z,0.167962,-0.786479,-0.704804
2019-05-23T04:13:53.022491Z,0.138941,-1.085501,0.244995
2019-05-23T04:13:53.063491Z,0.20754899999999998,-1.035299,0.225346
2019-05-23T04:13:53.103491Z,0.293125,-0.707845,0.138318
2019-05-23T04:13:53.143491Z,0.417943,-0.232404,-0.32555100000000003
2019-05-23T04:13:53.183491Z,0.47167700000000007,-0.21286799999999997,-0.32609899999999997
2019-05-23T04:13:53.223491Z,0.38505100000000003,-0.121531,-0.144155
2019-05-23T04:13:53.264491Z,0.044051,-0.23303000000000001,0.43497299999999994
2019-05-23T04:13:53.305491Z,0.03841,-0.320658,0.476217
2019-05-23T04:13:53.345491Z,0.484767,-0.203922,0.642061
2019-05-23T04:13:53.386491Z,0.666682,0.210997,-0.324897
2019-05-23T04:13:53.424491Z,0.804982,0.071101,-0.23243699999999998
2019-05-23T04:13:53.468491Z,0.627038,0.276913,0.587842
2019-05-23T04:13:53.505491Z,0.173576,0.330977,0.285954
2019-05-23T04:13:53.547491Z,0.284806,0.120621,0.428011
2019-05-23T04:13:53.583491Z,0.625876,-0.238348,0.583002
2019-05-23T04:13:53.623491Z,0.457556,0.260226,-0.8656309999999999
2019-05-23T04:13:53.698491Z,0.552689,0.338175,-0.892806
2019-05-23T04:13:53.710491Z,0.68491,-0.52741,2.242661
2019-05-23T04:13:53.744491Z,1.306509,-1.13368,1.776359
2019-05-23T04:13:53.783491Z,1.286295,-1.102452,1.739134
2019-05-23T04:13:53.823491Z,0.673388,-1.7781150000000001,0.8969799999999999
2019-05-23T04:13:53.865491Z,1.143581,-1.5308329999999999,0.496008
2019-05-23T04:13:53.904491Z,1.1231659999999999,-1.5025549999999999,0.48583699999999996
2019-05-23T04:13:53.943491Z,0.8282209999999999,-1.673603,0.5314439999999999
2019-05-23T04:13:53.983491Z,0.56384,-1.527612,0.15945299999999998
2019-05-23T04:13:54.024491Z,0.503708,-1.431898,0.108867
2019-05-23T04:13:54.066491Z,0.48539099999999996,-1.296063,0.438717
2019-05-23T04:13:54.104491Z,0.49339700000000003,-0.81058,0.6483359999999999
2019-05-23T04:13:54.147491Z,0.57095,-0.7444649999999999,0.617704
2019-05-23T04:13:54.183491Z,0.232573,-0.430493,0.578993
2019-05-23T04:13:54.223491Z,0.026075,-0.171167,0.256108
2019-05-23T04:13:54.264491Z,0.044439,-0.139179,0.238521
2019-05-23T04:13:54.304491Z,-0.519271,-0.045552999999999996,-0.29605
2019-05-23T04:13:54.345491Z,-0.637556,-0.012175,-0.27457800000000004
2019-05-23T04:13:54.384491Z,-0.710221,-0.062179,-0.252828
2019-05-23T04:13:54.424491Z,-0.6398590000000001,0.020981,-0.260216
2019-05-23T04:13:54.468491Z,-0.457504,-0.024704,0.20554
2019-05-23T04:13:54.505491Z,-0.44136000000000003,-0.186772,0.297599
2019-05-23T04:13:54.546491Z,-0.721668,-0.236031,1.238725
2019-05-23T04:13:54.584491Z,-0.525979,-0.52508,0.551543
2019-05-23T04:13:54.624491Z,-0.467922,-0.5296569999999999,0.5572239999999999
2019-05-23T04:13:54.721491Z,-0.855367,-1.438851,2.188175
2019-05-23T04:13:54.722491Z,-0.096624,-1.329508,-0.002372
2019-05-23T04:13:54.754491Z,-0.258777,-1.251758,-0.054096000000000005
2019-05-23T04:13:54.784491Z,0.323328,-1.828381,0.541355
2019-05-23T04:13:54.824491Z,0.328769,-2.3066560000000003,1.287836
2019-05-23T04:13:54.866491Z,0.282326,-2.2616400000000003,1.259019
2019-05-23T04:13:54.904491Z,0.404527,-1.900043,0.459496
2019-05-23T04:13:54.944491Z,0.951484,-1.408333,-0.04688
2019-05-23T04:13:54.985491Z,0.929811,-1.3654870000000001,-0.057895
2019-05-23T04:13:55.025491Z,0.829092,-1.26768,-0.022675999999999998
2019-05-23T04:13:55.071491Z,0.68872,-1.10216,0.327355
2019-05-23T04:13:55.105491Z,0.570813,-1.086115,0.320103
2019-05-23T04:13:55.145491Z,0.769055,-1.026874,0.53476
2019-05-23T04:13:55.185491Z,0.561358,-0.907116,0.810829
2019-05-23T04:13:55.225491Z,0.546585,-0.871455,0.785907
2019-05-23T04:13:55.264491Z,0.350248,-0.8295790000000001,1.0149489999999999
2019-05-23T04:13:55.304491Z,0.753517,-0.577283,0.8937360000000001
2019-05-23T04:13:55.345491Z,0.760229,-0.5799979999999999,0.885785
2019-05-23T04:13:55.385491Z,0.5141359999999999,-0.8520979999999999,1.130028
2019-05-23T04:13:55.424491Z,0.625475,-0.799268,1.014791
2019-05-23T04:13:55.467491Z,0.603809,-0.775962,0.9922860000000001
2019-05-23T04:13:55.507491Z,0.781302,-0.444748,0.389662
2019-05-23T04:13:55.546491Z,0.998719,-0.662053,0.231402
2019-05-23T04:13:55.586491Z,0.9727549999999999,-0.663877,0.23416399999999998
2019-05-23T04:13:55.626491Z,1.417786,-0.71559,0.7205590000000001
2019-05-23T04:13:55.666491Z,1.308757,-1.060556,0.578575
2019-05-23T04:13:55.707491Z,1.403759,-1.163268,0.6360680000000001
2019-05-23T04:13:55.746491Z,1.0117049999999999,-1.1446370000000001,0.7816810000000001
2019-05-23T04:13:55.786491Z,-0.493954,-1.056316,0.011317
2019-05-23T04:13:55.826491Z,-0.586703,-1.0906790000000002,0.039637
2019-05-23T04:13:55.867491Z,0.43733599999999995,-1.543825,1.905111
2019-05-23T04:13:55.906491Z,0.498974,-1.511672,0.179253
2019-05-23T04:13:55.947491Z,0.404405,-1.419127,0.139728
2019-05-23T04:13:55.986491Z,0.20999600000000002,-1.6544900000000002,0.890329
2019-05-23T04:13:56.027491Z,0.818531,-2.428937,2.050033
2019-05-23T04:13:56.070491Z,1.124183,-2.470193,2.077666
2019-05-23T04:13:56.107491Z,0.500141,-2.045157,0.5450470000000001
2019-05-23T04:13:56.147491Z,-0.006197,-1.536577,-0.371659
2019-05-23T04:13:56.187491Z,0.047717,-1.525887,-0.35126599999999997
2019-05-23T04:13:56.227491Z,0.111621,-1.3979540000000001,0.356848
2019-05-23T04:13:56.265491Z,0.23025700000000002,-1.323386,0.493073
2019-05-23T04:13:56.305491Z,0.35125500000000004,-1.25787,0.48173
2019-05-23T04:13:56.369491Z,-0.198901,0.201347,-0.796194
2019-05-23T04:13:56.394491Z,-0.21214499999999997,-0.05739299999999999,0.297695
2019-05-23T04:13:56.425491Z,-0.122905,-0.008264,0.28273400000000004
2019-05-23T04:13:56.465491Z,0.329154,-0.14244300000000001,0.911299
2019-05-23T04:13:56.506491Z,0.17622000000000002,-0.030585,0.606943
2019-05-23T04:13:56.546491Z,0.17921900000000002,-0.1238,0.6453949999999999
2019-05-23T04:13:56.587491Z,0.816283,-0.449351,1.047131
2019-05-23T04:13:56.626491Z,0.8489270000000001,-0.618459,0.9082950000000001
2019-05-23T04:13:56.666491Z,0.900206,-0.642894,0.923084
2019-05-23T04:13:56.722491Z,1.3980110000000001,-1.7018389999999999,1.3809040000000001
2019-05-23T04:13:56.746491Z,1.106335,-1.6263040000000002,1.0208190000000001
2019-05-23T04:13:56.786491Z,1.012033,-1.631734,1.008042
2019-05-23T04:13:56.826491Z,1.648349,-1.822602,1.0979729999999999
2019-05-23T04:13:56.869491Z,2.028702,-1.8223770000000001,0.616711
2019-05-23T04:13:56.906491Z,2.036511,-1.7108860000000001,0.5727720000000001
2019-05-23T04:13:56.946491Z,1.5513940000000002,-1.561373,0.28491500000000003
2019-05-23T04:13:56.987491Z,1.489999,-1.208887,0.167501
2019-05-23T04:13:57.028491Z,1.477069,-1.1005850000000001,0.12805
2019-05-23T04:13:57.068491Z,1.184379,-1.431957,1.019965
2019-05-23T04:13:57.107491Z,0.793125,-1.1779950000000001,0.752541
2019-05-23T04:13:57.148491Z,0.7962279999999999,-1.151089,0.7393649999999999
2019-05-23T04:13:57.189491Z,0.811037,-0.8643379999999999,0.541723
2019-05-23T04:13:57.228491Z,0.633983,-0.88933,0.582603
2019-05-23T04:13:57.267491Z,0.644976,-0.945729,0.606436
2019-05-23T04:13:57.308491Z,0.402202,-1.027359,1.11363
2019-05-23T04:13:57.349491Z,0.28673699999999996,-0.9665459999999999,0.822159
2019-05-23T04:13:57.388491Z,0.37156999999999996,-1.169972,0.9309430000000001
2019-05-23T04:13:57.429491Z,0.194752,-0.45282100000000003,0.163269
2019-05-23T04:13:57.471491Z,0.129423,-0.368152,0.46413000000000004
2019-05-23T04:13:57.507491Z,0.22141100000000002,-0.482217,0.5401279999999999
2019-05-23T04:13:57.546491Z,-0.01133,-0.733705,0.644314
2019-05-23T04:13:57.632491Z,-0.138071,-0.43617799999999995,0.531774
2019-05-23T04:13:57.633491Z,0.002932,-0.416393,0.54557
2019-05-23T04:13:57.671491Z,0.402408,-0.6798,-0.026771
2019-05-23T04:13:57.706491Z,-0.132599,-0.873187,-0.177595
2019-05-23T04:13:57.746491Z,-0.183016,-0.8043399999999999,-0.21755
2019-05-23T04:13:57.788491Z,-0.376623,-0.8571059999999999,-0.289869
2019-05-23T04:13:57.828491Z,-0.188796,-0.821199,0.158104
2019-05-23T04:13:57.871491Z,-0.235052,-0.733283,0.10643
2019-05-23T04:13:57.907491Z,-0.060163,-0.7923180000000001,0.164955
2019-05-23T04:13:57.947491Z,-0.06732300000000001,-0.48464300000000005,-0.691772
2019-05-23T04:13:57.990491Z,-0.181817,-0.399204,-0.738051
2019-05-23T04:13:58.028491Z,-0.038516,-0.291414,-0.159977
2019-05-23T04:13:58.067491Z,0.310349,0.078041,-0.179038
2019-05-23T04:13:58.108491Z,0.282509,0.100725,-0.190808
2019-05-23T04:13:58.148491Z,0.084409,0.253687,-0.07769
2019-05-23T04:13:58.188491Z,-0.10515899999999999,0.770552,-0.277493
2019-05-23T04:13:58.227491Z,-0.271805,0.925891,-0.37053800000000003
2019-05-23T04:13:58.270491Z,-1.513931,1.1938469999999999,0.151385
2019-05-23T04:13:58.307491Z,-0.01157,0.06679700000000001,1.729713
2019-05-23T04:13:58.347491Z,0.016943,-0.07123099999999999,1.760471
2019-05-23T04:13:58.388491Z,0.613025,-0.566797,1.244509
2019-05-23T04:13:58.428491Z,0.653709,-0.484184,1.04219
2019-05-23T04:13:58.469491Z,0.7700739999999999,-0.516987,1.050972
2019-05-23T04:13:58.508491Z,0.8213030000000001,-1.316232,0.687401
2019-05-23T04:13:58.549491Z,0.226598,-1.4586459999999999,0.8563700000000001
2019-05-23T04:13:58.590491Z,0.245246,-1.511649,0.879376
2019-05-23T04:13:58.630491Z,0.57487,-1.769983,0.678096
2019-05-23T04:13:58.671491Z,0.362937,-1.548028,0.33765300000000004
2019-05-23T04:13:58.709491Z,0.37406300000000003,-1.55714,0.349767
2019-05-23T04:13:58.749491Z,0.34020300000000003,-1.577982,-0.113014
2019-05-23T04:13:58.789491Z,0.326472,-1.0678969999999999,-0.272733
2019-05-23T04:13:58.830491Z,0.360543,-1.061611,-0.259424
2019-05-23T04:13:58.873491Z,0.166463,-0.768705,-0.06742999999999999
2019-05-23T04:13:58.909491Z,0.028124,-0.434463,-0.020735
2019-05-23T04:13:58.949491Z,0.0030600000000000002,-0.42791999999999997,-0.022219
2019-05-23T04:13:58.990491Z,0.33235,-0.390391,0.370931
2019-05-23T04:13:59.028491Z,0.30130500000000005,-0.205127,0.114703
2019-05-23T04:13:59.072491Z,0.33593,-0.203542,0.117781
2019-05-23T04:13:59.109491Z,0.264995,0.280405,-0.76371
2019-05-23T04:13:59.150491Z,0.21220799999999998,0.420542,-0.073989
2019-05-23T04:13:59.191491Z,0.238564,0.38251999999999997,-0.054183
2019-05-23T04:13:59.230491Z,0.10116499999999999,0.432763,0.11218499999999999
2019-05-23T04:13:59.270491Z,0.25414899999999996,0.674458,0.383983
2019-05-23T04:13:59.309491Z,0.270491,0.584432,0.421166
2019-05-23T04:13:59.349491Z,0.176344,0.617173,-0.11685
2019-05-23T04:13:59.390491Z,0.396142,0.470346,-0.101371
2019-05-23T04:13:59.430491Z,0.2792,0.370965,-0.05982899999999999
2019-05-23T04:13:59.472491Z,-0.199575,-0.660248,1.8984169999999998
2019-05-23T04:13:59.510491Z,-0.34175500000000003,-0.6532020000000001,0.341027
2019-05-23T04:13:59.551491Z,-0.244169,-0.728677,0.394813
2019-05-23T04:13:59.600491Z,-0.1853,-0.968356,-0.01426
2019-05-23T04:13:59.629491Z,-0.626192,-0.688329,-0.7813060000000001
2019-05-23T04:13:59.671491Z,-0.592508,-0.686686,-0.759424
2019-05-23T04:13:59.709491Z,-0.255604,-0.833091,0.146635
2019-05-23T04:13:59.749491Z,0.478178,-0.43668100000000004,-0.351196
2019-05-23T04:13:59.792491Z,0.611194,-0.408006,-0.331413
2019-05-23T04:13:59.828491Z,0.5946239999999999,-0.08250199999999999,-0.679542
2019-05-23T04:13:59.869491Z,0.29585,0.286306,-0.9704799999999999
2019-05-23T04:13:59.960491Z,0.24548499999999998,0.232485,-0.934791
2019-05-23T04:13:59.961491Z,0.08240399999999999,0.187559,0.941657
2019-05-23T04:13:59.993491Z,-0.29694,0.09994700000000001,0.9728889999999999
2019-05-23T04:14:00.028491Z,-0.30064,0.1906,0.900241
2019-05-23T04:14:00.068491Z,0.086381,0.27887399999999996,0.248942
2019-05-23T04:14:00.109491Z,-0.169051,-0.22625599999999998,1.119792
2019-05-23T04:14:00.149491Z,-0.306471,-0.23481999999999997,1.086804
2019-05-23T04:14:00.189491Z,0.303032,-0.6729890000000001,1.478588
2019-05-23T04:14:00.229491Z,1.141016,-0.6877949999999999,0.066666
2019-05-23T04:14:00.271491Z,1.1686459999999999,-0.622346,0.042128
2019-05-23T04:14:00.313491Z,1.07313,-0.424464,-0.368819
2019-05-23T04:14:00.349491Z,-0.201188,-0.192276,-0.480521
2019-05-23T04:14:00.394491Z,-0.351516,-0.06528400000000001,-0.549459
2019-05-23T04:14:00.429491Z,0.313485,0.092592,-0.963514
2019-05-23T04:14:00.470491Z,0.22993899999999998,0.077956,-1.355421
2019-05-23T04:14:00.510491Z,0.029176,0.145704,-1.371535
2019-05-23T04:14:00.549491Z,-0.015859,0.113148,-0.6833229999999999
2019-05-23T04:14:00.589491Z,0.242693,0.12715,0.081838
2019-05-23T04:14:00.629491Z,0.42415200000000003,0.128187,0.085793
2019-05-23T04:14:00.672491Z,-0.091197,0.7173069999999999,0.8671559999999999
2019-05-23T04:14:00.710491Z,-0.3688,0.915141,1.2151809999999998
2019-05-23T04:14:00.750491Z,-0.27212,0.856608,1.218202
2019-05-23T04:14:00.792491Z,0.453225,0.855042,1.10101
2019-05-23T04:14:00.832491Z,-0.026566000000000003,0.077305,0.542953
2019-05-23T04:14:00.874491Z,-0.066464,-0.04336,0.585803
2019-05-23T04:14:00.912491Z,-0.39961599999999997,-0.10835299999999999,1.3867479999999999
2019-05-23T04:14:00.952491Z,-0.234031,-1.2634299999999998,1.018988
2019-05-23T04:14:00.992491Z,-0.11893599999999999,-1.259092,1.019838
2019-05-23T04:14:01.032491Z,-0.350588,-1.4356360000000001,0.399902
2019-05-23T04:14:01.071491Z,-0.431287,-1.358368,-0.605152
2019-05-23T04:14:01.111491Z,-0.5162680000000001,-1.369277,-0.587172
2019-05-23T04:14:01.151491Z,-0.448166,-1.153046,-0.583032
2019-05-23T04:14:01.192491Z,0.069172,-1.342387,0.123455
2019-05-23T04:14:01.229491Z,0.175466,-1.3774,0.164359
2019-05-23T04:14:01.271491Z,-0.34675900000000004,-0.634001,-0.513452
2019-05-23T04:14:01.310491Z,-0.5151359999999999,-0.268309,-0.739883
2019-05-23T04:14:01.407491Z,-0.501039,-0.26914899999999997,-0.723956
2019-05-23T04:14:01.408491Z,-0.9272600000000001,0.189538,0.126548
2019-05-23T04:14:01.438491Z,-2.342632,-0.121467,0.199436
2019-05-23T04:14:01.469491Z,-2.456978,-0.164204,0.202051
2019-05-23T04:14:01.511491Z,-1.572542,-0.042611,1.248372
2019-05-23T04:14:01.550491Z,-0.9588979999999999,-0.647171,0.727467
2019-05-23T04:14:01.591491Z,-1.0689110000000002,-0.644092,0.710275
2019-05-23T04:14:01.631491Z,-0.544613,-1.545896,0.636833
2019-05-23T04:14:01.671491Z,-0.10775499999999999,-1.9943279999999999,0.539427
2019-05-23T04:14:01.712491Z,-0.062648,-1.910655,0.506969
2019-05-23T04:14:01.779491Z,-0.169131,-1.538613,-0.224365
2019-05-23T04:14:01.791491Z,-0.027993999999999998,-1.3919059999999999,0.002143
2019-05-23T04:14:01.833491Z,0.034109,-1.277116,-0.037814999999999994
2019-05-23T04:14:01.873491Z,0.188856,-0.9735659999999999,0.13786800000000002
2019-05-23T04:14:01.911491Z,-0.174308,-0.789989,0.057549
2019-05-23T04:14:01.951491Z,-0.254735,-0.634467,-0.013732
2019-05-23T04:14:01.991491Z,0.01608,0.11678699999999999,0.899409
2019-05-23T04:14:02.031491Z,0.788659,-0.020924,1.4961799999999998
2019-05-23T04:14:02.074491Z,0.8195379999999999,-0.068162,1.495472
2019-05-23T04:14:02.111491Z,0.959181,0.088111,0.052239999999999995
2019-05-23T04:14:02.152491Z,0.6503260000000001,0.21442199999999997,-0.335648
2019-05-23T04:14:02.193491Z,0.6768350000000001,0.186078,-0.31567199999999995
2019-05-23T04:14:02.233491Z,0.70965,0.519126,-0.430142
2019-05-23T04:14:02.275491Z,0.875957,0.549492,0.018127
2019-05-23T04:14:02.312491Z,0.930651,0.558366,0.017115000000000002
2019-05-23T04:14:02.353491Z,0.449572,0.066492,0.115127
2019-05-23T04:14:02.392491Z,0.105334,0.326368,-0.20473
2019-05-23T04:14:02.431491Z,-0.078733,0.46741099999999997,-0.28062
2019-05-23T04:14:02.471491Z,0.15343099999999998,0.502943,0.655375
2019-05-23T04:14:02.511491Z,0.802643,-0.524882,0.580124
2019-05-23T04:14:02.552491Z,0.824584,-0.49768,0.566693
2019-05-23T04:14:02.593491Z,-0.030744,-0.529362,0.48034899999999997
2019-05-23T04:14:02.633491Z,0.48766099999999996,-0.626211,-0.153369
2019-05-23T04:14:02.675491Z,0.602547,-0.517072,-0.17433800000000002
2019-05-23T04:14:02.713491Z,0.380415,-0.6432859999999999,-0.084908
2019-05-23T04:14:02.752491Z,0.455179,-0.49891800000000003,-0.018803
2019-05-23T04:14:02.792491Z,0.6033810000000001,-0.587069,0.034575
2019-05-23T04:14:02.832491Z,1.004316,-0.161685,-0.034513
2019-05-23T04:14:02.875491Z,0.9562579999999999,0.371569,-0.36906100000000003
2019-05-23T04:14:02.913491Z,0.9360430000000001,0.438134,-0.389916
2019-05-23T04:14:02.951491Z,0.652968,0.8326129999999999,0.212049
2019-05-23T04:14:02.992491Z,0.827176,0.498908,0.341853
2019-05-23T04:14:03.060491Z,0.973534,0.454716,0.378071
2019-05-23T04:14:03.074491Z,0.878756,-0.167946,0.862783
2019-05-23T04:14:03.112491Z,0.343136,0.191446,0.48311800000000005
2019-05-23T04:14:03.151491Z,0.33266399999999996,0.102335,0.505998
2019-05-23T04:14:03.192491Z,1.8777849999999998,0.21729899999999996,1.1152440000000001
2019-05-23T04:14:03.232491Z,2.443064,-0.037076,1.827293
2019-05-23T04:14:03.273491Z,2.606964,-0.061080999999999996,1.847087
2019-05-23T04:14:03.312491Z,2.45309,-0.707604,0.56645
2019-05-23T04:14:03.352491Z,2.2620560000000003,-0.47081300000000004,-0.199795
2019-05-23T04:14:03.421491Z,2.0646430000000002,-0.406951,-0.251312
2019-05-23T04:14:03.432491Z,2.320379,-0.194372,-0.6462359999999999
2019-05-23T04:14:03.474491Z,3.476096,-0.48751300000000003,0.148899
2019-05-23T04:14:03.513491Z,3.43842,-0.428464,0.131454
2019-05-23T04:14:03.552491Z,2.2009630000000002,-0.672219,0.160279
2019-05-23T04:14:03.592491Z,1.4186590000000001,-0.311187,-0.134446
2019-05-23T04:14:03.632491Z,1.320376,-0.292774,-0.14643499999999998
2019-05-23T04:14:03.674491Z,1.333048,-0.444931,0.5418350000000001
2019-05-23T04:14:03.713491Z,1.385795,-0.165471,0.8404780000000001
2019-05-23T04:14:03.753491Z,1.355422,-0.233783,0.851301
2019-05-23T04:14:03.793491Z,1.3029870000000001,0.063875,0.145099
2019-05-23T04:14:03.835491Z,1.108965,0.32127100000000003,-0.23345100000000002
2019-05-23T04:14:03.876491Z,1.0129110000000001,0.266955,-0.217937
2019-05-23T04:14:03.914491Z,0.9985649999999999,0.320193,0.665682
2019-05-23T04:14:03.955491Z,0.5006689999999999,0.342308,0.895069
2019-05-23T04:14:03.994491Z,0.499167,0.24967199999999998,0.914939
2019-05-23T04:14:04.034491Z,0.7148260000000001,0.5168659999999999,1.2695040000000002
2019-05-23T04:14:04.076491Z,-0.22836399999999998,0.151822,-0.46490699999999996
2019-05-23T04:14:04.114491Z,-0.433881,0.11086800000000001,-0.45025699999999996
2019-05-23T04:14:04.154491Z,-1.016804,-1.381544,1.0105950000000001
2019-05-23T04:14:04.194491Z,-0.5357270000000001,-1.8613939999999998,0.008223999999999999
2019-05-23T04:14:04.234491Z,-0.556038,-1.8822009999999998,0.030194
2019-05-23T04:14:04.277491Z,-0.40117800000000003,-1.4044159999999999,0.48124300000000003
2019-05-23T04:14:04.314491Z,-0.16012200000000001,-2.10725,1.117393
2019-05-23T04:14:04.353491Z,-0.208896,-2.14825,1.1316110000000001
2019-05-23T04:14:04.393491Z,-0.21791999999999997,-1.7541229999999999,0.499619
2019-05-23T04:14:04.434491Z,-0.250733,-1.553814,0.309582
2019-05-23T04:14:04.472491Z,-0.32547,-1.468241,0.27578
2019-05-23T04:14:04.512491Z,0.50352,-1.344818,0.139167
2019-05-23T04:14:04.553491Z,0.234868,-1.475171,0.15475
2019-05-23T04:14:04.593491Z,0.178263,-1.557636,0.200718
2019-05-23T04:14:04.633491Z,0.10432999999999999,-0.689951,0.581853
2019-05-23T04:14:04.674491Z,0.446938,-0.210238,-0.29787800000000003
2019-05-23T04:14:04.714491Z,0.633262,-0.143407,-0.315796
2019-05-23T04:14:04.755491Z,0.27673600000000004,0.25440799999999997,-0.422153
2019-05-23T04:14:04.795491Z,-0.332239,0.37866,-0.016817
2019-05-23T04:14:04.837491Z,-0.247294,0.36178899999999997,-0.006294
2019-05-23T04:14:04.874491Z,-0.742232,-0.656273,0.40316599999999997
2019-05-23T04:14:04.914491Z,-0.40518899999999997,-0.233765,0.575932
2019-05-23T04:14:04.980491Z,-0.38779,-0.2612,0.581257
2019-05-23T04:14:04.994491Z,0.733768,-0.416658,0.555597
2019-05-23T04:14:05.033491Z,0.364506,-0.11930199999999999,0.908861
2019-05-23T04:14:05.091491Z,0.38101799999999997,-0.116318,0.8934190000000001
2019-05-23T04:14:05.114491Z,1.506161,-1.1225459999999998,1.6930580000000002
2019-05-23T04:14:05.154491Z,1.2164840000000001,-1.298141,0.576604
2019-05-23T04:14:05.194491Z,1.2445760000000001,-1.2161879999999998,0.54073
2019-05-23T04:14:05.234491Z,1.734796,-1.289326,-0.09675800000000001
2019-05-23T04:14:05.276491Z,1.211773,-1.5963120000000002,-0.216257
2019-05-23T04:14:05.339491Z,1.276473,-1.5350030000000001,-0.223009
2019-05-23T04:14:05.354491Z,0.67355,-1.449023,-0.034109
2019-05-23T04:14:05.394491Z,0.317704,-1.1511719999999999,0.071661
2019-05-23T04:14:05.435491Z,0.266339,-1.19026,0.091794
2019-05-23T04:14:05.476491Z,0.01078,-1.047934,0.871419
2019-05-23T04:14:05.515491Z,0.017179,-0.8746370000000001,0.902327
2019-05-23T04:14:05.554491Z,0.055075,-0.914592,0.9103979999999999
2019-05-23T04:14:05.594491Z,0.69394,-0.052476999999999996,-0.235064
2019-05-23T04:14:05.635491Z,0.553158,0.525997,0.157666
2019-05-23T04:14:05.674491Z,0.566573,0.40628000000000003,0.20277699999999999
2019-05-23T04:14:05.714491Z,-0.02084,0.17106400000000002,1.07216
2019-05-23T04:14:05.756491Z,-0.11508,-0.32962199999999997,1.772821
2019-05-23T04:14:05.796491Z,-0.030024000000000002,-0.5231439999999999,1.8468919999999998
2019-05-23T04:14:05.836491Z,0.30733699999999997,-0.130384,1.040078
2019-05-23T04:14:05.875491Z,0.17378,-0.159639,1.030359
2019-05-23T04:14:05.916491Z,0.221402,-0.284539,1.086062
2019-05-23T04:14:05.955491Z,0.452375,-1.500543,1.063399
2019-05-23T04:14:05.995491Z,-0.318089,-2.227839,0.20984699999999998
2019-05-23T04:14:06.037491Z,-0.152673,-2.2815630000000002,0.276413
2019-05-23T04:14:06.079491Z,-0.608941,-2.346612,-0.013123
2019-05-23T04:14:06.116491Z,-0.541033,-2.003372,-0.11918499999999999
2019-05-23T04:14:06.154491Z,-0.529359,-1.967424,-0.118421
2019-05-23T04:14:06.252491Z,-0.39786900000000003,-1.551605,0.092324
2019-05-23T04:14:06.254491Z,-0.08129199999999999,-1.002995,-0.027662
2019-05-23T04:14:06.292491Z,-0.18729200000000001,-0.9544090000000001,-0.058914999999999995
2019-05-23T04:14:06.313491Z,-0.791241,-1.020605,-0.11961199999999998
2019-05-23T04:14:06.356491Z,0.0257,-0.48811099999999996,-0.030414
2019-05-23T04:14:06.395491Z,-0.050026,-0.467472,-0.044456
2019-05-23T04:14:06.435491Z,-0.348333,-0.19771,-0.384279
2019-05-23T04:14:06.475491Z,-0.472731,0.066248,0.469042
2019-05-23T04:14:06.516491Z,-0.49343100000000006,0.039904,0.47358599999999995
2019-05-23T04:14:06.558491Z,0.063276,0.42011899999999996,0.653419
2019-05-23T04:14:06.595491Z,-0.167466,0.871677,0.566113
2019-05-23T04:14:06.642491Z,-0.125424,0.711062,0.6450020000000001
2019-05-23T04:14:06.677491Z,-0.07412300000000001,0.349418,0.8002729999999999
2019-05-23T04:14:06.715491Z,-0.112347,-0.25146399999999997,-0.09085
2019-05-23T04:14:06.757491Z,-0.006853,-0.211022,-0.102747
2019-05-23T04:14:06.795491Z,0.145557,-1.66527,1.978476
2019-05-23T04:14:06.836491Z,-0.578337,-1.4913129999999999,-0.512774
2019-05-23T04:14:06.876491Z,-0.9025690000000001,-1.393362,-0.554338
2019-05-23T04:14:06.915491Z,1.028294,-1.389154,0.403517
2019-05-23T04:14:06.954491Z,1.256558,-1.675921,0.333992
2019-05-23T04:14:06.996491Z,1.295743,-1.5972540000000002,0.302039
2019-05-23T04:14:07.036491Z,0.6894979999999999,-1.139501,-0.40918899999999997
2019-05-23T04:14:07.077491Z,0.4815,-0.617648,-0.22133899999999998
2019-05-23T04:14:07.115491Z,0.539643,-0.628784,-0.205362
2019-05-23T04:14:07.157491Z,0.778962,-0.233082,-0.10765
2019-05-23T04:14:07.197491Z,0.40779099999999996,-0.364623,0.318419
2019-05-23T04:14:07.236491Z,0.59333,-0.471364,0.381465
2019-05-23T04:14:07.279491Z,0.823951,-0.710105,0.722429
2019-05-23T04:14:07.315491Z,-0.15304500000000001,-0.29279299999999997,0.081347
2019-05-23T04:14:07.420491Z,-0.314783,-0.229169,0.032399000000000004
2019-05-23T04:14:07.421491Z,-0.45294799999999996,1.0544200000000001,-0.392948
2019-05-23T04:14:07.436491Z,0.306123,-0.53788,0.9153620000000001
2019-05-23T04:14:07.477491Z,0.16604000000000002,-0.47273000000000004,0.8633959999999999
2019-05-23T04:14:07.515491Z,0.819903,-0.461977,0.8465370000000001
2019-05-23T04:14:07.555491Z,1.116333,-0.947767,0.9783299999999999
2019-05-23T04:14:07.596491Z,1.086924,-0.867769,0.928644
2019-05-23T04:14:07.636491Z,0.873934,-1.738027,1.624087
2019-05-23T04:14:07.680491Z,1.7801200000000001,-1.8600189999999999,1.4080840000000001
2019-05-23T04:14:07.716491Z,1.719536,-1.8754680000000001,1.4075520000000001
2019-05-23T04:14:07.756491Z,2.276584,-1.500672,1.324294
2019-05-23T04:14:07.805491Z,3.1684669999999997,-1.134501,1.177132
2019-05-23T04:14:07.837491Z,3.138277,-1.120982,1.160449
2019-05-23T04:14:07.876491Z,2.750365,-1.152751,-0.001271
2019-05-23T04:14:07.916491Z,1.4950290000000002,-1.505951,-0.28986
2019-05-23T04:14:07.956491Z,1.441848,-1.297431,-0.372841
2019-05-23T04:14:07.996491Z,0.65647,-1.839214,-1.035491
2019-05-23T04:14:08.036491Z,0.064522,-2.0060860000000003,-0.560287
2019-05-23T04:14:08.078491Z,0.228093,-1.753753,-0.636927
2019-05-23T04:14:08.117491Z,-0.7798069999999999,-1.638624,-0.163037
2019-05-23T04:14:08.157491Z,-0.654623,-0.604301,1.029966
2019-05-23T04:14:08.198491Z,-0.637494,-0.603522,1.016249
2019-05-23T04:14:08.236491Z,-0.634121,0.087547,1.3358709999999998
2019-05-23T04:14:08.277491Z,-0.58844,0.295275,1.477429
2019-05-23T04:14:08.317491Z,-0.621153,0.148904,1.504153
2019-05-23T04:14:08.358491Z,-1.434884,0.49576899999999996,0.855556
2019-05-23T04:14:08.398491Z,-1.234267,0.9753229999999999,0.5845090000000001
2019-05-23T04:14:08.437491Z,-1.656723,1.033435,0.5659069999999999
2019-05-23T04:14:08.478491Z,-0.8435360000000001,0.21990700000000002,0.28024899999999997
2019-05-23T04:14:08.518491Z,0.9686540000000001,-1.48996,1.9969689999999998
2019-05-23T04:14:08.558491Z,1.170166,-1.70605,2.044134
2019-05-23T04:14:08.598491Z,1.8611790000000001,-1.97186,0.192626
2019-05-23T04:14:08.639491Z,1.61774,-1.280689,-0.717679
2019-05-23T04:14:08.680491Z,1.725857,-1.24476,-0.721396
2019-05-23T04:14:08.718491Z,1.464532,-1.939961,0.6595850000000001
2019-05-23T04:14:08.759491Z,1.2957379999999998,-1.363104,0.8526040000000001
2019-05-23T04:14:08.799491Z,1.332317,-1.4687059999999998,0.896317
2019-05-23T04:14:08.839491Z,0.872607,-1.0695059999999998,-0.5323439999999999
2019-05-23T04:14:08.881491Z,0.482933,-0.9920040000000001,-0.22887399999999997
2019-05-23T04:14:08.919491Z,0.631827,-1.01146,-0.211056
2019-05-23T04:14:08.959491Z,-0.152411,-0.907941,-0.35804400000000003
2019-05-23T04:14:08.999491Z,-0.329355,-0.35840500000000003,-0.44873500000000005
2019-05-23T04:14:09.039491Z,-0.22752399999999998,-0.345459,-0.44248999999999994
2019-05-23T04:14:09.081491Z,-0.11635,0.071989,-0.49531099999999995
2019-05-23T04:14:09.117491Z,-0.178317,0.128023,0.284891
2019-05-23T04:14:09.157491Z,-0.10032200000000001,0.20868299999999998,0.24539299999999997
