Datetime,accx,accy,accz
2019-05-07T03:07:40.235795Z,0.542401,0.29898600000000003,-0.121473
2019-05-07T03:07:40.433795Z,0.329991,0.513039,-0.549369
2019-05-07T03:07:40.634795Z,0.495659,0.574662,0.47265100000000004
2019-05-07T03:07:40.834795Z,0.065276,-0.149249,1.344602
2019-05-07T03:07:41.037795Z,-0.366603,-2.613522,0.202767
2019-05-07T03:07:41.236795Z,0.22903099999999998,-1.115776,-0.886877
2019-05-07T03:07:41.436795Z,-0.641325,0.182201,0.5848369999999999
2019-05-07T03:07:41.634795Z,0.745251,-0.7833289999999999,1.124524
2019-05-07T03:07:41.835795Z,1.416087,-1.423841,-0.900718
2019-05-07T03:07:42.035795Z,0.5687369999999999,-0.161044,0.42766000000000004
2019-05-07T03:07:42.234795Z,-0.658259,-0.707371,1.6744849999999998
2019-05-07T03:07:42.435795Z,-0.221956,-1.40524,-1.157908
2019-05-07T03:07:42.634795Z,-0.648393,-0.16161099999999998,0.232717
2019-05-07T03:07:42.839795Z,0.144772,-0.5386810000000001,1.391473
2019-05-07T03:07:43.036795Z,0.048908999999999994,-1.251459,-0.594214
2019-05-07T03:07:43.235795Z,0.361406,-0.333976,-0.03075
2019-05-07T03:07:43.439795Z,-0.386538,-0.44060200000000005,1.655762
2019-05-07T03:07:43.635795Z,-0.42709300000000006,-1.0467799999999998,-1.118152
2019-05-07T03:07:43.838795Z,-0.400196,-0.049888999999999996,-0.416548
2019-05-07T03:07:44.035795Z,-0.44063800000000003,-0.016850999999999998,1.298883
2019-05-07T03:07:44.237795Z,0.1204,-1.235697,0.045388
2019-05-07T03:07:44.435795Z,0.012365000000000001,-0.275986,-0.897892
2019-05-07T03:07:44.637795Z,0.053224,0.309608,1.013911
2019-05-07T03:07:44.837795Z,0.186526,-0.811774,0.068124
2019-05-07T03:07:45.036795Z,0.469271,-1.026633,0.085449
2019-05-07T03:07:45.239795Z,1.435702,-1.34808,1.362771
2019-05-07T03:07:45.439795Z,2.272205,-2.000317,0.6682859999999999
2019-05-07T03:07:45.640795Z,1.549,-2.092506,-0.16522
2019-05-07T03:07:45.841795Z,-0.23025700000000002,-0.610586,0.695675
2019-05-07T03:07:46.041795Z,0.31192,-0.454823,1.362792
2019-05-07T03:07:46.241795Z,-0.152351,-2.38935,0.8627729999999999
2019-05-07T03:07:46.439795Z,-0.27625700000000003,-1.8250919999999997,-0.069853
2019-05-07T03:07:46.640795Z,-0.084011,-0.554099,0.169122
2019-05-07T03:07:46.846795Z,-0.26412800000000003,-0.344032,0.252443
2019-05-07T03:07:47.041795Z,-0.247664,-1.532464,0.9628770000000001
2019-05-07T03:07:47.240795Z,-0.095364,-1.382326,0.293207
2019-05-07T03:07:47.439795Z,0.093709,-0.523455,-0.22184600000000002
2019-05-07T03:07:47.646795Z,0.099399,-0.030813,-0.03557
2019-05-07T03:07:47.840795Z,0.052723,-0.19000999999999998,0.799822
2019-05-07T03:07:48.041795Z,-0.044035000000000005,-1.237323,0.24146700000000001
2019-05-07T03:07:48.241795Z,0.025626,-0.163956,-0.48067600000000005
2019-05-07T03:07:48.443795Z,0.17925,0.32668200000000003,0.08178400000000001
2019-05-07T03:07:48.641795Z,0.32318800000000003,-0.311714,0.885077
2019-05-07T03:07:48.841795Z,0.085011,-0.544459,-0.5540510000000001
2019-05-07T03:07:49.042795Z,0.09156399999999999,0.25346,-0.360085
2019-05-07T03:07:49.241795Z,0.094183,0.6972229999999999,1.120663
2019-05-07T03:07:49.455795Z,0.058071000000000005,-0.839857,0.0757
2019-05-07T03:07:49.643795Z,-0.030293,-0.808704,-0.739464
2019-05-07T03:07:49.841795Z,0.055037,0.07359,0.200792
2019-05-07T03:07:50.042795Z,0.317413,-0.144556,0.926868
2019-05-07T03:07:50.243795Z,0.477541,-1.023541,-0.067598
2019-05-07T03:07:50.441795Z,0.034998,-0.173058,-0.8720209999999999
2019-05-07T03:07:50.642795Z,0.019161,0.663931,0.9615379999999999
2019-05-07T03:07:50.843795Z,-0.018539,-1.6873779999999998,0.371461
2019-05-07T03:07:51.044795Z,-0.20676,-0.46936300000000003,-0.775183
2019-05-07T03:07:51.244795Z,-0.136541,-0.049473,1.0108139999999999
2019-05-07T03:07:51.442795Z,0.22199499999999997,-0.42784300000000003,0.132938
2019-05-07T03:07:51.645795Z,0.278118,-0.46301800000000004,-0.826709
2019-05-07T03:07:51.844795Z,-0.144846,0.308628,0.83639
2019-05-07T03:07:52.045795Z,-0.029123000000000003,-0.407477,0.72482
2019-05-07T03:07:52.244795Z,0.157187,-0.6764399999999999,-1.026818
2019-05-07T03:07:52.446795Z,-0.33919,-0.16757,0.23126999999999998
2019-05-07T03:07:52.644795Z,0.288624,-0.28648,0.7809229999999999
2019-05-07T03:07:52.845795Z,0.07948,-0.361292,-0.527946
2019-05-07T03:07:53.046795Z,0.212279,-0.026008,0.171999
2019-05-07T03:07:53.248795Z,0.293956,-0.604508,1.125107
2019-05-07T03:07:53.497795Z,0.451529,-0.932047,-0.37163
2019-05-07T03:07:53.645795Z,1.212461,-0.730104,0.302554
2019-05-07T03:07:53.844795Z,1.2638690000000001,-0.885028,0.850664
2019-05-07T03:07:54.046795Z,0.7583449999999999,-0.801689,-0.31227699999999997
2019-05-07T03:07:54.247795Z,0.673517,-0.767992,0.556508
2019-05-07T03:07:54.447795Z,-0.026632999999999997,-0.9283290000000001,0.8968459999999999
2019-05-07T03:07:54.649795Z,-0.276794,-0.6021569999999999,-1.049488
2019-05-07T03:07:54.868795Z,-0.460111,-0.159834,0.028794999999999998
2019-05-07T03:07:55.046795Z,0.025246,-0.535042,1.493522
2019-05-07T03:07:55.246795Z,-0.015302000000000001,-1.689807,-0.41551499999999997
2019-05-07T03:07:55.446795Z,-0.089625,-0.319668,-0.765274
2019-05-07T03:07:55.648795Z,0.647345,-0.6089,1.785341
2019-05-07T03:07:55.848795Z,-0.46295699999999995,-1.525851,-0.049384
2019-05-07T03:07:56.046795Z,-0.440007,-1.001,-0.357667
2019-05-07T03:07:56.249795Z,0.054915,-0.618542,0.730274
2019-05-07T03:07:56.448795Z,0.734941,-1.190667,0.8453350000000001
2019-05-07T03:07:56.649795Z,0.49485100000000004,-1.123738,-0.726989
2019-05-07T03:07:56.848795Z,0.222742,-0.332999,0.667551
2019-05-07T03:07:57.047795Z,0.113068,-0.631759,0.543828
2019-05-07T03:07:57.250795Z,0.557071,-1.257028,0.26253000000000004
2019-05-07T03:07:57.449795Z,0.45352299999999995,-0.374136,-0.09814500000000001
2019-05-07T03:07:57.650795Z,0.457362,0.017379,0.722892
2019-05-07T03:07:57.850795Z,0.727999,-1.094329,0.5605979999999999
2019-05-07T03:07:58.049795Z,0.773466,-0.341966,-0.552573
2019-05-07T03:07:58.251795Z,0.421455,-0.142058,0.655309
2019-05-07T03:07:58.450795Z,0.033039,-1.2682950000000002,0.744617
2019-05-07T03:07:58.652795Z,0.203062,-1.217531,-0.340624
2019-05-07T03:07:58.851795Z,0.31905700000000004,-0.232069,-0.567629
2019-05-07T03:07:59.052795Z,0.259666,0.296412,1.262693
2019-05-07T03:07:59.251795Z,1.082691,-1.584978,0.448337
2019-05-07T03:07:59.454795Z,1.1345120000000002,-0.859318,-0.219611
2019-05-07T03:07:59.649795Z,0.140183,-0.374062,0.5229229999999999
2019-05-07T03:07:59.851795Z,0.051914999999999996,-1.401325,1.020442
2019-05-07T03:08:00.052795Z,0.272837,-1.378543,-0.263821
2019-05-07T03:08:00.251795Z,-0.47678100000000007,-0.272282,-0.31240500000000004
2019-05-07T03:08:00.451795Z,-0.080384,-0.21201199999999998,0.570276
2019-05-07T03:08:00.653795Z,0.404371,-1.018851,0.41810600000000003
2019-05-07T03:08:00.853795Z,0.44550500000000004,-0.7482310000000001,-0.210961
2019-05-07T03:08:01.051795Z,0.264237,-0.086594,0.497648
2019-05-07T03:08:01.252795Z,0.708123,-0.787748,1.160151
2019-05-07T03:08:01.452795Z,0.8075100000000001,-1.464127,-0.10539000000000001
2019-05-07T03:08:01.653795Z,1.426592,-0.9889040000000001,0.189118
2019-05-07T03:08:01.852795Z,1.47844,-1.3868,1.220256
2019-05-07T03:08:02.052795Z,0.760705,-0.6751659999999999,-0.06801
2019-05-07T03:08:02.255795Z,1.077516,-0.160671,0.103522
2019-05-07T03:08:02.456795Z,-0.323943,-1.056699,1.239127
2019-05-07T03:08:02.674795Z,0.907185,-1.420483,0.043475
2019-05-07T03:08:02.854795Z,1.28424,-1.51119,0.211652
2019-05-07T03:08:03.052795Z,1.7899200000000002,-1.558901,1.299981
2019-05-07T03:08:03.254795Z,1.612428,-1.547903,0.166132
2019-05-07T03:08:03.456795Z,1.1359489999999999,-0.8766959999999999,0.48494499999999996
2019-05-07T03:08:03.654795Z,0.227665,-1.1035469999999998,1.2561639999999998
2019-05-07T03:08:03.855795Z,0.5828720000000001,-1.1989319999999999,-0.28697399999999995
2019-05-07T03:08:04.057795Z,0.31713800000000003,-0.448719,-0.779918
2019-05-07T03:08:04.265795Z,0.229332,-0.102934,0.8586
2019-05-07T03:08:04.455795Z,0.37948899999999997,-1.558478,1.2105290000000002
2019-05-07T03:08:04.655795Z,0.790772,-1.0236530000000001,-0.681674
2019-05-07T03:08:04.857795Z,0.805425,-0.21047,0.192052
2019-05-07T03:08:05.055795Z,2.451454,-1.113284,1.8410689999999998
2019-05-07T03:08:05.257795Z,2.782884,-1.914393,1.033038
2019-05-07T03:08:05.457795Z,1.8813790000000001,-0.612632,-0.397212
2019-05-07T03:08:05.657795Z,0.204735,-0.56093,0.692639
2019-05-07T03:08:05.859795Z,0.6302909999999999,-1.590166,1.371213
2019-05-07T03:08:06.055795Z,0.471484,-1.062469,-0.970434
2019-05-07T03:08:06.281795Z,-0.171674,0.44371700000000003,-0.139785
2019-05-07T03:08:06.456795Z,-0.5463180000000001,-0.40574299999999996,1.174893
2019-05-07T03:08:06.658795Z,0.040339,-0.9347639999999999,-0.63785
2019-05-07T03:08:06.858795Z,0.24224899999999996,-0.282909,0.121058
2019-05-07T03:08:07.058795Z,0.7211609999999999,0.032647,0.995185
2019-05-07T03:08:07.259795Z,0.681772,-1.202369,-0.115668
2019-05-07T03:08:07.465795Z,0.295121,-0.24593600000000002,-0.683282
2019-05-07T03:08:07.657795Z,-0.32508899999999996,-0.060142999999999995,1.2171379999999998
2019-05-07T03:08:07.857795Z,-0.082802,-0.7231609999999999,-0.290606
2019-05-07T03:08:08.058795Z,-0.031672000000000006,-0.500216,-0.27466399999999996
2019-05-07T03:08:08.258795Z,0.482353,-0.050713999999999995,1.11837
2019-05-07T03:08:08.461795Z,0.36849,-0.9991110000000001,0.5521050000000001
2019-05-07T03:08:08.662795Z,0.048779,-0.882317,-0.598344
2019-05-07T03:08:08.858795Z,-1.494535,-0.698172,0.193011
2019-05-07T03:08:09.060795Z,-1.65579,-2.483683,1.468676
2019-05-07T03:08:09.261795Z,-1.288434,-2.328665,0.185038
2019-05-07T03:08:09.461795Z,-0.210101,-1.570799,0.518884
2019-05-07T03:08:09.664795Z,0.312028,-1.131701,0.555079
2019-05-07T03:08:09.861795Z,1.985253,-0.7629779999999999,0.834218
2019-05-07T03:08:10.061795Z,2.039965,-0.481333,0.624397
2019-05-07T03:08:10.263795Z,1.439474,-0.155007,-1.12099
2019-05-07T03:08:10.459795Z,1.140142,0.591611,1.285187
2019-05-07T03:08:10.660795Z,0.7456729999999999,-0.587708,0.505073
2019-05-07T03:08:10.862795Z,1.124248,-1.2420309999999999,-0.631033
2019-05-07T03:08:11.062795Z,0.875367,-0.260693,0.151922
2019-05-07T03:08:11.264795Z,0.274918,-0.273071,1.545416
2019-05-07T03:08:11.461795Z,0.748817,-1.291182,-0.002203
2019-05-07T03:08:11.661795Z,0.26476700000000003,-0.9352809999999999,-0.18926600000000002
2019-05-07T03:08:11.861795Z,0.284673,0.060323,0.014297
2019-05-07T03:08:12.061795Z,0.629586,0.509903,0.6569119999999999
2019-05-07T03:08:12.264795Z,0.7791710000000001,-0.8743299999999999,0.142901
2019-05-07T03:08:12.463795Z,0.8689180000000001,0.06395,-0.6179399999999999
2019-05-07T03:08:12.662795Z,1.17587,0.257579,0.612452
2019-05-07T03:08:12.862795Z,0.27621,-0.789155,1.188705
2019-05-07T03:08:13.063795Z,0.650702,-0.8371430000000001,-0.6311829999999999
2019-05-07T03:08:13.272795Z,1.099099,0.18237799999999998,-0.248464
2019-05-07T03:08:13.463795Z,0.604123,0.5293720000000001,0.907641
2019-05-07T03:08:13.663795Z,0.27557800000000005,-1.682684,0.209734
2019-05-07T03:08:13.865795Z,0.515254,-0.42538000000000004,-0.624801
2019-05-07T03:08:14.065795Z,-0.178039,0.183192,0.42050299999999996
2019-05-07T03:08:14.266795Z,1.024408,-0.334565,0.619219
2019-05-07T03:08:14.468795Z,0.12215799999999999,-0.469642,-0.587964
2019-05-07T03:08:14.665795Z,0.038914,0.229559,-0.25503000000000003
2019-05-07T03:08:14.865795Z,-0.159632,0.279144,0.8079609999999999
2019-05-07T03:08:15.065795Z,0.374021,-0.9894959999999999,0.537288
2019-05-07T03:08:15.266795Z,0.14868199999999998,-0.5222600000000001,-0.678091
2019-05-07T03:08:15.465795Z,0.26586,0.431116,0.399486
2019-05-07T03:08:15.670795Z,0.666986,-0.063317,0.537086
2019-05-07T03:08:15.866795Z,0.226221,-0.98246,-0.768846
2019-05-07T03:08:16.065795Z,-0.054717999999999996,0.22734000000000001,-0.5265890000000001
2019-05-07T03:08:16.267795Z,0.158006,0.618052,1.113133
2019-05-07T03:08:16.465795Z,0.486313,-0.746901,0.559445
2019-05-07T03:08:16.666795Z,0.07943,-0.696463,-0.953407
2019-05-07T03:08:16.869795Z,-0.034038,-0.17078,0.700032
2019-05-07T03:08:17.067795Z,0.8613370000000001,-0.20865799999999998,0.652932
2019-05-07T03:08:17.268795Z,1.2264620000000002,-0.902919,-0.274453
2019-05-07T03:08:17.476795Z,1.094757,-0.15853699999999998,-0.35712
2019-05-07T03:08:17.667795Z,0.42631499999999994,-0.234185,1.0633709999999998
2019-05-07T03:08:17.869795Z,0.715209,-1.489187,0.483446
2019-05-07T03:08:18.070795Z,0.11785599999999999,-0.52577,-0.336847
2019-05-07T03:08:18.268795Z,-0.544071,0.144797,0.231841
2019-05-07T03:08:18.470795Z,-0.8842969999999999,-0.45388199999999995,0.786388
2019-05-07T03:08:18.672795Z,0.966366,-1.232543,0.077191
2019-05-07T03:08:18.870795Z,0.343815,-0.7758010000000001,-0.060008000000000006
2019-05-07T03:08:19.068795Z,0.49198800000000004,-0.281204,0.226633
2019-05-07T03:08:19.268795Z,1.30336,-0.9523389999999999,0.8176140000000001
2019-05-07T03:08:19.470795Z,2.8159919999999996,-1.809937,0.7673810000000001
2019-05-07T03:08:19.669795Z,1.510476,-1.120309,-0.14920799999999998
2019-05-07T03:08:19.870795Z,0.114098,-0.456595,0.551987
2019-05-07T03:08:20.068795Z,0.080458,-0.384869,0.742548
2019-05-07T03:08:20.271795Z,0.27470700000000003,-2.050648,0.280017
2019-05-07T03:08:20.472795Z,0.223467,-0.9264760000000001,-0.704781
2019-05-07T03:08:20.672795Z,0.312334,0.039662,1.122795
2019-05-07T03:08:20.870795Z,-0.580788,-1.044196,0.669838
2019-05-07T03:08:21.073795Z,0.046881,-1.460014,-0.347514
2019-05-07T03:08:21.270795Z,0.5494220000000001,-0.40821,0.167244
2019-05-07T03:08:21.472795Z,0.9686370000000001,-0.477646,1.4644979999999999
2019-05-07T03:08:21.670795Z,0.9722569999999999,-1.050951,-0.7434
2019-05-07T03:08:21.871795Z,-0.159641,-0.52036,-0.180052
2019-05-07T03:08:22.074795Z,-0.106196,-0.577122,1.6412759999999997
2019-05-07T03:08:22.273795Z,0.5157189999999999,-1.1980680000000001,-0.263613
2019-05-07T03:08:22.475795Z,0.211389,-0.663292,-0.3484
2019-05-07T03:08:22.672795Z,-0.0853,-0.329175,0.992569
2019-05-07T03:08:22.871795Z,0.27689899999999995,-1.13066,-0.09539
2019-05-07T03:08:23.073795Z,-0.308527,-0.9754790000000001,-0.310608
2019-05-07T03:08:23.274795Z,-0.42383000000000004,-0.023497999999999998,0.9842
2019-05-07T03:08:23.472795Z,-0.273511,-0.506297,0.662664
2019-05-07T03:08:23.675795Z,-0.559419,-0.891352,-0.47938000000000003
2019-05-07T03:08:23.875795Z,0.175594,-0.369643,0.195267
2019-05-07T03:08:24.078795Z,0.262408,-0.711277,1.242738
2019-05-07T03:08:24.274795Z,-0.485728,-1.3790120000000001,-0.569131
2019-05-07T03:08:24.474795Z,-1.1785459999999999,-0.785331,-0.306528
2019-05-07T03:08:24.676795Z,-0.047424,-3.03955,1.675789
2019-05-07T03:08:24.876795Z,-0.13388699999999998,-3.475806,0.925394
2019-05-07T03:08:25.073795Z,0.48851000000000006,-1.782291,0.629075
2019-05-07T03:08:25.276795Z,0.170193,-2.0186669999999998,1.11519
2019-05-07T03:08:25.475795Z,0.36805,-1.8998560000000002,1.078267
2019-05-07T03:08:25.676795Z,0.899223,-1.8986040000000002,0.24286999999999997
2019-05-07T03:08:25.878795Z,0.614819,-1.036406,-0.06146
2019-05-07T03:08:26.078795Z,0.192748,0.0037920000000000002,0.33448
2019-05-07T03:08:26.275795Z,0.46687700000000004,-0.427987,1.48632
2019-05-07T03:08:26.477795Z,0.798813,-1.32303,0.651456
2019-05-07T03:08:26.677795Z,0.736341,-1.1536629999999999,-0.9115700000000001
2019-05-07T03:08:26.876795Z,0.43967399999999995,-0.04551,0.180806
2019-05-07T03:08:27.078795Z,0.693166,0.162936,0.954521
2019-05-07T03:08:27.276795Z,0.5978359999999999,-0.883517,-0.292072
2019-05-07T03:08:27.477795Z,1.094052,-0.34925900000000004,-0.42494499999999996
2019-05-07T03:08:27.678795Z,0.118426,0.043655,0.632517
2019-05-07T03:08:27.877795Z,0.17264100000000002,-0.200796,0.31945300000000004
2019-05-07T03:08:28.078795Z,-0.152341,-0.627555,-0.244025
2019-05-07T03:08:28.279795Z,0.243002,0.365287,0.19484
2019-05-07T03:08:28.509795Z,0.203293,-0.13416199999999998,0.8302959999999999
2019-05-07T03:08:28.680795Z,0.351329,-1.131723,-0.31912399999999996
2019-05-07T03:08:28.881795Z,0.477433,-0.158881,-0.687294
2019-05-07T03:08:29.080795Z,0.8965360000000001,0.342771,1.148726
2019-05-07T03:08:29.280795Z,0.67533,-1.200146,0.7866029999999999
2019-05-07T03:08:29.477795Z,0.9921909999999999,-0.9625090000000001,-0.558629
2019-05-07T03:08:29.680795Z,1.360657,-0.495937,1.064207
2019-05-07T03:08:29.879795Z,1.497533,-1.184508,0.600906
2019-05-07T03:08:30.079795Z,0.774791,-0.9354020000000001,-0.246554
2019-05-07T03:08:30.280795Z,0.155658,-0.190243,1.135126
2019-05-07T03:08:30.484795Z,0.11118399999999999,-1.332144,0.737736
2019-05-07T03:08:30.678795Z,0.449692,-1.28366,-0.45572399999999996
2019-05-07T03:08:30.881795Z,1.094052,-0.962326,1.134048
2019-05-07T03:08:31.081795Z,1.816097,-1.28908,0.766228
2019-05-07T03:08:31.283795Z,1.9351209999999999,-1.124666,0.308392
2019-05-07T03:08:31.482795Z,0.843884,-0.315984,0.273661
2019-05-07T03:08:31.682795Z,0.21371500000000002,-0.80281,0.9468190000000001
2019-05-07T03:08:31.921795Z,0.159115,-1.23106,-0.749698
2019-05-07T03:08:32.083795Z,-0.08303300000000001,-0.335901,-0.183697
2019-05-07T03:08:32.282795Z,0.268966,0.086403,1.235085
2019-05-07T03:08:32.481795Z,0.726514,-1.6497400000000002,0.544484
2019-05-07T03:08:32.683795Z,0.532646,-1.032517,-0.644383
2019-05-07T03:08:32.881795Z,-0.070313,-0.10943599999999999,0.566469
2019-05-07T03:08:33.102795Z,-0.063442,-1.056884,1.007388
2019-05-07T03:08:33.282795Z,0.284059,-1.068784,-0.544141
2019-05-07T03:08:33.485795Z,0.276517,-0.322875,0.363993
2019-05-07T03:08:33.684795Z,0.737297,-0.738283,1.300231
2019-05-07T03:08:33.882795Z,0.088777,-1.028527,-0.303348
2019-05-07T03:08:34.083795Z,-0.9187540000000001,-0.352646,-0.724997
2019-05-07T03:08:34.282795Z,-1.21143,-1.038166,1.375629
2019-05-07T03:08:34.487795Z,-0.7719020000000001,-2.134766,0.191699
2019-05-07T03:08:34.685795Z,-0.787382,-0.5445439999999999,-0.029258
2019-05-07T03:08:34.884795Z,0.657242,0.523642,0.918592
2019-05-07T03:08:35.083795Z,1.0766,-0.8556469999999999,0.499266
2019-05-07T03:08:35.286795Z,0.755685,-0.734282,-1.129528
2019-05-07T03:08:35.485795Z,0.252731,0.33811399999999997,0.18010299999999999
2019-05-07T03:08:35.686795Z,-0.129115,0.12118599999999999,0.804674
2019-05-07T03:08:35.885795Z,0.517312,-0.952125,0.331239
2019-05-07T03:08:36.094795Z,0.462888,-0.060715,-1.120001
2019-05-07T03:08:36.284795Z,0.507199,0.365176,1.058898
2019-05-07T03:08:36.484795Z,1.065337,-0.24996100000000002,0.216662
2019-05-07T03:08:36.685795Z,0.591298,-0.535975,-0.68404
2019-05-07T03:08:36.885795Z,0.481261,0.482793,-0.0743
2019-05-07T03:08:37.087795Z,0.267917,0.440004,1.288553
2019-05-07T03:08:37.303795Z,0.042889,-1.040634,-0.194983
2019-05-07T03:08:37.487795Z,0.036388,-0.368628,-0.361213
2019-05-07T03:08:37.687795Z,0.259167,-0.094929,0.722528
2019-05-07T03:08:37.892795Z,-0.00278,-0.772794,-0.118375
2019-05-07T03:08:38.088795Z,-1.036599,-0.918465,-0.094144
2019-05-07T03:08:38.287795Z,-1.2090530000000002,-1.323024,0.35937199999999997
2019-05-07T03:08:38.485795Z,-0.682198,-1.609467,1.08677
2019-05-07T03:08:38.686795Z,0.339432,-0.767939,0.104131
2019-05-07T03:08:38.889795Z,1.079556,0.278384,0.5097550000000001
2019-05-07T03:08:39.089795Z,1.954373,-0.088245,0.44761599999999996
2019-05-07T03:08:39.290795Z,1.516463,-0.002798,-0.6251220000000001
2019-05-07T03:08:39.488795Z,1.038831,0.8375600000000001,-0.929776
2019-05-07T03:08:39.689795Z,0.909855,1.085764,1.127146
2019-05-07T03:08:39.889795Z,0.160553,-0.8610270000000001,0.424187
2019-05-07T03:08:40.090795Z,0.228512,-0.9287350000000001,-0.550541
2019-05-07T03:08:40.289795Z,0.575769,0.518081,0.388625
2019-05-07T03:08:40.489795Z,0.9353229999999999,0.11406,0.689996
2019-05-07T03:08:40.722795Z,1.36391,-0.75537,-0.731424
2019-05-07T03:08:40.890795Z,0.526293,0.199777,-0.603414
2019-05-07T03:08:41.091795Z,0.772022,0.7977420000000001,0.49228500000000003
2019-05-07T03:08:41.291795Z,-0.060371,-0.8351280000000001,0.270669
2019-05-07T03:08:41.493795Z,-0.089938,-0.6713520000000001,-0.34175900000000003
2019-05-07T03:08:41.692795Z,-0.374954,-0.04373,0.350825
2019-05-07T03:08:41.890795Z,-0.019425,-0.517521,1.02146
2019-05-07T03:08:42.110795Z,0.708558,-0.505049,-0.314377
2019-05-07T03:08:42.294795Z,0.488021,0.08452799999999999,-0.497771
2019-05-07T03:08:42.491795Z,0.634049,0.816684,0.12704200000000002
2019-05-07T03:08:42.689795Z,1.468332,-0.638069,0.81747
2019-05-07T03:08:42.891795Z,1.047778,-0.5093310000000001,-0.273767
2019-05-07T03:08:43.091795Z,0.7520640000000001,-0.051951,-0.06525800000000001
2019-05-07T03:08:43.297795Z,0.293446,0.202048,-0.024099000000000002
2019-05-07T03:08:43.492795Z,0.677079,-0.077247,0.166016
2019-05-07T03:08:43.693795Z,0.455794,0.138148,-0.48381499999999994
2019-05-07T03:08:43.892795Z,0.392356,0.484863,0.374357
2019-05-07T03:08:44.092795Z,0.042041,-0.131402,-0.112876
2019-05-07T03:08:44.293795Z,-0.392361,-0.026493,-0.606869
2019-05-07T03:08:44.493795Z,0.12497799999999999,0.670579,-0.13224
2019-05-07T03:08:44.694795Z,0.711202,0.7878970000000001,0.508396
2019-05-07T03:08:44.891795Z,0.169267,-0.8736879999999999,-0.25169400000000003
2019-05-07T03:08:45.095795Z,0.369297,-0.161114,-0.585805
2019-05-07T03:08:45.293795Z,-0.07372100000000001,0.6322260000000001,0.655187
2019-05-07T03:08:45.493795Z,-0.285159,-0.206765,0.463017
2019-05-07T03:08:45.693795Z,-0.103578,-0.8377,-0.734349
2019-05-07T03:08:45.894795Z,0.004123,0.401442,-0.14727200000000001
2019-05-07T03:08:46.094795Z,-0.064013,0.480392,0.540696
2019-05-07T03:08:46.295795Z,0.278729,-0.825773,-0.19634400000000002
2019-05-07T03:08:46.495795Z,0.177866,-0.239486,-0.09246499999999999
2019-05-07T03:08:46.693795Z,0.0068980000000000005,0.503467,0.570002
2019-05-07T03:08:46.895795Z,0.014846000000000002,-0.238527,0.094426
2019-05-07T03:08:47.098795Z,-0.035371,-0.711501,-0.7199369999999999
2019-05-07T03:08:47.294795Z,0.370107,0.050677,0.9581620000000001
2019-05-07T03:08:47.496795Z,1.187843,-0.619286,0.689237
2019-05-07T03:08:47.696795Z,0.8331790000000001,-0.5560970000000001,-0.73033
2019-05-07T03:08:47.895795Z,0.746777,-0.38066500000000003,0.248061
2019-05-07T03:08:48.095795Z,1.283383,-0.9288959999999999,1.33637
2019-05-07T03:08:48.297795Z,1.006572,-2.217878,0.609679
2019-05-07T03:08:48.517795Z,0.367525,-1.5508790000000001,0.003964
2019-05-07T03:08:48.698795Z,-0.17443399999999998,-0.868597,1.085593
2019-05-07T03:08:48.897795Z,0.944327,-1.561577,0.9995209999999999
2019-05-07T03:08:49.098795Z,1.326531,-1.492632,-0.045438
2019-05-07T03:08:49.297795Z,1.230866,-0.9437979999999999,0.29818
2019-05-07T03:08:49.498795Z,1.246262,-1.373253,1.76879
2019-05-07T03:08:49.698795Z,1.113394,-2.232351,0.321589
2019-05-07T03:08:49.897795Z,1.057763,-1.118989,-0.018038
2019-05-07T03:08:50.113795Z,0.986843,-0.671508,0.728292
2019-05-07T03:08:50.297795Z,1.6519169999999999,-0.8596020000000001,0.77232
2019-05-07T03:08:50.499795Z,1.302554,-0.9746440000000001,0.29170300000000005
2019-05-07T03:08:50.727795Z,1.268255,0.042999,-0.9067049999999999
2019-05-07T03:08:50.898795Z,0.492242,0.508488,0.554218
2019-05-07T03:08:51.098795Z,0.373411,-0.302161,0.109175
2019-05-07T03:08:51.299795Z,0.205808,-0.567176,0.14011700000000002
2019-05-07T03:08:51.498795Z,0.45887700000000003,-0.131466,-0.258801
2019-05-07T03:08:51.699795Z,0.355706,0.08027999999999999,0.386954
2019-05-07T03:08:51.902795Z,0.7776649999999999,-0.607941,0.187409
2019-05-07T03:08:52.099795Z,0.652543,-0.174796,-0.43485100000000004
2019-05-07T03:08:52.301795Z,0.213975,0.35238600000000003,0.41647700000000004
2019-05-07T03:08:52.503795Z,-0.067734,-0.075248,1.187147
2019-05-07T03:08:52.752795Z,0.15129700000000001,-0.640766,-1.096684
2019-05-07T03:08:52.900795Z,0.026661,-0.083719,-0.401136
2019-05-07T03:08:53.100795Z,0.9413950000000001,0.210988,0.9521120000000001
2019-05-07T03:08:53.301795Z,0.578073,-0.534827,-0.335785
2019-05-07T03:08:53.500795Z,0.51302,-0.106839,-0.454793
2019-05-07T03:08:53.704795Z,0.168514,0.18504400000000001,0.690199
2019-05-07T03:08:53.904795Z,0.252227,-0.439151,0.903543
