Datetime,accx,accy,accz
2019-05-23T04:09:44.478218Z,0.502075,0.286682,-0.054081
2019-05-23T04:09:44.519218Z,0.59655,0.347725,-0.07157000000000001
2019-05-23T04:09:44.557218Z,0.154497,0.063559,-0.056670000000000005
2019-05-23T04:09:44.598218Z,-0.20513499999999998,-0.180176,0.169844
2019-05-23T04:09:44.638218Z,-0.354419,-0.301865,0.20508800000000002
2019-05-23T04:09:44.678218Z,-0.5871689999999999,-0.29939699999999997,-0.26997600000000005
2019-05-23T04:09:44.718218Z,-0.101713,-0.030664999999999998,-0.32716799999999996
2019-05-23T04:09:44.758218Z,-0.073379,-0.018721,-0.326395
2019-05-23T04:09:44.799218Z,0.1127,0.224201,-0.214394
2019-05-23T04:09:44.840218Z,-0.101268,0.349505,-0.30682
2019-05-23T04:09:44.878218Z,-0.119402,0.360128,-0.306261
2019-05-23T04:09:44.918218Z,-0.182588,0.42940500000000004,-0.581149
2019-05-23T04:09:44.959218Z,-0.300847,0.486713,-0.135709
2019-05-23T04:09:44.999218Z,-0.330175,0.46443199999999996,-0.12726800000000002
2019-05-23T04:09:45.040218Z,-0.227237,0.6561130000000001,0.038784
2019-05-23T04:09:45.079218Z,0.119164,1.012175,-0.029619
2019-05-23T04:09:45.119218Z,0.12047100000000001,1.043943,-0.044895
2019-05-23T04:09:45.159218Z,0.25642600000000004,1.7228029999999999,-0.25105500000000003
2019-05-23T04:09:45.200218Z,-0.044073,1.657068,0.372109
2019-05-23T04:09:45.241218Z,0.071607,1.612095,0.368464
2019-05-23T04:09:45.279218Z,-0.41624399999999995,0.853118,1.202955
2019-05-23T04:09:45.319218Z,-0.289166,0.48635500000000004,1.047605
2019-05-23T04:09:45.361218Z,-0.169262,0.345923,1.078877
2019-05-23T04:09:45.400218Z,0.656777,0.16553099999999998,0.20010799999999998
2019-05-23T04:09:45.443218Z,0.306154,-0.42817200000000005,0.12031800000000001
2019-05-23T04:09:45.481218Z,0.38871300000000003,-0.447089,0.131878
2019-05-23T04:09:45.520218Z,0.088726,-1.39854,0.174327
2019-05-23T04:09:45.560218Z,0.539085,-1.502202,-0.228621
2019-05-23T04:09:45.604218Z,0.638045,-1.456602,-0.224573
2019-05-23T04:09:45.638218Z,1.1703649999999999,-0.910201,-0.9956799999999999
2019-05-23T04:09:45.742218Z,1.202495,-0.822517,-1.160463
2019-05-23T04:09:45.743218Z,1.093538,-0.7568159999999999,-1.169106
2019-05-23T04:09:45.769218Z,1.083583,-0.732526,0.316272
2019-05-23T04:09:45.800218Z,0.43997299999999995,-0.539694,0.15911199999999998
2019-05-23T04:09:45.839218Z,0.37859899999999996,-0.602859,0.181857
2019-05-23T04:09:45.921218Z,1.019331,-0.45506199999999997,0.5527890000000001
2019-05-23T04:09:45.922218Z,0.91704,-0.5810930000000001,0.5958829999999999
2019-05-23T04:09:46.000218Z,0.809963,-0.77783,0.674354
2019-05-23T04:09:46.002218Z,0.813006,-0.9388719999999999,0.745798
2019-05-23T04:09:46.040218Z,1.447142,-1.512912,1.573754
2019-05-23T04:09:46.102218Z,1.482531,-1.757311,2.375443
2019-05-23T04:09:46.162218Z,1.4129120000000002,-1.7715029999999998,2.356134
2019-05-23T04:09:46.163218Z,1.348061,-1.782704,2.336186
2019-05-23T04:09:46.202218Z,1.332273,-1.793159,2.3157419999999997
2019-05-23T04:09:46.242218Z,1.9432770000000001,-0.389235,-0.5734020000000001
2019-05-23T04:09:46.280218Z,1.494189,-1.175065,-0.43159899999999995
2019-05-23T04:09:46.320218Z,1.535385,-1.224725,-0.39403299999999997
2019-05-23T04:09:46.360218Z,0.5347149999999999,-1.258628,-0.408946
2019-05-23T04:09:46.400218Z,0.23725500000000002,-0.726172,-1.169251
2019-05-23T04:09:46.441218Z,0.10718599999999999,-0.905892,-1.0410760000000001
2019-05-23T04:09:46.480218Z,-0.35636599999999996,-0.285071,-0.11328099999999999
2019-05-23T04:09:46.521218Z,0.726089,-0.190451,1.149563
2019-05-23T04:09:46.561218Z,0.910416,-0.26569899999999996,1.1659950000000001
2019-05-23T04:09:46.601218Z,-0.6117060000000001,-0.061132000000000006,0.504441
2019-05-23T04:09:46.640218Z,-0.449377,0.334931,0.07587
2019-05-23T04:09:46.680218Z,-0.40231100000000003,0.333929,0.071
2019-05-23T04:09:46.721218Z,-0.46178100000000005,0.42562,0.620206
2019-05-23T04:09:46.760218Z,-1.131048,-0.87172,1.4150040000000002
2019-05-23T04:09:46.801218Z,-1.044191,-0.8192209999999999,1.3693440000000001
2019-05-23T04:09:46.841218Z,-1.7563990000000003,-1.7220509999999998,1.302238
2019-05-23T04:09:46.883218Z,-0.088372,-1.46326,1.015469
2019-05-23T04:09:46.922218Z,-0.008226,-1.390024,0.9709840000000001
2019-05-23T04:09:46.962218Z,0.145779,-1.630662,-0.317155
2019-05-23T04:09:47.000218Z,-0.187921,-1.2314319999999999,-1.6788349999999999
2019-05-23T04:09:47.053218Z,-0.18854500000000002,-1.077265,-1.7196770000000001
2019-05-23T04:09:47.087218Z,-0.070798,-1.0427030000000002,-0.469527
2019-05-23T04:09:47.120218Z,-0.786758,-1.015559,0.281442
2019-05-23T04:09:47.161218Z,-0.8775059999999999,-1.06282,0.303609
2019-05-23T04:09:47.200218Z,-0.637302,-0.75535,0.971835
2019-05-23T04:09:47.242218Z,-0.03482,-0.502722,1.2782850000000001
2019-05-23T04:09:47.282218Z,-0.20965999999999999,-0.564042,1.296173
2019-05-23T04:09:47.326218Z,0.241371,-0.381758,2.224816
2019-05-23T04:09:47.361218Z,-0.106064,-0.249912,0.9491459999999999
2019-05-23T04:09:47.400218Z,0.084589,0.031882,0.802554
2019-05-23T04:09:47.441218Z,0.839458,-0.553084,2.031791
2019-05-23T04:09:47.482218Z,0.980411,-1.1054700000000002,-0.30806100000000003
2019-05-23T04:09:47.522218Z,0.967773,-1.246546,-0.222536
2019-05-23T04:09:47.561218Z,1.395016,-1.121795,-1.101202
2019-05-23T04:09:47.601218Z,0.574332,-1.072673,-2.229352
2019-05-23T04:09:47.644218Z,0.41506899999999997,-1.129728,-2.159865
2019-05-23T04:09:47.683218Z,-0.343067,-1.09606,-2.520673
2019-05-23T04:09:47.721218Z,0.079651,-1.257606,-0.44423
2019-05-23T04:09:47.761218Z,0.19412100000000002,-1.176452,-0.468708
2019-05-23T04:09:47.801218Z,-0.38413800000000003,0.001924,0.295586
2019-05-23T04:09:47.843218Z,0.097264,0.8778389999999999,0.299908
2019-05-23T04:09:47.882218Z,0.000739,0.9703930000000001,0.242373
2019-05-23T04:09:47.922218Z,-0.034511,0.756359,2.9303630000000003
2019-05-23T04:09:47.963218Z,0.077817,0.121995,1.7901369999999999
2019-05-23T04:09:48.001218Z,0.14071199999999998,0.165236,1.7369880000000002
2019-05-23T04:09:48.086218Z,-1.227632,-0.333012,1.4840200000000001
2019-05-23T04:09:48.087218Z,-1.400069,-1.445196,0.743296
2019-05-23T04:09:48.121218Z,-1.508108,-1.332323,0.694906
2019-05-23T04:09:48.162218Z,-1.247374,-2.62778,2.173766
2019-05-23T04:09:48.201218Z,-1.1540920000000001,-2.4944509999999998,0.079071
2019-05-23T04:09:48.242218Z,-0.9821690000000001,-2.548218,0.11992
2019-05-23T04:09:48.283218Z,-0.587997,-2.093211,-0.9857239999999999
2019-05-23T04:09:48.322218Z,-0.37258600000000003,-1.9912509999999999,-0.5714319999999999
2019-05-23T04:09:48.361218Z,-0.430716,-2.047498,-0.517411
2019-05-23T04:09:48.402218Z,0.301487,-1.9358229999999998,0.6813
2019-05-23T04:09:48.453218Z,0.655081,-1.5303639999999998,0.919272
2019-05-23T04:09:48.482218Z,0.617031,-1.563777,0.9342959999999999
2019-05-23T04:09:48.521218Z,0.687276,-0.732871,1.681334
2019-05-23T04:09:48.562218Z,0.14793599999999998,0.039895,0.7122970000000001
2019-05-23T04:09:48.602218Z,0.174228,0.174311,0.633125
2019-05-23T04:09:48.642218Z,1.009495,-0.223148,1.691287
2019-05-23T04:09:48.683218Z,0.048529,-0.722299,-0.5724199999999999
2019-05-23T04:09:48.723218Z,-0.036788999999999995,-0.709555,-0.569188
2019-05-23T04:09:48.763218Z,1.219968,-0.691925,0.26700300000000005
2019-05-23T04:09:48.802218Z,1.0763969999999998,-0.934635,-0.9501280000000001
2019-05-23T04:09:48.842218Z,1.254146,-0.972659,-0.8899530000000001
2019-05-23T04:09:48.884218Z,0.875081,-0.598568,-1.303842
2019-05-23T04:09:48.924218Z,-0.036392,-0.527042,-0.527782
2019-05-23T04:09:48.963218Z,0.11482200000000001,-0.521646,-0.497783
2019-05-23T04:09:49.002218Z,0.471242,0.068897,-0.46649300000000005
2019-05-23T04:09:49.044218Z,0.490713,-0.089374,0.17108299999999999
2019-05-23T04:09:49.085218Z,0.490741,0.066278,0.09341
2019-05-23T04:09:49.122218Z,1.0439319999999999,0.181052,1.278319
2019-05-23T04:09:49.224218Z,1.03965,0.002516,1.447188
2019-05-23T04:09:49.225218Z,0.969158,0.128946,1.3576540000000001
2019-05-23T04:09:49.256218Z,1.510802,-0.23029299999999997,3.980401
2019-05-23T04:09:49.284218Z,2.4857270000000002,-2.45456,1.881774
2019-05-23T04:09:49.323218Z,2.528869,-2.568526,1.9318110000000002
2019-05-23T04:09:49.362218Z,2.893981,-1.915658,0.719433
2019-05-23T04:09:49.403218Z,3.604943,-2.308831,1.071899
2019-05-23T04:09:49.442218Z,3.579971,-2.390164,1.110768
2019-05-23T04:09:49.485218Z,4.226621,-1.726635,0.854509
2019-05-23T04:09:49.523218Z,4.751451,-1.555484,0.482509
2019-05-23T04:09:49.571218Z,4.607532,-1.619852,0.514153
2019-05-23T04:09:49.603218Z,2.73108,-1.763409,0.869451
2019-05-23T04:09:49.642218Z,2.679634,-1.8702150000000002,0.9238120000000001
2019-05-23T04:09:49.682218Z,0.36180300000000004,-1.605105,-0.004995
2019-05-23T04:09:49.723218Z,0.007943,-1.698127,0.063079
2019-05-23T04:09:49.762218Z,0.001396,-1.259671,0.61908
2019-05-23T04:09:49.803218Z,-0.169828,-1.82798,0.9900100000000001
2019-05-23T04:09:49.844218Z,-0.089681,-1.876569,1.014138
2019-05-23T04:09:49.883218Z,-0.456554,-1.6977389999999999,1.154881
2019-05-23T04:09:49.923218Z,-1.0501770000000001,-0.9886450000000001,0.263935
2019-05-23T04:09:49.964218Z,-1.052068,-1.075218,0.321695
2019-05-23T04:09:50.004218Z,-0.624518,-0.255826,0.101286
2019-05-23T04:09:50.045218Z,-0.191244,0.25052199999999997,0.302317
2019-05-23T04:09:50.085218Z,-0.144957,0.245459,0.29681799999999997
2019-05-23T04:09:50.125218Z,-0.586145,0.40270100000000003,0.062348
2019-05-23T04:09:50.164218Z,-1.531558,0.021384999999999998,1.105788
2019-05-23T04:09:50.203218Z,-1.500264,-0.15300999999999998,1.19696
2019-05-23T04:09:50.245218Z,-0.9882700000000001,-0.550562,1.508149
2019-05-23T04:09:50.285218Z,-1.486359,-0.9847469999999999,0.695546
2019-05-23T04:09:50.325218Z,-1.6748720000000001,-1.055331,0.754737
2019-05-23T04:09:50.364218Z,-0.478436,-0.768462,1.6423720000000002
2019-05-23T04:09:50.403218Z,-0.18861,-0.964518,-0.539549
2019-05-23T04:09:50.444218Z,-0.171735,-0.794928,-0.633486
2019-05-23T04:09:50.484218Z,-0.689435,-1.557085,0.6458020000000001
2019-05-23T04:09:50.523218Z,-1.191396,-2.2258869999999997,0.037333
2019-05-23T04:09:50.564218Z,-1.153618,-2.23183,0.065623
2019-05-23T04:09:50.604218Z,-1.192647,-1.8974209999999998,-1.002512
2019-05-23T04:09:50.644218Z,-1.0728,-0.9548989999999999,-0.157971
2019-05-23T04:09:50.684218Z,-1.0342799999999999,-0.999658,-0.112294
2019-05-23T04:09:50.725218Z,-0.627927,0.016581,0.134356
2019-05-23T04:09:50.766218Z,-0.248779,0.24053200000000002,0.7041229999999999
2019-05-23T04:09:50.806218Z,-0.34116599999999997,0.230861,0.694167
2019-05-23T04:09:50.843218Z,-0.320984,0.144752,2.547185
2019-05-23T04:09:50.884218Z,0.646145,-0.244885,0.550773
2019-05-23T04:09:50.923218Z,0.63253,-0.210632,0.52077
2019-05-23T04:09:50.963218Z,0.45822799999999997,-0.6176119999999999,1.89083
2019-05-23T04:09:51.004218Z,0.178367,-1.255588,0.036985000000000004
2019-05-23T04:09:51.043218Z,0.266457,-1.153716,-0.01204
2019-05-23T04:09:51.084218Z,0.548231,-1.373237,-0.359237
2019-05-23T04:09:51.148218Z,0.32607600000000003,-1.055379,-0.628195
2019-05-23T04:09:51.175218Z,0.364577,-1.0280799999999999,-0.620801
2019-05-23T04:09:51.204218Z,0.182596,-1.2161819999999999,-1.0941459999999998
2019-05-23T04:09:51.244218Z,-0.073755,-0.21151599999999998,-1.270506
2019-05-23T04:09:51.286218Z,-0.046823000000000004,-0.260734,-1.212787
2019-05-23T04:09:51.323218Z,-0.594665,0.020125,0.43297700000000006
2019-05-23T04:09:51.363218Z,-0.8987200000000001,0.35443,0.019574
2019-05-23T04:09:51.403218Z,-1.021213,0.375146,-0.008945
2019-05-23T04:09:51.444218Z,-0.618458,0.191409,2.208495
2019-05-23T04:09:51.501218Z,0.9030600000000001,0.299806,2.8574189999999997
2019-05-23T04:09:51.524218Z,1.0778809999999999,0.360431,2.7806029999999997
2019-05-23T04:09:51.565218Z,0.553706,-0.19331199999999998,0.929075
2019-05-23T04:09:51.605218Z,0.146412,-1.810787,2.056127
2019-05-23T04:09:51.645218Z,0.0738,-1.838728,2.055472
2019-05-23T04:09:51.684218Z,0.370996,-1.915945,0.574103
2019-05-23T04:09:51.725218Z,1.1734040000000001,-1.455298,-0.34434000000000003
2019-05-23T04:09:51.765218Z,1.255687,-1.445977,-0.31842800000000004
2019-05-23T04:09:51.805218Z,0.9628700000000001,-1.14186,-1.021518
2019-05-23T04:09:51.845218Z,0.581796,-0.7684810000000001,-1.297296
2019-05-23T04:09:51.885218Z,0.57122,-0.771874,-1.264427
2019-05-23T04:09:51.925218Z,0.510991,-0.419469,-0.9909110000000001
2019-05-23T04:09:51.967218Z,-0.020622,0.44165200000000004,0.471484
2019-05-23T04:09:52.005218Z,-0.101011,0.418232,0.46708999999999995
2019-05-23T04:09:52.087218Z,-0.518683,0.28622800000000004,0.966693
2019-05-23T04:09:52.090218Z,1.282276,1.533112,1.3089629999999999
2019-05-23T04:09:52.125218Z,1.12409,1.767322,1.101068
2019-05-23T04:09:52.164218Z,-1.990493,0.515712,1.696309
2019-05-23T04:09:52.205218Z,1.261528,-1.594485,2.730165
2019-05-23T04:09:52.245218Z,1.145316,-1.592052,2.6933540000000002
2019-05-23T04:09:52.290218Z,0.6455310000000001,-1.389391,-0.9682559999999999
2019-05-23T04:09:52.325218Z,1.059589,-1.776846,-0.535587
2019-05-23T04:09:52.365218Z,1.078021,-1.7955009999999998,-0.49203500000000006
2019-05-23T04:09:52.405218Z,0.9314379999999999,-1.352435,-1.304072
2019-05-23T04:09:52.446218Z,0.9822540000000001,-0.7837,-1.394203
2019-05-23T04:09:52.485218Z,1.031251,-0.862799,-1.3020459999999998
2019-05-23T04:09:52.525218Z,0.506931,-0.46013699999999996,0.10338599999999999
2019-05-23T04:09:52.566218Z,-0.24088400000000001,0.287456,0.09424600000000001
2019-05-23T04:09:52.606218Z,-0.36382800000000004,0.25250300000000003,0.102405
2019-05-23T04:09:52.646218Z,0.834449,0.8410479999999999,1.988364
2019-05-23T04:09:52.686218Z,1.6937220000000002,0.268355,2.0803380000000002
2019-05-23T04:09:52.726218Z,1.709803,0.285666,2.033442
2019-05-23T04:09:52.765218Z,1.273844,-0.357442,2.624391
2019-05-23T04:09:52.805218Z,1.763257,-1.525342,1.576634
2019-05-23T04:09:52.846218Z,1.7442990000000003,-1.529834,1.573793
2019-05-23T04:09:52.890218Z,1.396493,-1.859818,1.6160370000000002
2019-05-23T04:09:52.925218Z,1.2580120000000001,-2.4893259999999997,-0.45014099999999996
2019-05-23T04:09:53.016218Z,1.278319,-2.337409,-0.518288
2019-05-23T04:09:53.017218Z,2.562554,-1.106496,-0.422325
2019-05-23T04:09:53.049218Z,1.5431350000000001,-1.229331,0.29651
2019-05-23T04:09:53.085218Z,1.449015,-1.2198440000000002,0.291716
2019-05-23T04:09:53.125218Z,1.918665,-0.9232809999999999,0.378799
2019-05-23T04:09:53.166218Z,1.2983930000000001,-1.045464,0.588047
2019-05-23T04:09:53.210218Z,1.1482290000000002,-1.076228,0.602283
2019-05-23T04:09:53.245218Z,1.218917,-1.102248,1.712969
2019-05-23T04:09:53.286218Z,1.769475,-0.487778,1.897613
2019-05-23T04:09:53.327218Z,1.862127,-0.349906,1.7862689999999999
2019-05-23T04:09:53.369218Z,1.018723,-1.0177399999999999,-0.367356
2019-05-23T04:09:53.406218Z,0.71129,-0.42101000000000005,0.461375
2019-05-23T04:09:53.447218Z,0.593723,-0.461791,0.48251700000000003
2019-05-23T04:09:53.485218Z,1.374926,-0.7932279999999999,0.715312
2019-05-23T04:09:53.528218Z,1.369913,-0.764254,0.070052
2019-05-23T04:09:53.565218Z,1.3230389999999999,-0.736611,0.060858
2019-05-23T04:09:53.606218Z,1.122851,-0.8400790000000001,1.398578
2019-05-23T04:09:53.646218Z,0.888551,-1.192965,1.653907
2019-05-23T04:09:53.686218Z,0.945737,-1.250809,1.6710080000000003
2019-05-23T04:09:53.726218Z,1.158016,-0.692331,1.5576459999999999
2019-05-23T04:09:53.766218Z,0.436949,-1.2388350000000001,2.0339150000000004
2019-05-23T04:09:53.806218Z,0.5747800000000001,-1.316811,2.0549150000000003
2019-05-23T04:09:53.846218Z,1.374207,-2.646025,1.7890169999999999
2019-05-23T04:09:53.886218Z,0.280866,-2.561584,-0.461888
2019-05-23T04:09:53.942218Z,0.289509,-2.4473830000000003,-0.493867
2019-05-23T04:09:53.973218Z,0.905064,-2.097456,1.008227
2019-05-23T04:09:54.006218Z,0.6731689999999999,-1.3791959999999999,0.892515
2019-05-23T04:09:54.046218Z,0.712626,-1.4195149999999999,0.9120360000000001
2019-05-23T04:09:54.087218Z,2.550584,-1.221408,0.538031
2019-05-23T04:09:54.128218Z,2.28571,-1.146791,0.5151
2019-05-23T04:09:54.167218Z,2.274922,-1.259992,0.5859989999999999
2019-05-23T04:09:54.206218Z,2.4644880000000002,-1.298629,1.123415
2019-05-23T04:09:54.247218Z,2.099017,-1.294951,0.259517
2019-05-23T04:09:54.287218Z,1.9894349999999998,-1.147327,0.182449
2019-05-23T04:09:54.327218Z,2.660786,-1.5603989999999999,2.548332
2019-05-23T04:09:54.368218Z,1.557532,-1.7588240000000002,0.474749
2019-05-23T04:09:54.407218Z,1.6792470000000002,-1.59581,0.398843
2019-05-23T04:09:54.447218Z,1.703945,-1.1596440000000001,-0.27670500000000003
2019-05-23T04:09:54.487218Z,0.626102,-1.52111,-0.533216
2019-05-23T04:09:54.526218Z,0.692313,-1.472384,-0.531345
2019-05-23T04:09:54.566218Z,0.602649,-1.1068200000000001,-0.49364300000000005
2019-05-23T04:09:54.614218Z,0.848391,-0.224123,-0.460139
2019-05-23T04:09:54.648218Z,0.704597,-0.327383,-0.407502
2019-05-23T04:09:54.687218Z,0.660941,0.078682,2.229607
2019-05-23T04:09:54.730218Z,0.7441720000000001,8.3e-05,2.235806
2019-05-23T04:09:54.768218Z,-0.08822,-0.413041,1.5099200000000002
2019-05-23T04:09:54.807218Z,-0.045163,-1.62234,3.6449269999999996
2019-05-23T04:09:54.848218Z,0.001893,-1.629644,3.6012169999999997
2019-05-23T04:09:54.888218Z,-0.346789,-1.972952,1.364932
2019-05-23T04:09:54.929218Z,-0.174709,-2.079925,0.7719060000000001
2019-05-23T04:09:54.967218Z,-0.034336,-2.2038919999999997,0.842375
2019-05-23T04:09:55.008218Z,0.321859,-2.182714,-0.48728599999999994
2019-05-23T04:09:55.049218Z,-0.039592,-1.249566,-1.860456
2019-05-23T04:09:55.087218Z,0.001031,-1.368024,-1.744287
2019-05-23T04:09:55.130218Z,-0.109253,-1.549224,-0.627735
2019-05-23T04:09:55.167218Z,-0.030549,-0.051171,-0.8204049999999999
2019-05-23T04:09:55.207218Z,0.047982,0.072094,-0.873303
2019-05-23T04:09:55.249218Z,-0.692713,0.086342,0.075533
2019-05-23T04:09:55.287218Z,-0.6250899999999999,0.79793,1.7277220000000002
2019-05-23T04:09:55.329218Z,-0.9916729999999999,0.799619,1.658634
2019-05-23T04:09:55.368218Z,0.955519,-0.16813499999999998,1.556928
2019-05-23T04:09:55.408218Z,-0.390329,-1.087699,2.2058459999999998
2019-05-23T04:09:55.447218Z,-0.208231,-0.967339,2.133579
2019-05-23T04:09:55.487218Z,0.183934,-1.0746,1.14604
2019-05-23T04:09:55.527218Z,0.867025,-1.083987,0.277715
2019-05-23T04:09:55.569218Z,0.6757380000000001,-1.047228,0.24887399999999998
2019-05-23T04:09:55.608218Z,0.397801,-1.8442869999999998,-1.207347
2019-05-23T04:09:55.649218Z,0.144626,-1.8481849999999997,-1.584394
2019-05-23T04:09:55.732218Z,0.164838,-1.8819169999999998,-1.525777
2019-05-23T04:09:55.732218Z,0.09776,-0.986492,-1.106033
2019-05-23T04:09:55.768218Z,-0.6240829999999999,-0.297506,-0.502641
2019-05-23T04:09:55.808218Z,-0.8039569999999999,-0.37921,-0.458715
2019-05-23T04:09:55.851218Z,-0.152013,0.177439,0.22058200000000003
2019-05-23T04:09:55.892218Z,0.022039,0.5129630000000001,1.4856049999999998
2019-05-23T04:09:55.929218Z,-0.096958,0.48535500000000004,1.469666
2019-05-23T04:09:55.969218Z,0.592727,0.43182200000000004,0.914258
2019-05-23T04:09:56.008218Z,0.500771,-0.20885700000000001,1.694563
2019-05-23T04:09:56.049218Z,0.42859899999999995,-0.10581700000000001,1.617552
2019-05-23T04:09:56.088218Z,1.5702209999999999,-0.906457,2.14927
2019-05-23T04:09:56.128218Z,1.41373,-2.119941,1.9746150000000002
2019-05-23T04:09:56.168218Z,1.7592139999999998,-2.1162970000000003,1.964463
2019-05-23T04:09:56.208218Z,1.368628,-1.6582580000000002,-0.5480659999999999
2019-05-23T04:09:56.249218Z,1.813465,-0.421803,-1.903673
2019-05-23T04:09:56.288218Z,1.949801,-0.334875,-1.8909470000000002
2019-05-23T04:09:56.328218Z,-0.09036799999999999,-0.877742,-0.328852
2019-05-23T04:09:56.369218Z,0.281619,-0.8447969999999999,-1.0075180000000001
2019-05-23T04:09:56.408218Z,0.051348000000000005,-0.8693549999999999,-0.986511
2019-05-23T04:09:56.449218Z,1.139997,-0.283175,0.344389
2019-05-23T04:09:56.489218Z,0.520363,-0.11391400000000002,0.442478
2019-05-23T04:09:56.529218Z,0.6846939999999999,-0.152776,0.46959700000000004
2019-05-23T04:09:56.570218Z,0.775094,0.725238,2.433812
2019-05-23T04:09:56.611218Z,1.371787,-0.33303,1.03223
2019-05-23T04:09:56.651218Z,1.4067319999999999,-0.318015,1.016784
2019-05-23T04:09:56.689218Z,1.758371,-0.28479099999999996,2.945768
2019-05-23T04:09:56.729218Z,1.831596,-1.579593,1.903138
2019-05-23T04:09:56.770218Z,1.8142459999999998,-1.667055,1.933756
2019-05-23T04:09:56.810218Z,2.848146,-1.630847,1.214908
2019-05-23T04:09:56.850218Z,2.159205,-2.645453,-0.474808
2019-05-23T04:09:56.889218Z,2.255943,-2.641009,-0.429175
2019-05-23T04:09:56.969218Z,1.9101279999999998,-1.844396,-0.562751
2019-05-23T04:09:56.979218Z,1.253212,-2.175056,-0.1403
2019-05-23T04:09:57.009218Z,1.153497,-2.16305,-0.133196
2019-05-23T04:09:57.049218Z,1.399572,-1.212853,0.000365
2019-05-23T04:09:57.089218Z,1.237639,-0.7380140000000001,0.507792
2019-05-23T04:09:57.130218Z,1.206417,-0.65446,0.461183
2019-05-23T04:09:57.169218Z,0.44630699999999995,-0.45835,0.29146
2019-05-23T04:09:57.210218Z,0.46346899999999996,-0.047605,-0.051014
2019-05-23T04:09:57.250218Z,0.41153599999999996,-0.032648,-0.060314
2019-05-23T04:09:57.290218Z,0.301649,0.053692,0.349835
2019-05-23T04:09:57.330218Z,0.074395,0.149786,0.6429279999999999
2019-05-23T04:09:57.370218Z,0.09387899999999999,0.14987999999999999,0.632075
2019-05-23T04:09:57.411218Z,-0.302072,0.537766,0.116289
2019-05-23T04:09:57.450218Z,-0.510269,0.725382,0.101511
2019-05-23T04:09:57.490218Z,-0.5047520000000001,0.681149,0.11577
2019-05-23T04:09:57.530218Z,-0.28423899999999996,0.693661,0.552768
2019-05-23T04:09:57.573218Z,0.246908,0.289065,0.17793599999999998
2019-05-23T04:09:57.609218Z,0.302159,0.204288,0.222717
2019-05-23T04:09:57.653218Z,-0.834667,-0.35557300000000003,0.374778
2019-05-23T04:09:57.690218Z,0.431151,-1.480868,1.927445
2019-05-23T04:09:57.729218Z,0.353819,-1.481284,1.908914
2019-05-23T04:09:57.769218Z,-0.710206,-1.9582169999999999,0.831392
2019-05-23T04:09:57.810218Z,0.428775,-2.197429,0.927375
2019-05-23T04:09:57.850218Z,0.408342,-2.247298,0.957319
2019-05-23T04:09:57.890218Z,0.13714,-2.3084759999999998,-0.206695
2019-05-23T04:09:57.930218Z,0.637808,-1.6141590000000001,-0.692171
2019-05-23T04:09:57.970218Z,0.8294950000000001,-1.494438,-0.727394
2019-05-23T04:09:58.010218Z,0.680461,-1.383502,-0.156202
2019-05-23T04:09:58.052218Z,0.320709,-0.775998,0.290907
2019-05-23T04:09:58.091218Z,0.42582299999999995,-0.8311290000000001,0.32709099999999997
2019-05-23T04:09:58.130218Z,0.527316,-0.8481549999999999,0.345425
2019-05-23T04:09:58.170218Z,-0.12158499999999998,-0.7271,0.282049
2019-05-23T04:09:58.211218Z,-0.388123,-0.516745,0.671129
2019-05-23T04:09:58.251218Z,-0.284171,-0.555898,0.69499
2019-05-23T04:09:58.290218Z,-0.160661,-0.34357600000000005,0.529637
2019-05-23T04:09:58.330218Z,-0.893718,-0.925199,0.085509
2019-05-23T04:09:58.401218Z,-0.758781,-0.902914,0.098864
2019-05-23T04:09:58.411218Z,0.196683,-0.586065,0.31419400000000003
2019-05-23T04:09:58.450218Z,-0.511296,-1.191983,0.15066300000000002
2019-05-23T04:09:58.491218Z,-0.48723,-0.9846809999999999,0.055353
2019-05-23T04:09:58.531218Z,1.172045,-0.30696999999999997,0.663751
2019-05-23T04:09:58.570218Z,1.760001,-0.967989,2.079598
2019-05-23T04:09:58.610218Z,1.766118,-0.8938709999999999,2.026668
2019-05-23T04:09:58.652218Z,1.542844,-1.119383,1.663255
2019-05-23T04:09:58.691218Z,2.054958,-1.408147,1.231682
2019-05-23T04:09:58.733218Z,1.741066,-1.438266,1.201333
2019-05-23T04:09:58.771218Z,1.9297229999999999,-1.9993919999999998,1.095181
2019-05-23T04:09:58.812218Z,2.24439,-2.090656,1.061748
2019-05-23T04:09:58.851218Z,2.063661,-2.081985,1.049685
2019-05-23T04:09:58.891218Z,2.028795,-1.517624,0.40733600000000003
2019-05-23T04:09:58.930218Z,2.081913,-1.076251,0.590802
2019-05-23T04:09:58.972218Z,2.054847,-1.097955,0.59791
2019-05-23T04:09:59.012218Z,1.671656,-0.595329,0.42317299999999997
2019-05-23T04:09:59.054218Z,1.431335,-0.07011,0.241419
2019-05-23T04:09:59.091218Z,1.572959,-0.0984,0.254029
2019-05-23T04:09:59.131218Z,0.932567,-0.5943149999999999,0.8443870000000001
2019-05-23T04:09:59.172218Z,0.9135049999999999,-0.683991,1.018765
2019-05-23T04:09:59.212218Z,1.114398,-0.781518,1.067697
2019-05-23T04:09:59.252218Z,1.467057,-1.015189,0.7140489999999999
2019-05-23T04:09:59.292218Z,1.268504,-0.971332,0.15140499999999998
2019-05-23T04:09:59.337218Z,1.212148,-1.148616,0.245837
2019-05-23T04:09:59.371218Z,0.911803,-1.078765,0.31374
2019-05-23T04:09:59.412218Z,0.004014,-1.110133,0.5701930000000001
2019-05-23T04:09:59.452218Z,-0.052687,-1.214127,0.62561
2019-05-23T04:09:59.491218Z,-0.479159,-2.1469810000000003,2.1724069999999998
2019-05-23T04:09:59.533218Z,-1.03471,-2.432075,0.7613
2019-05-23T04:09:59.571218Z,-1.017224,-2.401713,0.754771
2019-05-23T04:09:59.613218Z,-1.213281,-2.377209,0.571752
2019-05-23T04:09:59.656218Z,-0.987085,-2.3910869999999997,0.654954
2019-05-23T04:09:59.692218Z,-0.90379,-2.445698,0.708201
2019-05-23T04:09:59.732218Z,-0.554283,-2.131036,0.950206
2019-05-23T04:09:59.772218Z,0.220863,-1.501887,0.027366
2019-05-23T04:09:59.811218Z,0.280264,-1.4446299999999999,0.016589
2019-05-23T04:09:59.855218Z,0.5616300000000001,-1.337508,0.139087
2019-05-23T04:09:59.892218Z,0.35130700000000004,-1.268869,0.23029899999999998
2019-05-23T04:09:59.933218Z,0.35875,-1.220307,0.21271700000000002
2019-05-23T04:09:59.973218Z,0.350871,-0.727589,0.38154899999999997
2019-05-23T04:10:00.013218Z,0.188151,-0.329814,0.09561900000000001
2019-05-23T04:10:00.053218Z,0.12779300000000002,-0.327859,0.08741499999999999
2019-05-23T04:10:00.093218Z,-0.011284,-0.16538699999999998,0.15279600000000002
2019-05-23T04:10:00.133218Z,-0.12125699999999999,-0.168925,0.37813
2019-05-23T04:10:00.173218Z,-0.12111300000000001,-0.184912,0.382146
2019-05-23T04:10:00.212218Z,-0.11740199999999999,-0.22446100000000002,0.62968
2019-05-23T04:10:00.253218Z,0.077873,-0.173953,1.0146959999999998
2019-05-23T04:10:00.292218Z,0.094907,-0.254735,1.049404
2019-05-23T04:10:00.332218Z,0.037054000000000004,-0.178299,0.9370569999999999
2019-05-23T04:10:00.373218Z,0.42757700000000004,0.183672,0.683121
2019-05-23T04:10:00.412218Z,0.430804,0.1926,0.665937
2019-05-23T04:10:00.452218Z,0.502616,-0.44049799999999995,-0.27877199999999996
2019-05-23T04:10:00.495218Z,0.50783,-0.8363229999999999,0.6261329999999999
2019-05-23T04:10:00.534218Z,0.47643,-0.9462010000000001,0.68838
2019-05-23T04:10:00.572218Z,0.48267,-1.212556,0.81165
2019-05-23T04:10:00.614218Z,1.271048,-1.059767,-0.023346000000000002
2019-05-23T04:10:00.654218Z,1.311118,-0.9812719999999999,-0.05338300000000001
2019-05-23T04:10:00.696218Z,1.150391,-1.033085,-0.741441
2019-05-23T04:10:00.732218Z,0.705013,-0.7806649999999999,-0.516117
2019-05-23T04:10:00.772218Z,0.5157149999999999,-0.61735,-0.6107859999999999
2019-05-23T04:10:00.815218Z,0.40797100000000003,-0.6010479999999999,0.21952800000000003
2019-05-23T04:10:00.854218Z,0.640789,-0.557855,0.8825430000000001
2019-05-23T04:10:00.895218Z,0.653092,-0.505092,0.8466940000000001
2019-05-23T04:10:00.933218Z,0.447006,-0.406968,0.166759
2019-05-23T04:10:00.977218Z,0.24371700000000002,0.009336,-0.57367
2019-05-23T04:10:01.013218Z,0.286121,0.128484,-0.618829
2019-05-23T04:10:01.083218Z,-0.507479,-0.047648,-0.624907
2019-05-23T04:10:01.094218Z,-0.741746,0.09097000000000001,0.406021
2019-05-23T04:10:01.133218Z,-0.861391,0.017231,0.425388
2019-05-23T04:10:01.173218Z,-0.8848280000000001,0.083423,0.529238
2019-05-23T04:10:01.214218Z,-0.017906000000000002,0.0031079999999999997,0.9124129999999999
2019-05-23T04:10:01.253218Z,-0.006148,-0.057074,0.928124
2019-05-23T04:10:01.295218Z,0.128072,-0.348998,0.7311489999999999
2019-05-23T04:10:01.332218Z,0.55574,-0.21222399999999997,0.43623199999999995
2019-05-23T04:10:01.373218Z,0.40271,-0.210772,0.425332
2019-05-23T04:10:01.431218Z,1.061628,0.072056,0.3744
2019-05-23T04:10:01.454218Z,1.025859,-0.45731000000000005,0.814096
2019-05-23T04:10:01.494218Z,0.948959,-0.409634,0.7801779999999999
2019-05-23T04:10:01.533218Z,0.23288899999999998,-0.436641,0.766401
2019-05-23T04:10:01.574218Z,0.5179,-0.11934700000000001,0.45652
2019-05-23T04:10:01.613218Z,0.5164350000000001,-0.151268,0.466476
2019-05-23T04:10:01.654218Z,0.18388800000000002,-0.025131,0.071536
2019-05-23T04:10:01.693218Z,0.37301799999999996,-0.316739,0.636494
2019-05-23T04:10:01.733218Z,0.548666,-0.399425,0.673812
2019-05-23T04:10:01.774218Z,0.628467,-0.499507,0.20902800000000002
2019-05-23T04:10:01.814218Z,0.729838,-0.696851,-0.576245
2019-05-23T04:10:01.854218Z,0.801374,-0.809076,-0.48673900000000003
2019-05-23T04:10:01.894218Z,0.48056499999999996,-1.064871,-0.777784
2019-05-23T04:10:01.933218Z,0.893465,-0.8073100000000001,-0.890488
2019-05-23T04:10:01.974218Z,0.848549,-0.783416,-0.884402
2019-05-23T04:10:02.014218Z,0.590842,-0.565566,-0.32269899999999996
2019-05-23T04:10:02.055218Z,0.232663,-0.232116,0.14569000000000001
2019-05-23T04:10:02.095218Z,0.16183499999999998,-0.21515399999999998,0.13203
2019-05-23T04:10:02.134218Z,0.012426999999999999,0.21131799999999998,0.190492
2019-05-23T04:10:02.174218Z,-0.373548,0.9966790000000001,0.833641
2019-05-23T04:10:02.215218Z,-0.377035,1.0261559999999998,0.790842
2019-05-23T04:10:02.254218Z,0.20671599999999998,0.714167,0.7565310000000001
2019-05-23T04:10:02.295218Z,0.17084100000000002,0.337802,0.543883
2019-05-23T04:10:02.334218Z,0.036348,0.428616,0.47655
2019-05-23T04:10:02.374218Z,-0.21259699999999998,-0.298501,1.199704
2019-05-23T04:10:02.414218Z,0.755282,-1.2555100000000001,1.111951
2019-05-23T04:10:02.454218Z,0.855814,-1.217541,1.082624
2019-05-23T04:10:02.495218Z,0.483871,-1.0433299999999999,-1.781064
2019-05-23T04:10:02.534218Z,-0.265153,-1.167792,-0.8769950000000001
2019-05-23T04:10:02.575218Z,-0.450768,-1.091443,-0.8867809999999999
2019-05-23T04:10:02.616218Z,-0.38969000000000004,-0.91766,0.137073
2019-05-23T04:10:02.654218Z,0.047856,-0.726441,-0.16208699999999998
2019-05-23T04:10:02.721218Z,0.187746,-0.679353,-0.181288
2019-05-23T04:10:02.748218Z,0.6814640000000001,-0.090323,0.673532
2019-05-23T04:10:02.776218Z,-0.405125,-0.152369,-0.268029
2019-05-23T04:10:02.814218Z,-0.374555,-0.168293,-0.254679
2019-05-23T04:10:02.854218Z,0.226785,0.30401500000000004,-0.162849
2019-05-23T04:10:02.895218Z,0.059737,0.42818500000000004,0.643821
2019-05-23T04:10:02.935218Z,0.107128,0.42087600000000003,0.632161
2019-05-23T04:10:02.974218Z,0.428415,0.702928,0.610574
2019-05-23T04:10:03.015218Z,0.448775,-0.062581,0.8932829999999999
2019-05-23T04:10:03.061218Z,0.340396,-0.164577,0.9269569999999999
2019-05-23T04:10:03.095218Z,-0.522141,-0.742216,1.1539549999999998
2019-05-23T04:10:03.135218Z,-0.012657,-0.8679110000000001,0.938616
2019-05-23T04:10:03.175218Z,0.283695,0.548906,-0.12078299999999999
2019-05-23T04:10:03.216218Z,-0.281552,-0.493361,-0.80577
2019-05-23T04:10:03.254218Z,-0.348078,-0.330876,-0.873576
2019-05-23T04:10:03.295218Z,-1.04037,-1.200906,-0.150796
2019-05-23T04:10:03.335218Z,0.026012999999999998,-1.010202,-0.126895
2019-05-23T04:10:03.375218Z,-0.073185,-0.988067,-0.133196
2019-05-23T04:10:03.415218Z,0.08770800000000001,-0.721038,-0.031638
2019-05-23T04:10:03.458218Z,0.24772399999999997,0.23212399999999997,-0.21564699999999998
2019-05-23T04:10:03.496218Z,0.278397,0.111596,-0.155727
2019-05-23T04:10:03.535218Z,0.044343,0.543095,0.165731
2019-05-23T04:10:03.577218Z,0.45330600000000004,0.619145,0.014730000000000002
2019-05-23T04:10:03.617218Z,0.46424399999999993,0.5082840000000001,0.068351
2019-05-23T04:10:03.655218Z,-0.389538,0.6259979999999999,0.36801100000000003
2019-05-23T04:10:03.759218Z,0.9507639999999999,1.324171,0.131306
2019-05-23T04:10:03.760218Z,0.951248,1.434621,0.057402
2019-05-23T04:10:03.788218Z,-0.636487,-0.172276,1.993218
2019-05-23T04:10:03.816218Z,0.562566,-1.325106,1.183892
2019-05-23T04:10:03.855218Z,0.661517,-1.440545,1.240758
2019-05-23T04:10:03.896218Z,0.5673239999999999,-1.225435,-0.709996
2019-05-23T04:10:03.936218Z,0.43430100000000005,-1.488214,-1.533415
2019-05-23T04:10:03.976218Z,0.43599899999999997,-1.387753,-1.549768
2019-05-23T04:10:04.015218Z,-0.101355,-1.191195,-0.8577799999999999
2019-05-23T04:10:04.056218Z,-0.019385,-0.734545,-0.570155
2019-05-23T04:10:04.101218Z,-0.046196,-0.686336,-0.580044
2019-05-23T04:10:04.136218Z,-0.0032619999999999997,-0.191696,-0.3413
2019-05-23T04:10:04.177218Z,-0.318851,0.301699,-0.040733
2019-05-23T04:10:04.216218Z,-0.355364,0.359106,-0.072129
2019-05-23T04:10:04.257218Z,-0.193187,0.492287,1.385592
2019-05-23T04:10:04.297218Z,0.020607,0.570314,0.9219959999999999
2019-05-23T04:10:04.337218Z,0.009528,0.578105,0.8980229999999999
2019-05-23T04:10:04.377218Z,-0.616125,0.673474,1.620683
2019-05-23T04:10:04.416218Z,-0.400572,0.272944,0.690354
2019-05-23T04:10:04.457218Z,-0.501586,0.260175,0.6869
2019-05-23T04:10:04.497218Z,-0.333826,-1.017684,1.794014
2019-05-23T04:10:04.536218Z,-0.32765,-1.391291,-0.001835
2019-05-23T04:10:04.578218Z,-0.20102799999999998,-1.350682,-0.013940000000000001
2019-05-23T04:10:04.615218Z,-0.62043,-1.684979,-0.786333
2019-05-23T04:10:04.693218Z,-0.23405700000000002,-1.0110270000000001,-0.27660999999999997
2019-05-23T04:10:04.711218Z,-0.276706,-1.013303,-0.261395
2019-05-23T04:10:04.739218Z,-0.507308,-0.9789200000000001,-0.553384
2019-05-23T04:10:04.776218Z,0.183856,-0.131608,-0.463081
2019-05-23T04:10:04.816218Z,0.252974,-0.106597,-0.468501
2019-05-23T04:10:04.857218Z,-0.150086,-0.069504,-0.354383
2019-05-23T04:10:04.897218Z,-0.47838,0.347314,0.464049
2019-05-23T04:10:04.937218Z,-0.524619,0.32852800000000004,0.46383599999999997
2019-05-23T04:10:04.976218Z,-0.339671,0.294031,1.1426209999999999
2019-05-23T04:10:05.018218Z,-0.353756,0.394785,1.5156290000000001
2019-05-23T04:10:05.057218Z,-0.335198,0.301952,1.536262
2019-05-23T04:10:05.097218Z,0.6077,0.8698799999999999,0.048699
2019-05-23T04:10:05.137218Z,0.344471,-0.079676,0.341043
2019-05-23T04:10:05.177218Z,0.13309100000000001,-0.016902,0.30499499999999996
2019-05-23T04:10:05.217218Z,1.106883,-1.58093,1.06971
2019-05-23T04:10:05.259218Z,0.343695,-1.438025,-0.705117
2019-05-23T04:10:05.298218Z,0.48858999999999997,-1.312777,-0.747438
2019-05-23T04:10:05.337218Z,-0.173847,-1.270952,-0.5827760000000001
2019-05-23T04:10:05.377218Z,-0.368586,-1.066227,-0.349881
2019-05-23T04:10:05.417218Z,-0.452392,-1.026828,-0.354623
2019-05-23T04:10:05.458218Z,-0.330403,-0.46526899999999993,-0.574458
2019-05-23T04:10:05.497218Z,-0.6749729999999999,-0.5045850000000001,-0.641033
2019-05-23T04:10:05.538218Z,-0.6605439999999999,-0.47092,-0.642323
2019-05-23T04:10:05.605218Z,-1.126399,0.251179,0.08784700000000001
2019-05-23T04:10:05.617218Z,-1.661229,0.5032260000000001,0.493464
2019-05-23T04:10:05.658218Z,-1.8070560000000002,0.39729000000000003,0.5393060000000001
2019-05-23T04:10:05.697218Z,-0.728113,0.3427,1.106291
2019-05-23T04:10:05.739218Z,-0.314436,0.418629,0.653567
2019-05-23T04:10:05.778218Z,-0.364209,0.316616,0.6972659999999999
2019-05-23T04:10:05.818218Z,-0.633542,-0.114292,1.200508
2019-05-23T04:10:05.860218Z,-1.28951,-0.18371500000000002,0.24061100000000002
2019-05-23T04:10:05.899218Z,-1.273105,-0.047818,0.160591
2019-05-23T04:10:05.956218Z,-2.1641880000000002,-1.906122,2.52617
2019-05-23T04:10:05.978218Z,-1.3054569999999999,-1.504105,-0.441371
2019-05-23T04:10:06.017218Z,-1.235514,-1.528433,-0.404956
2019-05-23T04:10:06.058218Z,-1.450134,-0.927243,-0.389608
2019-05-23T04:10:06.098218Z,-1.407133,-1.55626,0.819709
2019-05-23T04:10:06.142218Z,-1.3185040000000001,-1.515706,0.79808
2019-05-23T04:10:06.178218Z,-0.9072950000000001,-1.2638909999999999,0.535461
2019-05-23T04:10:06.217218Z,-0.7796270000000001,-1.214063,0.3785
2019-05-23T04:10:06.258218Z,-0.657362,-1.1912049999999998,0.375039
2019-05-23T04:10:06.300218Z,-0.052726999999999996,-0.727114,0.266441
2019-05-23T04:10:06.338218Z,-0.157357,-0.490087,0.284567
2019-05-23T04:10:06.378218Z,-0.120348,-0.527628,0.307923
2019-05-23T04:10:06.418218Z,0.43459899999999996,0.174414,0.236353
2019-05-23T04:10:06.459218Z,0.447283,0.43151999999999996,0.23076799999999997
2019-05-23T04:10:06.499218Z,0.484501,0.409684,0.23904499999999998
2019-05-23T04:10:06.539218Z,0.735446,0.808589,0.246513
2019-05-23T04:10:06.578218Z,0.94414,0.833513,-0.13208699999999998
2019-05-23T04:10:06.617218Z,1.016382,0.85451,-0.14163499999999998
2019-05-23T04:10:06.657218Z,1.083227,0.8712709999999999,-0.14838900000000002
2019-05-23T04:10:06.698218Z,1.554477,0.145726,0.757414
2019-05-23T04:10:06.739218Z,1.3164719999999999,-0.633754,0.067874
2019-05-23T04:10:06.779218Z,1.375733,-0.528482,0.025200999999999998
2019-05-23T04:10:06.818218Z,0.922479,-0.658353,-0.189895
2019-05-23T04:10:06.859218Z,0.560553,-0.7774409999999999,-0.42155600000000004
2019-05-23T04:10:06.922218Z,0.420087,-0.686113,-0.47446800000000006
2019-05-23T04:10:06.953218Z,1.27411,-0.20506799999999997,-0.14594100000000002
2019-05-23T04:10:06.978218Z,1.049309,-0.14943599999999999,0.039129000000000004
2019-05-23T04:10:07.017218Z,1.034108,-0.136736,0.033247000000000006
2019-05-23T04:10:07.058218Z,0.866027,-0.041882,-0.36122600000000005
2019-05-23T04:10:07.099218Z,0.6009939999999999,0.187884,-0.381405
2019-05-23T04:10:07.138218Z,0.627192,0.167741,-0.361856
2019-05-23T04:10:07.180218Z,0.31156,0.536888,-0.291378
2019-05-23T04:10:07.219218Z,0.46788100000000005,1.0353299999999999,-0.20802800000000002
2019-05-23T04:10:07.268218Z,0.454945,1.060481,-0.227818
2019-05-23T04:10:07.298218Z,0.633828,1.004245,0.832584
2019-05-23T04:10:07.338218Z,1.148407,0.558599,0.47466800000000003
2019-05-23T04:10:07.378218Z,0.8857229999999999,0.7033159999999999,0.360256
2019-05-23T04:10:07.418218Z,0.30667300000000003,0.199697,1.169732
2019-05-23T04:10:07.462218Z,0.368075,-1.401769,1.45919
2019-05-23T04:10:07.498218Z,0.31657399999999997,-1.456777,1.4740950000000002
2019-05-23T04:10:07.538218Z,0.859933,-0.699833,0.7307060000000001
2019-05-23T04:10:07.579218Z,0.9903770000000001,-0.664229,-0.278769
2019-05-23T04:10:07.618218Z,1.000995,-0.740953,-0.222859
2019-05-23T04:10:07.658218Z,1.201742,-0.653594,-0.39584600000000003
2019-05-23T04:10:07.698218Z,1.278189,-0.31098000000000003,-0.7395510000000001
2019-05-23T04:10:07.740218Z,1.3702379999999998,-0.43751899999999994,-0.636311
2019-05-23T04:10:07.780218Z,1.8733,0.075946,-0.9551790000000001
2019-05-23T04:10:07.819218Z,0.841143,0.287465,-1.367235
2019-05-23T04:10:07.859218Z,0.86819,0.34308,-1.3763370000000001
2019-05-23T04:10:07.928218Z,0.125318,0.7614770000000001,-0.937132
2019-05-23T04:10:07.941218Z,0.504234,1.185011,0.242236
2019-05-23T04:10:07.981218Z,0.22282,1.0839969999999999,0.262753
2019-05-23T04:10:08.018218Z,-0.06374500000000001,1.2824229999999999,1.144994
2019-05-23T04:10:08.058218Z,0.89743,1.0330409999999999,0.156313
2019-05-23T04:10:08.099218Z,0.752429,1.184865,0.042204000000000005
2019-05-23T04:10:08.139218Z,0.420605,-0.017554,1.669418
2019-05-23T04:10:08.180218Z,1.051073,-0.8837950000000001,1.285615
2019-05-23T04:10:08.219218Z,0.989383,-0.8250430000000001,1.235633
2019-05-23T04:10:08.274218Z,1.142925,-1.3409209999999998,0.37451999999999996
2019-05-23T04:10:08.299218Z,0.659935,-1.189562,-0.365884
2019-05-23T04:10:08.339218Z,0.694217,-1.207225,-0.335453
2019-05-23T04:10:08.379218Z,0.720258,-0.8159529999999999,-0.895201
2019-05-23T04:10:08.420218Z,0.97462,-0.203334,-1.230213
2019-05-23T04:10:08.460218Z,1.022568,-0.164576,-1.2265540000000001
2019-05-23T04:10:08.499218Z,0.871715,0.455532,-1.170759
2019-05-23T04:10:08.539218Z,0.31508200000000003,0.47722299999999995,-0.5268609999999999
2019-05-23T04:10:08.579218Z,0.22447399999999998,0.49174300000000004,-0.53656
2019-05-23T04:10:08.620218Z,-0.430385,0.7632680000000001,0.390853
2019-05-23T04:10:08.660218Z,-0.8618459999999999,0.83444,1.229904
2019-05-23T04:10:08.703218Z,-0.948693,0.798666,1.224118
2019-05-23T04:10:08.740218Z,0.5230819999999999,0.740472,1.7091900000000002
2019-05-23T04:10:08.780218Z,-0.072087,0.506268,0.976851
2019-05-23T04:10:08.820218Z,0.018174,0.52454,0.944134
2019-05-23T04:10:08.861218Z,0.459471,-1.02239,1.193336
2019-05-23T04:10:08.900218Z,0.254688,-1.15391,-0.026549
2019-05-23T04:10:08.940218Z,0.360804,-1.203928,0.019256
2019-05-23T04:10:08.981218Z,0.752317,-1.153877,-0.403294
2019-05-23T04:10:09.020218Z,0.20504099999999997,-0.9038010000000001,-1.088711
2019-05-23T04:10:09.062218Z,0.168953,-0.822212,-1.111952
2019-05-23T04:10:09.138218Z,0.265552,-0.07524299999999999,-2.047455
2019-05-23T04:10:09.167218Z,0.313116,-0.059774,-0.265185
2019-05-23T04:10:09.180218Z,0.101785,-0.142789,-0.212727
2019-05-23T04:10:09.220218Z,0.200549,0.665511,-0.20135
2019-05-23T04:10:09.260218Z,0.712134,0.874871,0.23529
2019-05-23T04:10:09.301218Z,0.709043,0.902086,0.206038
2019-05-23T04:10:09.341218Z,0.15956800000000002,0.681651,0.724194
2019-05-23T04:10:09.384218Z,0.415185,0.999711,0.5426340000000001
2019-05-23T04:10:09.420218Z,0.230805,1.047934,0.492526
2019-05-23T04:10:09.460218Z,1.048054,0.462266,1.8338130000000001
2019-05-23T04:10:09.501218Z,1.6424439999999998,-0.9222520000000001,0.605008
2019-05-23T04:10:09.541218Z,1.772564,-0.8116,0.543041
2019-05-23T04:10:09.581218Z,1.483682,-0.519934,-0.6362720000000001
2019-05-23T04:10:09.621218Z,0.563133,-0.690973,-0.281469
2019-05-23T04:10:09.661218Z,0.5774060000000001,-0.710217,-0.258736
2019-05-23T04:10:09.701218Z,0.49988599999999994,-0.814022,-0.749432
2019-05-23T04:10:09.742218Z,0.109725,-0.347143,-1.1847809999999999
2019-05-23T04:10:09.781218Z,0.0812,-0.343846,-1.164887
2019-05-23T04:10:09.822218Z,0.062015,-0.19122,-0.081849
2019-05-23T04:10:09.862218Z,0.015178,0.275239,0.100518
2019-05-23T04:10:09.900218Z,-0.017043,0.258357,0.10458599999999998
2019-05-23T04:10:09.941218Z,0.220875,0.8091550000000001,0.43884799999999996
2019-05-23T04:10:09.982218Z,-0.12576700000000002,0.635972,1.266913
2019-05-23T04:10:10.022218Z,-0.01618,0.628949,1.2477850000000001
2019-05-23T04:10:10.062218Z,0.021039,0.29665,0.714978
2019-05-23T04:10:10.102218Z,-0.037629,-0.136053,2.454582
2019-05-23T04:10:10.143218Z,0.16686600000000001,-0.22778299999999999,2.478018
2019-05-23T04:10:10.181218Z,0.37588699999999997,-1.0058850000000001,0.23986500000000002
2019-05-23T04:10:10.221218Z,-0.17335699999999998,-0.896991,-1.049548
2019-05-23T04:10:10.308218Z,-0.260396,-0.8293520000000001,-1.0689620000000002
2019-05-23T04:10:10.309218Z,-0.150514,-0.635076,-0.629275
2019-05-23T04:10:10.343218Z,-0.413732,-0.768125,-0.6120329999999999
2019-05-23T04:10:10.381218Z,-0.464034,-0.794748,-0.580512
2019-05-23T04:10:10.421218Z,0.070895,-0.051379999999999995,-0.617531
2019-05-23T04:10:10.462218Z,0.00039,0.171346,-0.788713
2019-05-23T04:10:10.502218Z,-0.010675,0.11413,-0.743131
2019-05-23T04:10:10.542218Z,-0.151555,0.351933,-0.050254
2019-05-23T04:10:10.581218Z,-0.053783000000000004,0.638312,-0.028786000000000003
2019-05-23T04:10:10.623218Z,-0.09219400000000001,0.605304,-0.0151
2019-05-23T04:10:10.664218Z,-0.030417000000000003,0.499434,0.46095200000000003
2019-05-23T04:10:10.702218Z,0.226093,0.8905190000000001,0.362723
2019-05-23T04:10:10.742218Z,0.263952,1.027331,0.264795
2019-05-23T04:10:10.782218Z,-0.134799,1.3318459999999999,0.39321999999999996
2019-05-23T04:10:10.823218Z,0.755522,-0.473285,2.136616
2019-05-23T04:10:10.862218Z,0.75755,-0.555717,2.157778
2019-05-23T04:10:10.901218Z,1.427124,-1.005572,0.07327
2019-05-23T04:10:10.942218Z,1.487184,-0.9457040000000001,-0.623527
2019-05-23T04:10:10.982218Z,1.635881,-0.906315,-0.617684
2019-05-23T04:10:11.021218Z,0.452686,-0.8945420000000001,-0.651872
2019-05-23T04:10:11.089218Z,0.258686,-0.458793,-1.006405
2019-05-23T04:10:11.116218Z,0.20866300000000002,-0.49462,-0.966232
2019-05-23T04:10:11.142218Z,-0.28467800000000004,-0.590845,-0.6122310000000001
2019-05-23T04:10:11.182218Z,0.065763,0.101783,-0.668674
2019-05-23T04:10:11.222218Z,0.063595,0.076921,-0.642867
2019-05-23T04:10:11.262218Z,0.256308,0.638691,-0.549664
2019-05-23T04:10:11.303218Z,0.03129,1.052374,-0.17178800000000002
2019-05-23T04:10:11.343218Z,-0.183838,0.9959889999999999,-0.14767
2019-05-23T04:10:11.382218Z,-0.473847,0.813554,1.618118
2019-05-23T04:10:11.423218Z,0.169052,0.798025,0.585281
2019-05-23T04:10:11.461218Z,0.016730000000000002,0.867751,0.521628
2019-05-23T04:10:11.502218Z,-0.42330500000000004,0.135033,1.671766
2019-05-23T04:10:11.543218Z,0.43004799999999993,-0.9938110000000001,-0.312969
2019-05-23T04:10:11.582218Z,0.479995,-0.794117,-0.421246
2019-05-23T04:10:11.622218Z,0.109115,-0.5564359999999999,-0.871717
2019-05-23T04:10:11.662218Z,0.06802899999999999,-0.975736,-0.138355
2019-05-23T04:10:11.704218Z,0.11563399999999999,-0.976764,-0.124798
2019-05-23T04:10:11.743218Z,0.06956,-0.8393229999999999,-0.496667
2019-05-23T04:10:11.783218Z,0.34944400000000003,0.05534,-0.950758
2019-05-23T04:10:11.823218Z,0.384519,0.039753,-0.9248700000000001
2019-05-23T04:10:11.864218Z,0.42891,-0.057352,-0.569501
2019-05-23T04:10:11.904218Z,0.551028,0.44890399999999997,-0.09106399999999999
2019-05-23T04:10:11.944218Z,0.832946,0.47526999999999997,-0.07925399999999999
2019-05-23T04:10:11.982218Z,0.7229399999999999,0.311947,0.660732
2019-05-23T04:10:12.023218Z,-0.682078,0.577734,0.362681
2019-05-23T04:10:12.075218Z,-0.7316050000000001,0.5306960000000001,0.36986399999999997
2019-05-23T04:10:12.102218Z,0.566221,0.9083040000000001,-0.277896
2019-05-23T04:10:12.143218Z,-0.40876799999999996,0.791767,1.012541
2019-05-23T04:10:12.183218Z,-0.412988,0.762255,1.003415
2019-05-23T04:10:12.224218Z,1.160947,-0.332375,1.1134709999999999
2019-05-23T04:10:12.263218Z,0.515366,-0.584717,0.30281399999999997
2019-05-23T04:10:12.304218Z,0.549428,-0.538506,0.283314
2019-05-23T04:10:12.343218Z,0.15651900000000002,-1.20517,-0.00551
2019-05-23T04:10:12.383218Z,-0.05074,-0.9846459999999999,-0.460213
2019-05-23T04:10:12.423218Z,-0.153538,-0.933074,-0.476811
2019-05-23T04:10:12.463218Z,0.01986,-0.633655,-0.422512
2019-05-23T04:10:12.503218Z,-0.14277,-0.21216100000000002,0.041422
2019-05-23T04:10:12.544218Z,-0.219596,-0.27611199999999997,0.069715
2019-05-23T04:10:12.585218Z,-0.188624,0.161735,0.12209300000000001
2019-05-23T04:10:12.622218Z,0.10365999999999999,0.639197,-0.00139
2019-05-23T04:10:12.663218Z,0.026812,0.575468,0.023699
2019-05-23T04:10:12.703218Z,-0.114504,0.672899,0.687557
2019-05-23T04:10:12.744218Z,-0.084708,0.689376,0.673036
2019-05-23T04:10:12.784218Z,-0.168604,0.64741,0.677295
2019-05-23T04:10:12.826218Z,-0.137069,0.101539,0.753675
2019-05-23T04:10:12.867218Z,0.512138,-1.056085,0.799655
2019-05-23T04:10:12.905218Z,0.43928599999999995,-1.07479,0.807585
2019-05-23T04:10:12.945218Z,0.706363,-1.7388709999999998,0.359261
2019-05-23T04:10:12.985218Z,0.6298590000000001,-1.904521,-0.051849
2019-05-23T04:10:13.025218Z,0.43575200000000003,-1.842841,-0.055948000000000005
2019-05-23T04:10:13.065218Z,0.8055979999999999,-0.9223040000000001,0.049843
2019-05-23T04:10:13.105218Z,1.3342479999999999,-0.19630899999999998,-0.200425
2019-05-23T04:10:13.146218Z,1.327582,-0.151597,-0.220928
2019-05-23T04:10:13.185218Z,0.349208,0.088129,-0.641129
2019-05-23T04:10:13.226218Z,-0.5580109999999999,0.524247,-0.48571099999999995
2019-05-23T04:10:13.264218Z,-0.384684,0.549383,-0.507113
2019-05-23T04:10:13.305218Z,-0.340432,1.106395,-0.302682
2019-05-23T04:10:13.345218Z,-0.742563,1.016781,-0.211873
2019-05-23T04:10:13.385218Z,-0.560663,0.956041,-0.187143
2019-05-23T04:10:13.426218Z,-0.8485440000000001,1.0837370000000002,-0.11393800000000001
2019-05-23T04:10:13.466218Z,-1.163661,1.0054,0.130575
2019-05-23T04:10:13.506218Z,-1.119271,0.926143,0.162394
2019-05-23T04:10:13.546218Z,-1.052442,0.764844,0.396892
2019-05-23T04:10:13.585218Z,-0.27266,0.540492,0.47866400000000003
2019-05-23T04:10:13.626218Z,-0.163384,0.474599,0.50913
2019-05-23T04:10:13.666218Z,-0.00532,-0.183773,0.24934
2019-05-23T04:10:13.705218Z,0.661161,-1.0098719999999999,0.6654
2019-05-23T04:10:13.745218Z,0.793872,-1.028249,0.6906329999999999
2019-05-23T04:10:13.785218Z,0.39062199999999997,-0.563704,-0.32406399999999996
2019-05-23T04:10:13.827218Z,0.837577,-0.9101100000000001,-0.020222999999999998
2019-05-23T04:10:13.893218Z,0.881986,-0.831174,-0.051315
2019-05-23T04:10:13.904218Z,-0.545151,-0.726068,-0.937415
2019-05-23T04:10:13.944218Z,0.0054859999999999996,-0.18717899999999998,-0.890496
2019-05-23T04:10:13.985218Z,0.11045799999999999,-0.091532,-0.9163610000000001
2019-05-23T04:10:14.024218Z,0.19137300000000002,-0.081743,-0.956384
2019-05-23T04:10:14.064218Z,-0.9257879999999999,0.12353299999999999,-0.7589779999999999
2019-05-23T04:10:14.106218Z,-1.005055,0.09288300000000001,-0.7438779999999999
2019-05-23T04:10:14.145218Z,-0.862936,0.128141,-0.381067
2019-05-23T04:10:14.185218Z,-0.510339,1.152199,-0.5058630000000001
2019-05-23T04:10:14.227218Z,-0.5041479999999999,1.19759,-0.5348890000000001
2019-05-23T04:10:14.265218Z,-1.105167,0.696345,0.272363
2019-05-23T04:10:14.306218Z,-0.851276,0.390031,1.368226
2019-05-23T04:10:14.345218Z,-0.7543489999999999,0.30951999999999996,1.405196
2019-05-23T04:10:14.387218Z,0.5879989999999999,0.78166,-0.39207600000000004
2019-05-23T04:10:14.425218Z,-0.482705,-0.51299,1.571788
2019-05-23T04:10:14.467218Z,-0.340562,-0.520993,1.583932
2019-05-23T04:10:14.506218Z,-0.263809,-1.191877,0.25948000000000004
2019-05-23T04:10:14.546218Z,-0.337938,-1.0952620000000002,-0.42384799999999995
2019-05-23T04:10:14.586218Z,-0.340171,-1.026116,-0.44801499999999994
2019-05-23T04:10:14.628218Z,0.218881,-0.793287,0.06300800000000001
2019-05-23T04:10:14.664218Z,0.19605799999999998,-0.863943,-0.24668800000000002
2019-05-23T04:10:14.745218Z,0.1829,-0.8278129999999999,-0.257353
2019-05-23T04:10:14.747218Z,-0.250109,-0.013969999999999998,-0.930241
2019-05-23T04:10:14.785218Z,-0.8753059999999999,-0.54288,-1.227033
2019-05-23T04:10:14.825218Z,-1.0435219999999998,-0.501462,-1.262237
2019-05-23T04:10:14.865218Z,-2.373212,-0.676021,-1.035562
2019-05-23T04:10:14.905218Z,-1.7787130000000002,-0.47609399999999996,0.006991
2019-05-23T04:10:14.945218Z,-2.0837790000000003,-0.45318500000000006,-0.031524
2019-05-23T04:10:14.986218Z,-1.8438869999999998,-0.5175270000000001,0.8807280000000001
2019-05-23T04:10:15.026218Z,-1.336751,-1.120606,2.3237650000000003
2019-05-23T04:10:15.068218Z,-1.156326,-1.070756,2.280284
2019-05-23T04:10:15.106218Z,-1.2946959999999998,-1.372004,-0.032464
2019-05-23T04:10:15.146218Z,-0.689236,-1.354326,1.564102
2019-05-23T04:10:15.185218Z,-0.576005,-1.378743,1.5717
2019-05-23T04:10:15.226218Z,0.028088,-1.735075,-0.016888999999999998
2019-05-23T04:10:15.267218Z,0.25349499999999997,-0.8296690000000001,0.040787000000000004
2019-05-23T04:10:15.306218Z,0.377117,-0.7630680000000001,0.031374
2019-05-23T04:10:15.346218Z,0.055886,-1.104384,0.572184
2019-05-23T04:10:15.387218Z,0.880453,-0.77941,0.908381
2019-05-23T04:10:15.427218Z,0.9836389999999999,-0.7622180000000001,0.9124030000000001
2019-05-23T04:10:15.469218Z,1.15731,-0.32806799999999997,1.242271
2019-05-23T04:10:15.507218Z,0.757096,-0.338998,0.990856
2019-05-23T04:10:15.547218Z,0.7876,-0.33878600000000003,0.98636
2019-05-23T04:10:15.586218Z,0.851659,0.14016199999999998,-0.103323
2019-05-23T04:10:15.626218Z,1.039309,0.116158,0.27768000000000004
2019-05-23T04:10:15.667218Z,1.066526,0.077432,0.301925
2019-05-23T04:10:15.708218Z,1.1470209999999998,0.18271300000000001,0.358337
2019-05-23T04:10:15.747218Z,1.218488,0.244877,-0.07558
2019-05-23T04:10:15.787218Z,1.317847,0.137656,0.012948
2019-05-23T04:10:15.827218Z,1.348543,0.192358,0.5075850000000001
2019-05-23T04:10:15.867218Z,1.5737290000000002,0.5354140000000001,-0.503101
2019-05-23T04:10:15.907218Z,1.8942450000000002,0.5735210000000001,-0.40857899999999997
2019-05-23T04:10:15.946218Z,1.513855,-0.015772,1.948977
2019-05-23T04:10:15.986218Z,0.559037,-0.400482,-0.7113430000000001
2019-05-23T04:10:16.027218Z,0.477391,-0.40287199999999995,-0.723915
2019-05-23T04:10:16.067218Z,1.00099,-0.37513,0.561396
2019-05-23T04:10:16.107218Z,1.98153,-0.027643,0.267875
2019-05-23T04:10:16.146218Z,2.069352,-0.006973999999999999,0.304868
2019-05-23T04:10:16.187218Z,1.311031,0.33910999999999997,-0.67428
2019-05-23T04:10:16.245218Z,0.893972,0.515125,-0.02557
2019-05-23T04:10:16.269218Z,0.721759,0.456762,-0.056222
2019-05-23T04:10:16.307218Z,0.10647000000000001,0.058207,0.420134
2019-05-23T04:10:16.346218Z,0.330136,0.511881,-0.088298
2019-05-23T04:10:16.387218Z,0.099128,0.380711,-0.07296799999999999
2019-05-23T04:10:16.427218Z,0.962865,0.609733,0.46800299999999995
2019-05-23T04:10:16.469218Z,1.6538220000000001,0.908507,0.821419
2019-05-23T04:10:16.507218Z,1.754977,1.043931,0.7407600000000001
2019-05-23T04:10:16.549218Z,0.94329,0.438037,-1.075
2019-05-23T04:10:16.595218Z,0.358609,-0.365626,1.6475229999999998
2019-05-23T04:10:16.628218Z,0.150015,-0.389826,1.588837
2019-05-23T04:10:16.667218Z,0.732366,-0.365369,0.344831
2019-05-23T04:10:16.707218Z,1.014425,-0.681246,-0.442862
2019-05-23T04:10:16.747218Z,0.936076,-0.63274,-0.46788
2019-05-23T04:10:16.788218Z,1.102891,-0.7088300000000001,-0.062727
2019-05-23T04:10:16.827218Z,1.01254,-0.136876,-0.975351
2019-05-23T04:10:16.867218Z,0.9207040000000001,-0.11103900000000001,-0.982608
2019-05-23T04:10:16.908218Z,1.115318,-0.086143,-1.208612
2019-05-23T04:10:16.948218Z,1.000699,0.088942,-0.5610189999999999
2019-05-23T04:10:16.988218Z,0.944045,0.065317,-0.5428149999999999
2019-05-23T04:10:17.028218Z,0.705124,0.009093,-0.157904
2019-05-23T04:10:17.068218Z,1.101478,0.48337600000000003,1.185396
2019-05-23T04:10:17.108218Z,1.267291,0.411962,1.22377
2019-05-23T04:10:17.149218Z,1.513352,0.335298,0.746741
2019-05-23T04:10:17.189218Z,0.189445,0.686242,1.1229209999999998
2019-05-23T04:10:17.229218Z,0.196577,0.588928,1.162493
2019-05-23T04:10:17.268218Z,0.965701,-0.237416,0.12573099999999998
2019-05-23T04:10:17.308218Z,0.669694,-0.350271,0.401129
2019-05-23T04:10:17.349218Z,0.7350909999999999,-0.344441,0.40526
2019-05-23T04:10:17.389218Z,0.5807680000000001,-0.521439,-0.059397000000000005
2019-05-23T04:10:17.429218Z,0.170407,-0.427066,-0.141924
2019-05-23T04:10:17.469218Z,0.195596,-0.436754,-0.12387100000000001
2019-05-23T04:10:17.508218Z,0.207035,-0.501967,-0.0029170000000000003
2019-05-23T04:10:17.549218Z,0.879549,0.268543,-0.97841
2019-05-23T04:10:17.588218Z,1.011425,0.23494600000000002,-0.914393
2019-05-23T04:10:17.628218Z,1.093585,-0.170576,-0.359118
2019-05-23T04:10:17.668218Z,0.994051,0.23920999999999998,-1.001897
2019-05-23T04:10:17.708218Z,0.9568760000000001,0.29898600000000003,-1.03403
2019-05-23T04:10:17.763218Z,-0.208184,0.796479,-0.8759040000000001
2019-05-23T04:10:17.789218Z,-0.8775430000000001,1.183229,-0.7363890000000001
2019-05-23T04:10:17.828218Z,-1.1530690000000001,1.169075,-0.7823319999999999
2019-05-23T04:10:17.871218Z,-0.089282,0.684405,0.6658189999999999
2019-05-23T04:10:17.908218Z,-0.27045,0.72563,0.739367
2019-05-23T04:10:17.948218Z,-0.44323199999999996,0.7436149999999999,0.692746
2019-05-23T04:10:17.990218Z,0.507901,0.057116999999999994,1.143966
2019-05-23T04:10:18.029218Z,-0.005023,-0.355539,0.31913
2019-05-23T04:10:18.071218Z,-0.07714700000000001,-0.275533,0.272503
2019-05-23T04:10:18.110218Z,1.11461,-0.8830979999999999,0.5155930000000001
2019-05-23T04:10:18.148218Z,0.374369,-0.612213,-0.028270999999999998
2019-05-23T04:10:18.188218Z,0.43203400000000003,-0.661231,0.008343999999999999
2019-05-23T04:10:18.228218Z,0.194684,0.250803,-1.577723
2019-05-23T04:10:18.272218Z,-0.3224,0.802016,-2.202548
2019-05-23T04:10:18.308218Z,-0.6510130000000001,0.837935,-2.180357
2019-05-23T04:10:18.348218Z,0.281087,0.635989,0.5479510000000001
2019-05-23T04:10:18.388218Z,-0.077677,0.331403,0.5502520000000001
2019-05-23T04:10:18.428218Z,-0.290574,0.304448,0.576049
2019-05-23T04:10:18.470218Z,0.368924,0.258209,1.429516
2019-05-23T04:10:18.509218Z,0.761353,0.067873,0.911891
2019-05-23T04:10:18.549218Z,0.992972,-0.111864,0.9787290000000001
2019-05-23T04:10:18.589218Z,0.712688,-0.39163200000000004,1.5161280000000001
2019-05-23T04:10:18.630218Z,0.22068800000000002,-0.05376,0.809952
2019-05-23T04:10:18.670218Z,0.43031899999999995,-0.02001,0.77055
2019-05-23T04:10:18.710218Z,0.306508,-0.590114,-0.579294
2019-05-23T04:10:18.751218Z,0.21856,-0.903013,-0.478419
2019-05-23T04:10:18.789218Z,0.253379,-0.8604870000000001,-0.48613599999999996
2019-05-23T04:10:18.856218Z,-0.596497,-1.0764770000000001,-0.630835
2019-05-23T04:10:18.872218Z,0.54864,-0.319185,-1.417247
2019-05-23T04:10:18.910218Z,0.442888,-0.258417,-1.428382
2019-05-23T04:10:18.949218Z,0.393117,0.086091,-0.44333599999999995
2019-05-23T04:10:18.990218Z,0.6552979999999999,0.45605,-0.30788000000000004
2019-05-23T04:10:19.029218Z,0.654521,0.47571899999999995,-0.318486
2019-05-23T04:10:19.069218Z,0.471203,1.029198,-0.226782
2019-05-23T04:10:19.108218Z,-0.035651999999999996,0.5605829999999999,0.903731
2019-05-23T04:10:19.149218Z,0.07556900000000001,0.495514,0.924415
2019-05-23T04:10:19.198218Z,0.42381899999999995,0.550593,1.650695
2019-05-23T04:10:19.229218Z,0.6272260000000001,1.587228,-0.675297
2019-05-23T04:10:19.269218Z,0.29175100000000004,1.748117,-0.76595
2019-05-23T04:10:19.310218Z,1.261617,0.879131,1.783565
2019-05-23T04:10:19.349218Z,1.459271,-0.636057,0.550221
2019-05-23T04:10:19.389218Z,1.263976,-0.475893,0.47439899999999996
2019-05-23T04:10:19.429218Z,0.020489,-1.012357,-0.253808
2019-05-23T04:10:19.470218Z,0.914436,-0.8478620000000001,-0.05872
2019-05-23T04:10:19.510218Z,1.046398,-0.975037,0.003361
2019-05-23T04:10:19.550218Z,0.839302,-0.6807300000000001,-1.235758
2019-05-23T04:10:19.590218Z,0.573242,0.155731,-1.17927
2019-05-23T04:10:19.631218Z,0.626111,0.062338,-1.114598
2019-05-23T04:10:19.672218Z,0.5707409999999999,0.15265499999999999,-0.144095
2019-05-23T04:10:19.711218Z,0.492787,0.303268,0.639692
2019-05-23T04:10:19.751218Z,0.541085,0.110769,0.736165
2019-05-23T04:10:19.790218Z,0.25951,0.28434299999999996,1.550028
2019-05-23T04:10:19.830218Z,0.165633,0.7983819999999999,1.270413
2019-05-23T04:10:19.870218Z,0.125253,0.793981,1.242991
2019-05-23T04:10:19.909218Z,0.244914,1.0601040000000002,1.292357
2019-05-23T04:10:19.950218Z,-0.28223899999999996,-0.337106,-0.476896
2019-05-23T04:10:20.006218Z,-0.192723,-0.358101,-0.4491
2019-05-23T04:10:20.036218Z,-1.359408,-0.602478,-0.802701
2019-05-23T04:10:20.071218Z,-1.530377,-1.215889,-0.761778
2019-05-23T04:10:20.110218Z,-1.586768,-1.229463,-0.726679
2019-05-23T04:10:20.151218Z,-0.185897,-1.150548,-0.196364
2019-05-23T04:10:20.191218Z,0.017743000000000002,-0.479612,-0.985684
2019-05-23T04:10:20.231218Z,-0.013178,-0.528378,-0.934234
2019-05-23T04:10:20.271218Z,0.160722,-0.13003,-0.593453
2019-05-23T04:10:20.310218Z,0.483691,-0.013637999999999999,-0.137899
2019-05-23T04:10:20.351218Z,0.477979,-0.079077,-0.092155
2019-05-23T04:10:20.390218Z,0.13758399999999998,0.413637,-0.337547
2019-05-23T04:10:20.431218Z,0.0253,0.8442930000000001,0.782331
2019-05-23T04:10:20.471218Z,0.023735,0.837557,0.764464
2019-05-23T04:10:20.511218Z,0.189863,1.028432,1.119003
2019-05-23T04:10:20.550218Z,0.448849,0.948306,1.090419
2019-05-23T04:10:20.593218Z,0.229357,1.0484200000000001,1.013558
2019-05-23T04:10:20.630218Z,0.356615,-0.10551600000000001,0.37878
2019-05-23T04:10:20.671218Z,0.038093,-1.012194,0.552998
2019-05-23T04:10:20.711218Z,-0.118506,-0.9819399999999999,0.559164
2019-05-23T04:10:20.751218Z,0.279561,-1.062709,-0.587152
2019-05-23T04:10:20.791218Z,0.39652800000000005,-0.920383,-0.8092229999999999
2019-05-23T04:10:20.831218Z,0.464502,-0.98493,-0.760538
2019-05-23T04:10:20.872218Z,0.19078299999999998,-0.303555,-0.936534
2019-05-23T04:10:20.911218Z,0.26306,0.12110499999999999,-0.664936
2019-05-23T04:10:20.952218Z,0.325115,0.058561,-0.626046
2019-05-23T04:10:20.992218Z,0.087531,0.422188,0.151073
2019-05-23T04:10:21.032218Z,0.061325,0.571615,0.717489
2019-05-23T04:10:21.072218Z,0.093136,0.324497,0.862575
2019-05-23T04:10:21.112218Z,0.823636,0.556348,1.794543
2019-05-23T04:10:21.152218Z,0.5326960000000001,0.515029,0.190907
2019-05-23T04:10:21.192218Z,0.678801,0.5083439999999999,0.173206
2019-05-23T04:10:21.232218Z,0.878764,0.044993,1.168216
2019-05-23T04:10:21.271218Z,-0.191681,-1.0304659999999999,-0.46223100000000006
2019-05-23T04:10:21.349218Z,-0.153502,-0.8377399999999999,-0.576746
2019-05-23T04:10:21.359218Z,-0.531042,-0.59653,-1.7580939999999998
2019-05-23T04:10:21.391218Z,-0.534431,-0.394858,-0.201935
2019-05-23T04:10:21.431218Z,-0.755009,-0.43135500000000004,-0.157221
2019-05-23T04:10:21.471218Z,-0.284231,-0.47643900000000006,-0.116006
2019-05-23T04:10:21.511218Z,0.189775,0.166903,-0.831666
2019-05-23T04:10:21.551218Z,0.14255299999999999,0.169168,-0.818291
2019-05-23T04:10:21.591218Z,0.132384,0.159322,-0.30375
2019-05-23T04:10:21.633218Z,0.263402,0.02623,0.14583800000000002
2019-05-23T04:10:21.671218Z,0.294758,0.029182999999999997,0.13905499999999998
2019-05-23T04:10:21.711218Z,0.126363,0.278958,0.701856
2019-05-23T04:10:21.752218Z,1.173634,0.5328229999999999,0.204595
2019-05-23T04:10:21.792218Z,1.306044,0.6212880000000001,0.1361
2019-05-23T04:10:21.832218Z,1.543723,0.516332,1.4108120000000002
2019-05-23T04:10:21.871218Z,0.33110900000000004,-0.8848719999999999,-0.461559
2019-05-23T04:10:21.912218Z,0.13099,-0.79947,-0.495079
2019-05-23T04:10:21.952218Z,0.269656,-0.540127,0.74345
2019-05-23T04:10:21.992218Z,0.328424,-0.447118,0.17790899999999998
2019-05-23T04:10:22.033218Z,0.405235,-0.443684,0.175061
2019-05-23T04:10:22.072218Z,1.1209280000000001,-0.218452,-0.378414
2019-05-23T04:10:22.112218Z,0.76308,-0.09574400000000001,-0.999295
2019-05-23T04:10:22.152218Z,0.715073,-0.13966099999999998,-0.955792
2019-05-23T04:10:22.193218Z,0.290194,-0.227818,-0.43265200000000004
2019-05-23T04:10:22.234218Z,0.576969,-0.042122,0.071482
2019-05-23T04:10:22.272218Z,0.412976,-0.097996,0.113981
2019-05-23T04:10:22.312218Z,0.519127,0.486929,0.73345
2019-05-23T04:10:22.353218Z,0.687811,0.618636,1.3912950000000002
2019-05-23T04:10:22.394218Z,0.739276,0.631783,1.35032
2019-05-23T04:10:22.433218Z,0.140124,0.104999,1.197526
2019-05-23T04:10:22.472218Z,0.780118,-0.09237999999999999,2.223933
2019-05-23T04:10:22.513218Z,1.0592709999999999,-0.173491,2.237365
2019-05-23T04:10:22.552218Z,0.386793,-1.277851,0.790213
2019-05-23T04:10:22.592218Z,-0.14852,-1.537769,-0.160313
2019-05-23T04:10:22.633218Z,-0.171845,-1.524995,-0.149724
2019-05-23T04:10:22.712218Z,0.327102,-1.765559,-0.147369
2019-05-23T04:10:22.713218Z,0.497501,-1.435503,0.32556399999999996
2019-05-23T04:10:22.752218Z,0.329181,-1.47886,0.364286
2019-05-23T04:10:22.793218Z,0.577417,-1.271456,0.045252
2019-05-23T04:10:22.832218Z,1.444656,-0.9986290000000001,0.8188479999999999
2019-05-23T04:10:22.872218Z,1.290309,-0.952758,0.7926529999999999
2019-05-23T04:10:22.912218Z,1.757263,-1.381364,1.559126
2019-05-23T04:10:22.952218Z,2.248005,-1.664339,1.517017
2019-05-23T04:10:22.992218Z,2.165811,-1.6399580000000002,1.497351
2019-05-23T04:10:23.033218Z,1.880369,-1.317792,1.809952
2019-05-23T04:10:23.079218Z,2.743823,-2.0882259999999997,1.6936799999999999
2019-05-23T04:10:23.112218Z,2.8706169999999998,-1.9269720000000001,1.578703
2019-05-23T04:10:23.154218Z,2.4663630000000003,-2.6466439999999998,1.299425
2019-05-23T04:10:23.193218Z,2.591888,-2.462822,1.608727
2019-05-23T04:10:23.233218Z,2.454943,-2.447533,1.600999
2019-05-23T04:10:23.272218Z,1.753361,-2.1915299999999998,1.282619
2019-05-23T04:10:23.313218Z,1.474349,-1.7915439999999998,0.47647399999999995
2019-05-23T04:10:23.352218Z,1.3901370000000002,-1.827727,0.512426
2019-05-23T04:10:23.394218Z,0.976627,-1.6994029999999998,0.8719969999999999
2019-05-23T04:10:23.435218Z,-0.106254,-1.2487190000000001,0.6745760000000001
2019-05-23T04:10:23.473218Z,-0.230185,-1.3557139999999999,0.754789
2019-05-23T04:10:23.513218Z,-0.21953499999999998,-1.273206,1.706017
2019-05-23T04:10:23.554218Z,-0.117933,-1.446986,1.385832
2019-05-23T04:10:23.594218Z,-0.171622,-1.5311780000000002,1.442936
2019-05-23T04:10:23.633218Z,-1.1817520000000001,-1.701142,1.7576150000000001
2019-05-23T04:10:23.673218Z,-1.259393,-1.7479419999999999,1.014715
2019-05-23T04:10:23.715218Z,-1.051303,-1.721646,0.9779
2019-05-23T04:10:23.755218Z,-1.487007,-1.4885110000000001,0.426522
2019-05-23T04:10:23.795218Z,-0.94095,-1.8396,1.324617
2019-05-23T04:10:23.834218Z,-0.743663,-1.8176130000000001,1.296633
2019-05-23T04:10:23.874218Z,-0.740173,-2.075369,0.961332
2019-05-23T04:10:23.915218Z,-0.5761270000000001,-1.187273,0.078091
2019-05-23T04:10:23.954218Z,-0.4775,-1.173878,0.081853
2019-05-23T04:10:23.994218Z,-0.408467,-1.024743,0.116337
2019-05-23T04:10:24.034218Z,-0.198819,-0.9088069999999999,0.020589
2019-05-23T04:10:24.075218Z,-0.174174,-0.9612290000000001,0.063587
2019-05-23T04:10:24.114218Z,0.256703,-0.901422,0.667825
2019-05-23T04:10:24.156218Z,0.152167,-1.212046,1.365378
2019-05-23T04:10:24.194218Z,0.021021,-1.421215,1.5014120000000002
2019-05-23T04:10:24.234218Z,0.708795,-1.088034,1.0748360000000001
2019-05-23T04:10:24.275218Z,1.35861,-0.738613,1.315138
2019-05-23T04:10:24.313218Z,1.432097,-0.630035,1.224781
2019-05-23T04:10:24.405218Z,0.954103,-1.984327,0.395216
2019-05-23T04:10:24.406218Z,0.848716,-1.6606130000000001,1.264274
2019-05-23T04:10:24.438218Z,0.712967,-1.5596780000000001,1.192178
2019-05-23T04:10:24.473218Z,0.31254899999999997,-1.3369030000000002,-0.188642
2019-05-23T04:10:24.514218Z,0.616125,-1.257155,-1.147886
2019-05-23T04:10:24.554218Z,0.558091,-1.021878,-1.257739
2019-05-23T04:10:24.594218Z,-0.017456,-1.1005049999999998,-0.6196149999999999
2019-05-23T04:10:24.636218Z,-0.075866,-1.1596440000000001,-0.000377
2019-05-23T04:10:24.674218Z,-0.125941,-1.125341,-0.008311
2019-05-23T04:10:24.714218Z,0.146472,-0.504683,-0.259221
2019-05-23T04:10:24.756218Z,0.7050390000000001,0.27522800000000003,0.090364
2019-05-23T04:10:24.794218Z,0.816355,0.099487,0.188041
2019-05-23T04:10:24.837218Z,1.131308,0.044719999999999996,1.287079
2019-05-23T04:10:24.875218Z,0.379651,0.366356,0.672927
2019-05-23T04:10:24.914218Z,0.572226,0.389009,0.652708
2019-05-23T04:10:24.954218Z,0.30342600000000003,1.1423809999999999,0.30501300000000003
2019-05-23T04:10:24.995218Z,-1.124531,-0.189659,0.7052350000000001
2019-05-23T04:10:25.035218Z,-1.7238189999999998,-0.170506,0.677002
2019-05-23T04:10:25.075218Z,-1.8234549999999998,-0.910431,2.597643
2019-05-23T04:10:25.115218Z,0.74553,-1.2265700000000002,0.532341
2019-05-23T04:10:25.155218Z,0.850476,-1.089711,0.447949
2019-05-23T04:10:25.195218Z,0.35270300000000004,-0.8827790000000001,0.350989
2019-05-23T04:10:25.236218Z,0.297224,-1.263154,0.051243
2019-05-23T04:10:25.277218Z,0.379888,-1.26831,0.064149
2019-05-23T04:10:25.315218Z,0.657363,-1.585014,0.599113
2019-05-23T04:10:25.356218Z,1.143499,-1.493274,-0.074986
2019-05-23T04:10:25.397218Z,1.366681,-1.624048,0.033469
2019-05-23T04:10:25.435218Z,1.3130700000000002,-1.12886,-0.33689
2019-05-23T04:10:25.475218Z,0.632116,0.133939,-1.615548
2019-05-23T04:10:25.550218Z,0.5596800000000001,0.188033,-1.6275979999999999
2019-05-23T04:10:25.566218Z,1.222815,0.24942899999999998,0.275277
2019-05-23T04:10:25.595218Z,0.675763,0.441072,1.290889
2019-05-23T04:10:25.635218Z,0.576886,0.317524,1.3380809999999999
2019-05-23T04:10:25.675218Z,3.505647,1.127841,3.419539
2019-05-23T04:10:25.716218Z,2.013097,0.552945,3.117306
2019-05-23T04:10:25.757218Z,2.056845,0.456481,3.117563
2019-05-23T04:10:25.796218Z,3.0653029999999997,-1.980746,1.346783
2019-05-23T04:10:25.836218Z,2.017938,-2.567967,-0.710825
2019-05-23T04:10:25.876218Z,1.7915889999999999,-2.463264,-0.734957
2019-05-23T04:10:25.939218Z,1.3179610000000002,-2.890524,0.407188
2019-05-23T04:10:25.955218Z,1.1394090000000001,-2.517052,0.198992
2019-05-23T04:10:25.996218Z,1.067038,-2.413133,0.165246
2019-05-23T04:10:26.037218Z,1.80299,-1.531766,-0.275001
2019-05-23T04:10:26.075218Z,1.6332360000000001,-1.034628,-0.513376
2019-05-23T04:10:26.116218Z,1.5572030000000001,-0.947242,-0.5376920000000001
2019-05-23T04:10:26.156218Z,1.260047,-0.8895709999999999,-0.033063
2019-05-23T04:10:26.196218Z,1.161974,-0.546003,0.371692
2019-05-23T04:10:26.236218Z,1.231637,-0.498125,0.340431
2019-05-23T04:10:26.275218Z,1.0105600000000001,-0.054152,0.596708
2019-05-23T04:10:26.317218Z,-0.010074,0.28277399999999997,0.912856
2019-05-23T04:10:26.356218Z,-0.068897,0.155229,0.96304
2019-05-23T04:10:26.398218Z,-0.102377,0.5367850000000001,1.481248
2019-05-23T04:10:26.437218Z,0.408488,0.381358,1.222872
2019-05-23T04:10:26.477218Z,0.454917,0.30590300000000004,1.237791
2019-05-23T04:10:26.517218Z,-0.24760500000000002,-0.865591,1.497659
2019-05-23T04:10:26.558218Z,-0.023437,-1.821334,1.1970319999999999
2019-05-23T04:10:26.596218Z,0.120439,-1.8559700000000001,1.210898
2019-05-23T04:10:26.636218Z,0.227179,-1.543795,-0.36106
2019-05-23T04:10:26.708218Z,0.032928,-1.61922,-0.8313370000000001
2019-05-23T04:10:26.718218Z,0.087975,-1.75072,-0.7242149999999999
2019-05-23T04:10:26.755218Z,-0.007455,-1.7483939999999998,0.112121
2019-05-23T04:10:26.796218Z,0.09907,-1.037523,-1.118308
2019-05-23T04:10:26.837218Z,0.149531,-0.937168,-1.151706
2019-05-23T04:10:26.876218Z,0.061091,-0.406305,-0.693655
2019-05-23T04:10:26.917218Z,-0.33463899999999996,0.064039,-0.177058
2019-05-23T04:10:26.957218Z,-0.375865,0.069247,-0.177544
2019-05-23T04:10:26.996218Z,-0.497586,0.581725,-0.29913
2019-05-23T04:10:27.065218Z,-0.26106,0.639054,0.35649899999999995
2019-05-23T04:10:27.077218Z,-0.29030900000000004,0.632926,0.348645
2019-05-23T04:10:27.117218Z,-0.359059,0.292229,1.533999
2019-05-23T04:10:27.157218Z,0.49656300000000003,0.45778199999999997,0.757154
2019-05-23T04:10:27.198218Z,0.465071,0.709279,0.599353
2019-05-23T04:10:27.238218Z,-0.417284,-0.453485,1.579144
2019-05-23T04:10:27.276218Z,0.08531799999999999,-2.058432,1.758161
2019-05-23T04:10:27.317218Z,0.16835799999999998,-2.121546,1.783916
2019-05-23T04:10:27.357218Z,0.51025,-1.700545,0.42567299999999997
2019-05-23T04:10:27.398218Z,0.25472100000000003,-1.27983,-0.633726
2019-05-23T04:10:27.437218Z,0.31640999999999997,-1.193549,-0.654041
2019-05-23T04:10:27.478218Z,-0.154161,-1.437384,-0.38067199999999995
2019-05-23T04:10:27.517218Z,-0.570976,-1.27115,-0.746639
2019-05-23T04:10:27.557218Z,-0.813351,-1.232042,-0.749261
2019-05-23T04:10:27.614218Z,-0.712759,-0.743175,-0.193575
2019-05-23T04:10:27.640218Z,-0.922452,-0.190327,0.314738
2019-05-23T04:10:27.679218Z,-1.065775,-0.279801,0.361955
2019-05-23T04:10:27.718218Z,-1.1424729999999998,0.41673999999999994,0.986643
2019-05-23T04:10:27.758218Z,-0.8604149999999999,0.557229,1.540668
2019-05-23T04:10:27.798218Z,-0.87446,0.28434899999999996,1.669099
2019-05-23T04:10:27.838218Z,-1.225183,-0.230996,2.087999
2019-05-23T04:10:27.877218Z,-1.3845809999999998,0.309864,1.1883780000000002
2019-05-23T04:10:27.917218Z,-1.185015,0.339868,1.140016
2019-05-23T04:10:27.957218Z,-1.398387,-1.286281,0.890289
2019-05-23T04:10:27.999218Z,-1.444048,-2.712695,1.271047
2019-05-23T04:10:28.037218Z,-1.152471,-2.8765080000000003,1.4051639999999999
2019-05-23T04:10:28.077218Z,0.23866500000000002,-3.819748,0.15545499999999998
2019-05-23T04:10:28.118218Z,0.55395,-2.796333,-1.162333
2019-05-23T04:10:28.157218Z,0.89979,-2.568782,-1.1936950000000002
2019-05-23T04:10:28.200218Z,0.175421,-1.172548,-1.3683610000000002
2019-05-23T04:10:28.241218Z,-0.872044,-0.233224,-1.695548
2019-05-23T04:10:28.279218Z,-1.164865,0.025393000000000002,-1.857748
2019-05-23T04:10:28.317218Z,-0.9996729999999999,-0.233123,0.34127199999999996
2019-05-23T04:10:28.357218Z,-0.6421789999999999,-1.252913,0.9427969999999999
2019-05-23T04:10:28.397218Z,-0.644633,-1.326975,0.972326
2019-05-23T04:10:28.437218Z,-0.1103,-0.487932,0.7311880000000001
2019-05-23T04:10:28.480218Z,1.057285,0.573226,0.291952
2019-05-23T04:10:28.517218Z,1.359081,0.509358,0.367195
2019-05-23T04:10:28.558218Z,0.015319999999999999,1.46157,0.814024
2019-05-23T04:10:28.598218Z,-0.023495,1.439144,0.46767600000000004
2019-05-23T04:10:28.637218Z,0.130875,1.481262,0.46408999999999995
2019-05-23T04:10:28.679218Z,0.263364,-0.506871,1.304822
2019-05-23T04:10:28.717218Z,-0.140522,-1.2964440000000002,0.599247
2019-05-23T04:10:28.758218Z,-0.110437,-1.052278,0.4973
2019-05-23T04:10:28.798218Z,0.737189,-1.378206,0.6949310000000001
2019-05-23T04:10:28.838218Z,0.978877,-1.2797690000000002,0.202783
2019-05-23T04:10:28.879218Z,0.989994,-1.096433,0.152122
2019-05-23T04:10:28.919218Z,1.268407,-0.8582290000000001,0.368588
2019-05-23T04:10:28.959218Z,0.606621,-0.5150020000000001,-0.23806300000000002
2019-05-23T04:10:28.999218Z,0.45103999999999994,-0.46316,-0.280428
2019-05-23T04:10:29.039218Z,-0.12150799999999999,0.083324,-0.147182
2019-05-23T04:10:29.079218Z,0.205826,0.368115,0.214166
2019-05-23T04:10:29.119218Z,0.026958999999999997,0.224649,0.22478499999999998
2019-05-23T04:10:29.161218Z,0.802968,0.509798,0.007697
2019-05-23T04:10:29.200218Z,0.40829499999999996,0.27264,-0.5424770000000001
2019-05-23T04:10:29.239218Z,0.49869300000000005,0.273507,-0.520993
2019-05-23T04:10:29.280218Z,0.5323859999999999,-0.149677,0.662523
2019-05-23T04:10:29.318218Z,-0.22641399999999998,-0.075551,0.342224
2019-05-23T04:10:29.358218Z,-0.463607,0.070921,0.249144
2019-05-23T04:10:29.429218Z,-1.14755,-0.14526,0.318296
2019-05-23T04:10:29.441218Z,-1.365679,-1.573428,2.011869
2019-05-23T04:10:29.478218Z,-1.493017,-1.646194,2.0008470000000003
2019-05-23T04:10:29.518218Z,-0.929732,-1.506407,0.716598
2019-05-23T04:10:29.558218Z,-0.649179,-1.695102,0.11546500000000001
2019-05-23T04:10:29.599218Z,-0.568842,-1.71192,0.13583800000000001
2019-05-23T04:10:29.640218Z,-0.658091,-1.8537740000000003,0.184548
2019-05-23T04:10:29.679218Z,-0.552475,-1.9764709999999999,-0.161719
2019-05-23T04:10:29.720218Z,-0.501221,-2.007948,-0.13097899999999998
2019-05-23T04:10:29.760218Z,-0.03055,-1.692116,-0.175754
2019-05-23T04:10:29.803218Z,0.096426,-1.211674,-0.072529
2019-05-23T04:10:29.840218Z,0.127115,-1.137981,-0.08454099999999999
2019-05-23T04:10:29.879218Z,0.387445,-0.826752,0.608348
2019-05-23T04:10:29.919218Z,0.11962,-0.464416,0.5700189999999999
2019-05-23T04:10:29.959218Z,-0.015206,-0.588489,0.588503
2019-05-23T04:10:29.999218Z,0.196602,-0.046019,0.874549
2019-05-23T04:10:30.039218Z,0.385558,0.289563,0.504447
2019-05-23T04:10:30.080218Z,0.374983,0.198709,0.52752
2019-05-23T04:10:30.120218Z,0.188459,0.371552,0.494328
2019-05-23T04:10:30.160218Z,0.765332,0.661846,0.24216500000000002
2019-05-23T04:10:30.201218Z,0.550079,0.847367,0.141284
2019-05-23T04:10:30.239218Z,0.8568530000000001,-0.20343599999999998,1.561191
2019-05-23T04:10:30.280218Z,1.900596,-1.738605,2.161731
2019-05-23T04:10:30.320218Z,1.848857,-1.8826470000000002,2.193089
2019-05-23T04:10:30.361218Z,1.4148040000000002,-1.2445540000000002,0.409433
2019-05-23T04:10:30.402218Z,1.303621,-1.282093,-0.36677
2019-05-23T04:10:30.440218Z,1.19763,-1.4257030000000002,-0.292908
2019-05-23T04:10:30.481218Z,1.000759,-1.207451,-0.54592
2019-05-23T04:10:30.520218Z,1.044737,-0.615259,-0.7969149999999999
2019-05-23T04:10:30.560218Z,1.055109,-0.5274369999999999,-0.8184899999999999
2019-05-23T04:10:30.600218Z,0.8926040000000001,-0.37706300000000004,-0.26153899999999997
2019-05-23T04:10:30.640218Z,0.70302,-0.42125200000000007,0.34699
2019-05-23T04:10:30.681218Z,0.751466,-0.459024,0.364025
2019-05-23T04:10:30.722218Z,0.82485,-0.09,-0.532277
2019-05-23T04:10:30.761218Z,1.074834,0.576072,-0.765046
2019-05-23T04:10:30.801218Z,1.110886,0.574271,-0.75312
2019-05-23T04:10:30.840218Z,1.190138,0.9833719999999999,-0.635678
2019-05-23T04:10:30.905218Z,1.204546,1.383358,0.604154
2019-05-23T04:10:30.930218Z,1.1743270000000001,1.37165,0.588557
2019-05-23T04:10:30.960218Z,1.18349,0.9422360000000001,0.703964
2019-05-23T04:10:31.002218Z,1.199195,0.881498,0.361679
2019-05-23T04:10:31.040218Z,0.945508,0.7850699999999999,0.391115
2019-05-23T04:10:31.080218Z,1.006241,-0.002032,1.45224
2019-05-23T04:10:31.121218Z,0.383422,-1.536252,0.9489
2019-05-23T04:10:31.160218Z,0.347013,-1.553959,0.95481
2019-05-23T04:10:31.200218Z,0.16578099999999998,-1.786195,1.06189
2019-05-23T04:10:31.256218Z,0.9879,-1.443758,-0.039566000000000004
2019-05-23T04:10:31.280218Z,1.048074,-1.4331610000000001,-0.033544
2019-05-23T04:10:31.320218Z,1.34089,-0.855376,-1.138841
2019-05-23T04:10:31.361218Z,0.9135620000000001,-0.503937,-1.5332729999999999
2019-05-23T04:10:31.401218Z,0.884266,-0.5206569999999999,-1.494746
2019-05-23T04:10:31.440218Z,0.968578,-0.109477,-0.74003
2019-05-23T04:10:31.480218Z,1.004265,0.418288,0.002153
2019-05-23T04:10:31.520218Z,1.019335,0.34542399999999995,0.036226999999999995
2019-05-23T04:10:31.560218Z,1.427737,0.8250860000000001,0.35407
2019-05-23T04:10:31.601218Z,1.811105,0.6992619999999999,0.6383939999999999
2019-05-23T04:10:31.642218Z,1.8702439999999998,0.607279,0.672244
2019-05-23T04:10:31.682218Z,2.029852,0.45746899999999996,1.24595
2019-05-23T04:10:31.721218Z,2.63599,0.300046,1.059489
2019-05-23T04:10:31.763218Z,2.7152979999999998,0.27566199999999996,1.060229
2019-05-23T04:10:31.802218Z,1.590288,0.574654,1.821565
2019-05-23T04:10:31.841218Z,2.058128,-1.2832729999999999,1.193244
2019-05-23T04:10:31.889218Z,1.9812619999999999,-1.4078760000000001,1.26536
2019-05-23T04:10:31.923218Z,2.221788,-1.040816,0.481704
2019-05-23T04:10:31.961218Z,2.651643,-1.2621360000000001,0.496807
2019-05-23T04:10:32.001218Z,2.520741,-1.302753,0.530889
2019-05-23T04:10:32.041218Z,1.48648,-1.6581720000000002,-0.22588000000000003
2019-05-23T04:10:32.081218Z,1.46862,-1.4809780000000001,-0.313355
2019-05-23T04:10:32.123218Z,1.381176,-1.4760389999999999,-0.29074
2019-05-23T04:10:32.162218Z,1.091124,-0.919881,-1.006249
2019-05-23T04:10:32.201218Z,1.0415729999999999,-0.596619,-0.623544
2019-05-23T04:10:32.241218Z,1.001495,-0.534112,-0.6463810000000001
2019-05-23T04:10:32.281218Z,0.546138,-0.17661,-0.161142
2019-05-23T04:10:32.321218Z,-0.22020100000000004,0.152853,-0.07169199999999999
2019-05-23T04:10:32.361218Z,-0.227425,0.12374600000000001,-0.050834
2019-05-23T04:10:32.402218Z,0.8577530000000001,0.949725,-0.372374
2019-05-23T04:10:32.441218Z,0.110881,1.01741,-0.236637
2019-05-23T04:10:32.481218Z,0.142798,0.993231,-0.231587
2019-05-23T04:10:32.522218Z,0.47803199999999996,0.840024,0.634134
2019-05-23T04:10:32.561218Z,0.680949,0.904112,1.146888
2019-05-23T04:10:32.602218Z,0.672358,0.7142569999999999,1.257709
2019-05-23T04:10:32.642218Z,0.684027,-0.166906,0.763011
2019-05-23T04:10:32.683218Z,0.41373000000000004,-0.531224,1.239466
2019-05-23T04:10:32.722218Z,0.534991,-0.644196,1.300308
2019-05-23T04:10:32.762218Z,0.890083,-1.458224,0.294929
2019-05-23T04:10:32.802218Z,0.36988200000000004,-1.3342379999999998,-0.38669000000000003
2019-05-23T04:10:32.841218Z,0.364282,-1.240584,-0.437332
2019-05-23T04:10:32.881218Z,0.522914,-1.727139,0.136244
2019-05-23T04:10:32.922218Z,0.284641,-1.588156,0.718837
2019-05-23T04:10:32.962218Z,0.383714,-1.439293,0.6055010000000001
2019-05-23T04:10:33.002218Z,-0.22632199999999997,-1.0041950000000002,-0.30537800000000004
2019-05-23T04:10:33.042218Z,-0.621271,-0.829467,-0.152064
2019-05-23T04:10:33.092218Z,-0.657224,-0.8775950000000001,-0.101365
2019-05-23T04:10:33.126218Z,-0.717332,-0.507472,0.255222
2019-05-23T04:10:33.161218Z,-0.726429,-0.0285,-0.162031
2019-05-23T04:10:33.202218Z,-0.729586,-0.042263999999999996,-0.147392
2019-05-23T04:10:33.242218Z,-0.122228,0.39703499999999997,0.07486799999999999
2019-05-23T04:10:33.282218Z,-0.079961,0.21685300000000002,0.231185
2019-05-23T04:10:33.322218Z,-0.136235,0.171154,0.26521100000000003
2019-05-23T04:10:33.362218Z,0.230462,0.313297,1.1677540000000002
2019-05-23T04:10:33.402218Z,0.361975,-0.32100100000000004,0.17965
2019-05-23T04:10:33.444218Z,0.265354,-0.125364,0.052564
2019-05-23T04:10:33.482218Z,-0.171433,-0.785325,0.810377
2019-05-23T04:10:33.523218Z,0.48362200000000005,-0.984708,0.30284099999999997
2019-05-23T04:10:33.562218Z,0.38737,-0.8355229999999999,0.222479
2019-05-23T04:10:33.602218Z,1.134893,-0.454804,-0.182266
2019-05-23T04:10:33.643218Z,1.149942,-1.083979,-0.168562
2019-05-23T04:10:33.683218Z,1.561839,-0.9813350000000001,-0.244812
2019-05-23T04:10:33.722218Z,1.9516229999999999,-0.9594860000000001,0.876024
2019-05-23T04:10:33.763218Z,0.44668199999999997,-0.354796,-0.936283
2019-05-23T04:10:33.803218Z,0.630311,-0.20112,-0.986094
2019-05-23T04:10:33.843218Z,0.469267,-0.384449,-0.661207
2019-05-23T04:10:33.883218Z,0.189657,-0.13878900000000002,0.22657399999999997
2019-05-23T04:10:33.922218Z,0.16078399999999998,-0.130602,0.218829
2019-05-23T04:10:33.963218Z,0.07211000000000001,-0.21261300000000002,0.7088760000000001
2019-05-23T04:10:34.003218Z,-0.02745,-0.07721599999999999,0.908789
2019-05-23T04:10:34.043218Z,0.065349,-0.030437,0.876358
2019-05-23T04:10:34.082218Z,0.231169,0.546851,0.572327
2019-05-23T04:10:34.122218Z,0.045831000000000004,0.6190899999999999,1.423598
2019-05-23T04:10:34.162218Z,0.016963,0.5057189999999999,1.451476
2019-05-23T04:10:34.204218Z,-0.12126500000000001,0.535254,1.106709
2019-05-23T04:10:34.243218Z,0.026226,-0.769454,1.932018
2019-05-23T04:10:34.283218Z,0.044466000000000006,-0.878942,1.965789
2019-05-23T04:10:34.324218Z,0.070953,-1.991391,1.048548
2019-05-23T04:10:34.364218Z,-0.20730900000000002,-1.8184169999999997,-0.421498
2019-05-23T04:10:34.403218Z,-0.177387,-1.790159,-0.412184
2019-05-23T04:10:34.443218Z,0.020429,-1.906338,-0.42026899999999995
2019-05-23T04:10:34.520218Z,-0.175746,-1.637541,-0.42759300000000006
2019-05-23T04:10:34.535218Z,-0.13627,-1.6772919999999998,-0.382357
2019-05-23T04:10:34.566218Z,-0.183634,-1.088333,-0.325044
2019-05-23T04:10:34.603218Z,-0.353576,-0.65286,-0.507999
2019-05-23T04:10:34.644218Z,-0.427317,-0.632648,-0.507099
2019-05-23T04:10:34.683218Z,-0.023612,-0.534324,0.158617
2019-05-23T04:10:34.723218Z,0.36743899999999996,-0.455638,0.369163
2019-05-23T04:10:34.764218Z,0.333279,-0.534135,0.41039899999999996
2019-05-23T04:10:34.804218Z,0.557766,-0.24978000000000003,0.061975999999999996
2019-05-23T04:10:34.846218Z,0.411998,0.07141,-0.114651
2019-05-23T04:10:34.906218Z,0.256213,0.001437,-0.073317
2019-05-23T04:10:34.924218Z,-0.09983,0.321626,1.041958
2019-05-23T04:10:34.964218Z,0.3283,0.6383850000000001,0.482037
2019-05-23T04:10:35.003218Z,0.22527199999999997,0.8545149999999999,0.350034
2019-05-23T04:10:35.044218Z,-0.23145,-0.834943,1.865916
2019-05-23T04:10:35.084218Z,1.0660180000000001,-1.8474650000000001,2.472292
2019-05-23T04:10:35.124218Z,1.1770040000000002,-1.809551,2.426052
2019-05-23T04:10:35.164218Z,0.748476,-1.284368,-0.5795239999999999
2019-05-23T04:10:35.205218Z,0.915024,-1.5699940000000001,0.311465
2019-05-23T04:10:35.245218Z,0.8507459999999999,-1.5316610000000002,0.300203
2019-05-23T04:10:35.285218Z,0.25438,-1.478969,0.058632000000000004
2019-05-23T04:10:35.325218Z,0.8210770000000001,-0.996423,-0.327232
2019-05-23T04:10:35.365218Z,0.8260149999999999,-0.8961469999999999,-0.363439
2019-05-23T04:10:35.404218Z,-0.20612399999999997,-0.81828,-0.792409
2019-05-23T04:10:35.445218Z,0.659275,-0.51178,-0.047187
2019-05-23T04:10:35.487218Z,0.590286,-0.5689270000000001,-0.013006
2019-05-23T04:10:35.527218Z,0.8502129999999999,0.306766,0.20669899999999997
2019-05-23T04:10:35.566218Z,0.6377689999999999,0.686437,0.147168
2019-05-23T04:10:35.605218Z,0.7334729999999999,0.760268,0.100825
2019-05-23T04:10:35.644218Z,-0.249207,1.099185,0.293844
2019-05-23T04:10:35.686218Z,-0.46098900000000004,0.3613,2.036346
2019-05-23T04:10:35.727218Z,-0.459696,0.138698,2.112309
2019-05-23T04:10:35.764218Z,-0.207461,-0.607213,2.155021
2019-05-23T04:10:35.805218Z,-0.596863,-1.0711600000000001,0.131794
2019-05-23T04:10:35.845218Z,-0.684905,-1.105237,0.156966
2019-05-23T04:10:35.886218Z,-0.063249,-1.8915790000000001,1.724821
2019-05-23T04:10:35.925218Z,0.004366,-1.907716,-1.104538
2019-05-23T04:10:35.966218Z,0.018619999999999998,-1.790511,-1.131486
2019-05-23T04:10:36.005218Z,-0.276965,-1.634374,-0.700842
2019-05-23T04:10:36.045218Z,-1.079955,-1.89268,-0.078984
2019-05-23T04:10:36.139218Z,-0.990675,-1.8183310000000001,-0.09790700000000001
2019-05-23T04:10:36.141218Z,-0.45724899999999996,-0.8534780000000001,-0.542245
2019-05-23T04:10:36.174218Z,-0.471575,-0.5322520000000001,-0.26821100000000003
2019-05-23T04:10:36.206218Z,-0.589282,-0.62079,-0.216989
2019-05-23T04:10:36.245218Z,-0.297078,-0.614434,0.587737
2019-05-23T04:10:36.287218Z,-0.34486300000000003,-0.243184,-0.098372
2019-05-23T04:10:36.325218Z,-0.32040799999999997,-0.245957,-0.09314
2019-05-23T04:10:36.368218Z,-0.37197800000000003,-0.057222,-0.024376
2019-05-23T04:10:36.406218Z,-0.7565850000000001,-0.161635,0.40289200000000003
2019-05-23T04:10:36.446218Z,-0.918208,-0.277776,0.46275900000000003
2019-05-23T04:10:36.486218Z,-0.31411300000000003,0.350013,2.0568720000000003
2019-05-23T04:10:36.525218Z,0.541079,0.127445,0.07953500000000001
2019-05-23T04:10:36.565218Z,0.42318199999999995,0.312801,-0.016106
2019-05-23T04:10:36.605218Z,0.13411900000000002,-0.504008,1.253949
2019-05-23T04:10:36.646218Z,0.694192,-1.176503,1.197648
2019-05-23T04:10:36.685218Z,0.764383,-1.091386,1.142262
2019-05-23T04:10:36.725218Z,0.7938390000000001,-1.17267,-0.27981500000000004
2019-05-23T04:10:36.766218Z,0.517099,-1.571871,0.232238
2019-05-23T04:10:36.806218Z,0.516263,-1.5388540000000002,0.22504699999999997
2019-05-23T04:10:36.846218Z,0.077175,-1.3156290000000002,0.3927
2019-05-23T04:10:36.886218Z,0.262879,-0.709964,-0.655233
2019-05-23T04:10:36.926218Z,0.29695,-0.667672,-0.658296
2019-05-23T04:10:36.965218Z,0.070021,-0.448496,-0.779692
2019-05-23T04:10:37.006218Z,-0.020858,-0.49902399999999997,-0.135784
2019-05-23T04:10:37.046218Z,0.038021,-0.506764,-0.125934
2019-05-23T04:10:37.085218Z,0.07665,-0.168931,-0.058702
2019-05-23T04:10:37.182218Z,-0.109602,0.216806,-0.45933599999999997
2019-05-23T04:10:37.184218Z,-0.18526800000000002,0.214141,-0.453075
2019-05-23T04:10:37.214218Z,-0.30422,0.619919,0.787643
2019-05-23T04:10:37.245218Z,-0.367109,0.896041,1.335127
2019-05-23T04:10:37.286218Z,-0.336397,0.792014,1.353453
2019-05-23T04:10:37.326218Z,0.264396,0.8180270000000001,1.662353
2019-05-23T04:10:37.366218Z,-0.15365,0.03645,0.710597
2019-05-23T04:10:37.406218Z,-0.285508,-0.037143,0.735394
2019-05-23T04:10:37.447218Z,0.13381500000000002,-1.246552,1.838814
2019-05-23T04:10:37.487218Z,0.13125699999999998,-1.750052,0.10686500000000002
2019-05-23T04:10:37.529218Z,0.208614,-1.6964290000000002,0.091799
2019-05-23T04:10:37.581218Z,0.23975100000000002,-1.434641,-0.663424
2019-05-23T04:10:37.606218Z,-0.076012,-1.382709,-0.485174
2019-05-23T04:10:37.646218Z,-0.067607,-1.388907,-0.463269
2019-05-23T04:10:37.687218Z,-0.028626,-0.830997,-0.523563
2019-05-23T04:10:37.726218Z,-0.16612000000000002,-0.066983,-0.6467689999999999
2019-05-23T04:10:37.766218Z,-0.116379,-0.071585,-0.6335890000000001
2019-05-23T04:10:37.806218Z,-0.102497,0.263167,-0.259916
2019-05-23T04:10:37.847218Z,-0.6843319999999999,0.28511,0.016996
2019-05-23T04:10:37.887218Z,-0.672864,0.270818,0.021228
2019-05-23T04:10:37.927218Z,-0.937097,-0.021313,0.668136
2019-05-23T04:10:37.968218Z,-1.1588120000000002,-0.413487,0.956161
2019-05-23T04:10:38.007218Z,-1.160347,-0.519595,0.996921
2019-05-23T04:10:38.046218Z,-1.082768,-0.5175420000000001,0.7085020000000001
2019-05-23T04:10:38.087218Z,-1.8638810000000001,-0.194349,0.416158
2019-05-23T04:10:38.127218Z,-1.954533,-0.291516,0.461767
2019-05-23T04:10:38.167218Z,-0.305212,-1.33966,1.8756680000000001
2019-05-23T04:10:38.208218Z,-0.23619400000000002,-1.394284,0.00447
2019-05-23T04:10:38.247218Z,-0.259062,-1.363608,0.001182
2019-05-23T04:10:38.287218Z,0.179339,-1.144083,0.282102
2019-05-23T04:10:38.327218Z,-0.10622899999999999,-1.212581,0.154554
2019-05-23T04:10:38.367218Z,-0.096091,-1.1990370000000001,0.155197
2019-05-23T04:10:38.407218Z,0.004886,-0.735159,-0.178775
2019-05-23T04:10:38.448218Z,-0.113751,-0.488859,-0.30452399999999996
2019-05-23T04:10:38.487218Z,-0.16897,-0.43815699999999996,-0.31909899999999997
2019-05-23T04:10:38.527218Z,-0.170976,-0.580541,0.353232
2019-05-23T04:10:38.568218Z,0.26563000000000003,-0.24897800000000003,0.44363100000000005
2019-05-23T04:10:38.609218Z,0.256932,-0.23079899999999998,0.429518
2019-05-23T04:10:38.648218Z,0.281911,0.24835100000000002,-0.420683
2019-05-23T04:10:38.688218Z,0.378579,0.5502560000000001,-0.167857
2019-05-23T04:10:38.728218Z,0.338392,0.46301499999999995,-0.124175
2019-05-23T04:10:38.768218Z,0.441816,0.697513,-0.19776400000000002
2019-05-23T04:10:38.809218Z,0.6559689999999999,0.841533,-0.290902
2019-05-23T04:10:38.848218Z,0.648479,0.783543,-0.263241
2019-05-23T04:10:38.888218Z,0.730394,0.5131720000000001,0.719704
2019-05-23T04:10:38.930218Z,0.643799,0.385939,0.383447
2019-05-23T04:10:38.969218Z,0.788375,0.436126,0.347125
2019-05-23T04:10:39.007218Z,0.551724,0.32269899999999996,0.901224
2019-05-23T04:10:39.047218Z,1.041907,-1.065808,1.137075
2019-05-23T04:10:39.089218Z,1.09628,-1.1469049999999998,1.177257
2019-05-23T04:10:39.140218Z,0.271146,-1.3094459999999999,0.161074
2019-05-23T04:10:39.167218Z,1.2494100000000001,-0.920417,-0.793623
2019-05-23T04:10:39.207218Z,0.9181,-0.9506049999999999,-0.758812
2019-05-23T04:10:39.247218Z,0.116058,-0.22084,-0.915384
2019-05-23T04:10:39.289218Z,0.113771,0.24639,-0.602866
2019-05-23T04:10:39.328218Z,-0.102727,0.548956,-0.754979
2019-05-23T04:10:39.368218Z,0.458185,-0.1659,-0.542775
2019-05-23T04:10:39.407218Z,0.446474,-0.25808000000000003,0.520178
2019-05-23T04:10:39.448218Z,0.572663,-0.102403,0.42904899999999996
2019-05-23T04:10:39.488218Z,0.358381,0.46315,-0.33499
2019-05-23T04:10:39.530218Z,0.378205,0.856893,-0.546864
2019-05-23T04:10:39.568218Z,0.360512,0.853662,-0.542471
2019-05-23T04:10:39.609218Z,-0.42266899999999996,1.184279,-0.441176
2019-05-23T04:10:39.648218Z,-0.448896,1.512572,-0.246128
2019-05-23T04:10:39.690218Z,-0.400131,1.560469,-0.27787399999999995
2019-05-23T04:10:39.728218Z,0.073035,1.0106870000000001,0.181996
2019-05-23T04:10:39.768218Z,0.20401,0.708073,1.3685889999999998
2019-05-23T04:10:39.808218Z,0.373233,0.9050540000000001,1.24407
2019-05-23T04:10:39.879218Z,0.388065,0.473735,-0.9510930000000001
2019-05-23T04:10:39.889218Z,0.607608,0.311842,2.477777
2019-05-23T04:10:39.928218Z,0.541516,0.075449,2.5400560000000003
2019-05-23T04:10:39.968218Z,0.688109,-1.848732,0.7204550000000001
2019-05-23T04:10:40.008218Z,0.8295450000000001,-1.5534569999999999,0.312337
2019-05-23T04:10:40.049218Z,0.811603,-1.4729450000000002,0.282346
2019-05-23T04:10:40.089218Z,0.38618600000000003,-1.509456,-0.8296610000000001
2019-05-23T04:10:40.129218Z,-0.21381399999999998,-1.151792,-0.09665399999999999
2019-05-23T04:10:40.170218Z,-0.20239400000000002,-1.2540209999999998,-0.039618
2019-05-23T04:10:40.209218Z,0.39994,-0.671532,-0.395891
2019-05-23T04:10:40.249218Z,0.20936999999999997,-0.445626,-1.368096
2019-05-23T04:10:40.288218Z,0.175175,-0.282881,-1.41304
2019-05-23T04:10:40.328218Z,-0.46915100000000004,-0.23308299999999998,-1.4961719999999998
2019-05-23T04:10:40.368218Z,-0.602951,0.066084,0.111855
2019-05-23T04:10:40.409218Z,-0.752315,0.097969,0.111726
2019-05-23T04:10:40.448218Z,-0.104367,1.397681,0.307766
2019-05-23T04:10:40.488218Z,-0.370635,1.4628299999999999,1.095276
2019-05-23T04:10:40.528218Z,-0.408195,1.170407,1.192494
2019-05-23T04:10:40.569218Z,-0.130635,1.699222,1.424597
2019-05-23T04:10:40.609218Z,-0.3983,0.930817,1.195484
2019-05-23T04:10:40.649218Z,-0.15695699999999999,0.911385,1.160783
2019-05-23T04:10:40.690218Z,0.629948,-0.044133,0.81084
2019-05-23T04:10:40.729218Z,-0.224189,-0.9909100000000001,1.9678509999999998
2019-05-23T04:10:40.769218Z,-0.05546,-0.888732,1.8862419999999998
2019-05-23T04:10:40.809218Z,0.740576,-0.18341400000000002,-1.805821
2019-05-23T04:10:40.850218Z,-0.022611000000000003,-1.3729719999999999,0.129434
2019-05-23T04:10:40.889218Z,-0.038813,-1.351108,0.128228
2019-05-23T04:10:40.931218Z,-0.16578199999999998,-1.7443689999999998,-0.661373
2019-05-23T04:10:40.970218Z,-0.154346,-1.4537200000000001,-0.080014
2019-05-23T04:10:41.009218Z,-0.055664,-1.421102,-0.084908
2019-05-23T04:10:41.049218Z,-0.031374,-0.439159,-1.2345190000000001
2019-05-23T04:10:41.115218Z,0.6105729999999999,0.330452,-0.548689
2019-05-23T04:10:41.143218Z,0.585597,0.36340900000000004,-0.557026
2019-05-23T04:10:41.170218Z,-0.478696,0.19422799999999998,-0.48902399999999996
2019-05-23T04:10:41.210218Z,-1.10517,0.049212,0.084487
2019-05-23T04:10:41.250218Z,-1.380045,0.361053,-0.027801999999999997
2019-05-23T04:10:41.290218Z,-0.250422,1.492604,-0.012338
2019-05-23T04:10:41.330218Z,0.473844,0.8592559999999999,2.979161
2019-05-23T04:10:41.369218Z,0.7803329999999999,0.813437,2.928827
2019-05-23T04:10:41.414218Z,-0.12616,0.596187,-0.504057
2019-05-23T04:10:41.449218Z,-0.48501400000000006,-0.518554,0.926773
2019-05-23T04:10:41.489218Z,-0.405969,-0.8042100000000001,1.043949
2019-05-23T04:10:41.529218Z,0.978994,-1.473387,0.713727
2019-05-23T04:10:41.569218Z,0.548266,-1.6658529999999998,0.125563
2019-05-23T04:10:41.611218Z,0.50366,-1.8728169999999997,0.25769899999999996
2019-05-23T04:10:41.650218Z,0.43328199999999994,-0.905416,-1.751513
2019-05-23T04:10:41.690218Z,0.514247,0.040013,-2.014753
2019-05-23T04:10:41.730218Z,0.489324,0.104026,-2.014402
2019-05-23T04:10:41.770218Z,0.527188,-0.41698900000000005,-0.465217
2019-05-23T04:10:41.810218Z,0.403306,0.155332,-1.083038
2019-05-23T04:10:41.850218Z,0.41636599999999996,0.27370900000000004,-1.123687
2019-05-23T04:10:41.890218Z,-0.12169100000000001,0.00487,-0.362254
2019-05-23T04:10:41.931218Z,-0.316802,0.348713,0.674143
2019-05-23T04:10:41.970218Z,-0.282882,0.308232,0.678639
2019-05-23T04:10:42.010218Z,-0.181306,0.497478,0.431108
2019-05-23T04:10:42.051218Z,-0.715453,0.195718,1.327626
2019-05-23T04:10:42.091218Z,-0.710892,0.242371,1.281005
2019-05-23T04:10:42.130218Z,0.234907,0.38714899999999997,0.32869299999999996
2019-05-23T04:10:42.171218Z,-0.218654,-0.122927,1.905066
2019-05-23T04:10:42.211218Z,-0.03538,-0.17563299999999998,1.891448
2019-05-23T04:10:42.250218Z,-0.386473,-0.694142,-0.472463
2019-05-23T04:10:42.290218Z,-0.28982399999999997,-0.580295,-1.0428950000000001
2019-05-23T04:10:42.385218Z,-0.31851599999999997,-0.405229,-1.0984120000000002
2019-05-23T04:10:42.386218Z,-0.531279,-0.696433,-0.449693
2019-05-23T04:10:42.412218Z,-0.74483,-0.9254030000000001,0.504867
2019-05-23T04:10:42.449218Z,-0.707997,-0.9598129999999999,0.5168520000000001
2019-05-23T04:10:42.490218Z,-0.638579,-0.552854,-0.014493
2019-05-23T04:10:42.531218Z,-0.6005689999999999,-0.428529,-0.352487
2019-05-23T04:10:42.571218Z,-0.7229270000000001,-0.495238,-0.309769
2019-05-23T04:10:42.612218Z,-0.759182,-0.035773,-0.283547
2019-05-23T04:10:42.651218Z,0.048435,0.453901,-0.020344
2019-05-23T04:10:42.691218Z,0.07285900000000001,0.459764,-0.027781999999999998
2019-05-23T04:10:42.747218Z,0.009882,0.387408,0.0044329999999999994
2019-05-23T04:10:42.771218Z,-0.213875,0.46837,1.332993
2019-05-23T04:10:42.811218Z,0.012551,0.363088,1.3475270000000001
2019-05-23T04:10:42.850218Z,0.928897,0.342484,0.525945
2019-05-23T04:10:42.891218Z,-0.23455,-0.14548599999999998,1.253393
2019-05-23T04:10:42.930218Z,-0.10592,-0.279472,1.298762
2019-05-23T04:10:42.973218Z,0.42274300000000004,-0.312773,-0.231915
2019-05-23T04:10:43.011218Z,0.587028,-0.776673,-0.393283
2019-05-23T04:10:43.051218Z,0.6871619999999999,-0.768303,-0.38390599999999997
2019-05-23T04:10:43.092218Z,0.069496,-1.295924,-0.712304
2019-05-23T04:10:43.131218Z,0.41086000000000006,-0.537733,-0.680087
2019-05-23T04:10:43.172218Z,0.387801,-0.543691,-0.661809
2019-05-23T04:10:43.212218Z,0.811994,-0.132868,-0.9536290000000001
2019-05-23T04:10:43.252218Z,0.317521,-0.23790999999999998,-0.715309
2019-05-23T04:10:43.293218Z,0.316633,-0.22585,-0.707248
2019-05-23T04:10:43.331218Z,0.049913,-0.124527,0.006157
2019-05-23T04:10:43.372218Z,0.282725,-0.30224,0.981231
2019-05-23T04:10:43.412218Z,0.473979,-0.320944,0.977675
2019-05-23T04:10:43.452218Z,0.538018,-0.082454,-0.013635
2019-05-23T04:10:43.492218Z,0.136401,-0.022103,1.269917
2019-05-23T04:10:43.535218Z,0.307824,-0.092966,1.284794
2019-05-23T04:10:43.572218Z,0.8794379999999999,-0.40022399999999997,0.9709909999999999
2019-05-23T04:10:43.612218Z,0.602896,-0.023899,-0.383253
2019-05-23T04:10:43.651218Z,0.650936,-0.063463,-0.357364
2019-05-23T04:10:43.692218Z,0.51336,-0.9658540000000001,0.233125
2019-05-23T04:10:43.731218Z,0.773349,-0.42660600000000004,-0.911942
2019-05-23T04:10:43.771218Z,0.8626450000000001,-0.35586599999999996,-0.9143889999999999
2019-05-23T04:10:43.848218Z,0.9736459999999999,0.012927000000000001,-0.9123690000000001
2019-05-23T04:10:43.859218Z,0.7820199999999999,0.362944,-0.781697
2019-05-23T04:10:43.893218Z,0.784998,0.42502299999999993,-0.7913899999999999
2019-05-23T04:10:43.931218Z,0.323891,0.11898299999999999,0.186154
2019-05-23T04:10:43.972218Z,0.525311,0.104994,0.393952
2019-05-23T04:10:44.013218Z,0.504207,0.09849,0.387919
2019-05-23T04:10:44.052218Z,0.854632,-0.100227,0.770461
2019-05-23T04:10:44.092218Z,1.3854739999999999,-0.443518,1.3851069999999999
2019-05-23T04:10:44.131218Z,1.4894459999999998,-0.386881,1.356323
2019-05-23T04:10:44.172218Z,1.1331069999999999,-0.731545,0.18443199999999998
2019-05-23T04:10:44.212218Z,0.7510399999999999,-1.652159,2.382979
2019-05-23T04:10:44.254218Z,0.611935,-1.801277,2.399923
2019-05-23T04:10:44.293218Z,2.044019,-1.9629830000000001,1.9134959999999999
2019-05-23T04:10:44.332218Z,1.802282,-1.220013,-0.15533
2019-05-23T04:10:44.373218Z,1.578938,-1.253883,-0.133915
2019-05-23T04:10:44.412218Z,1.082969,-1.015347,-0.368521
2019-05-23T04:10:44.452218Z,0.74488,-0.808355,-0.33820700000000004
2019-05-23T04:10:44.492218Z,0.739901,-0.899265,-0.291863
2019-05-23T04:10:44.532218Z,0.072091,-0.801268,-0.255271
2019-05-23T04:10:44.573218Z,-0.631417,-0.7902939999999999,0.05463099999999999
2019-05-23T04:10:44.613218Z,-0.524696,-0.969485,0.136434
2019-05-23T04:10:44.652218Z,-0.91791,-0.9252379999999999,0.091159
2019-05-23T04:10:44.692218Z,-1.308684,-0.771137,-0.280812
2019-05-23T04:10:44.733218Z,-1.190668,-0.800828,-0.253626
2019-05-23T04:10:44.811218Z,-1.199489,-0.587958,0.08282
2019-05-23T04:10:44.812218Z,-0.843065,0.506209,0.308357
2019-05-23T04:10:44.856218Z,-1.043475,0.653413,0.23069699999999999
2019-05-23T04:10:44.892218Z,-1.757275,-0.7439,1.7713830000000002
2019-05-23T04:10:44.933218Z,-0.197993,-0.256461,1.8288220000000002
2019-05-23T04:10:44.973218Z,-0.179337,-0.318245,1.8266310000000001
2019-05-23T04:10:45.013218Z,-0.529507,-1.297468,0.518874
2019-05-23T04:10:45.056218Z,0.04446,-1.422741,-0.019438999999999998
2019-05-23T04:10:45.093218Z,0.153915,-1.477632,0.02083
2019-05-23T04:10:45.134218Z,-0.84895,-1.223792,-1.740405
2019-05-23T04:10:45.178218Z,-0.48225500000000004,-0.25310900000000003,-1.52185
2019-05-23T04:10:45.213218Z,-0.774591,-0.20840999999999998,-1.508808
2019-05-23T04:10:45.260218Z,-0.750868,-0.617274,0.154588
2019-05-23T04:10:45.294218Z,-0.634771,-1.113351,0.95411
2019-05-23T04:10:45.333218Z,-0.5069170000000001,-1.209239,0.984399
2019-05-23T04:10:45.373218Z,0.19580699999999998,-0.842298,0.9925459999999999
2019-05-23T04:10:45.414218Z,0.136107,0.018322,0.345746
2019-05-23T04:10:45.454218Z,0.223095,0.19710899999999998,0.258888
2019-05-23T04:10:45.493218Z,-0.407885,0.199474,0.219734
2019-05-23T04:10:45.534218Z,0.5889300000000001,-1.26216,3.175394
2019-05-23T04:10:45.573218Z,0.770021,-1.30714,3.149595
2019-05-23T04:10:45.614218Z,0.361827,-1.7398779999999998,0.093324
2019-05-23T04:10:45.658218Z,0.398841,-1.793852,0.251596
2019-05-23T04:10:45.693218Z,0.48158100000000004,-1.7763810000000002,0.254573
2019-05-23T04:10:45.795218Z,-0.405862,-1.472092,-0.9695540000000001
2019-05-23T04:10:45.797218Z,0.24440599999999998,-0.8162159999999999,-0.22534200000000001
2019-05-23T04:10:45.827218Z,0.033835000000000004,-1.01786,-0.119373
2019-05-23T04:10:45.854218Z,-0.719105,-1.1385809999999998,-0.770827
2019-05-23T04:10:45.894218Z,0.358053,-0.339854,-1.069024
2019-05-23T04:10:45.933218Z,0.544899,-0.479095,-0.9692200000000001
2019-05-23T04:10:45.977218Z,0.07431900000000001,-0.298656,-1.026727
2019-05-23T04:10:46.014218Z,-0.173239,0.178552,-0.2186
2019-05-23T04:10:46.054218Z,-0.308842,0.14644400000000002,-0.200983
2019-05-23T04:10:46.096218Z,-0.47263900000000003,0.275966,1.224987
2019-05-23T04:10:46.148218Z,-0.534936,0.45941099999999996,1.141714
2019-05-23T04:10:46.174218Z,-0.9001680000000001,0.6031449999999999,1.041491
2019-05-23T04:10:46.214218Z,-1.031736,0.814601,1.7125150000000002
2019-05-23T04:10:46.254218Z,-0.5758939999999999,-1.195961,2.202152
2019-05-23T04:10:46.294218Z,-0.6280060000000001,-1.0939969999999999,2.131215
2019-05-23T04:10:46.334218Z,-0.81552,-2.19658,0.729799
2019-05-23T04:10:46.374218Z,0.042283,-1.938174,0.15525
2019-05-23T04:10:46.414218Z,0.174481,-1.8622169999999998,0.119753
2019-05-23T04:10:46.455218Z,0.277969,-1.8995389999999999,-1.087041
2019-05-23T04:10:46.494218Z,0.564805,-1.0772190000000001,-0.410566
2019-05-23T04:10:46.534218Z,0.513637,-1.183023,-0.339054
2019-05-23T04:10:46.574218Z,0.10104500000000001,-0.822893,-0.929333
2019-05-23T04:10:46.615218Z,0.24830700000000003,-0.565882,-0.521383
2019-05-23T04:10:46.681218Z,0.338936,-0.446403,-0.57431
2019-05-23T04:10:46.705218Z,0.509737,0.30446100000000004,-0.330965
2019-05-23T04:10:46.733218Z,0.224356,0.350513,1.2718
2019-05-23T04:10:46.774218Z,0.15898099999999998,0.220708,1.312761
2019-05-23T04:10:46.815218Z,-0.152552,1.0240040000000001,1.788171
2019-05-23T04:10:46.854218Z,0.946363,1.337583,-0.086061
2019-05-23T04:10:46.894218Z,0.6932020000000001,1.391194,-0.116745
2019-05-23T04:10:46.935218Z,1.013426,-0.6352979999999999,2.749248
2019-05-23T04:10:46.977218Z,1.084463,-2.405345,0.749929
2019-05-23T04:10:47.039218Z,1.187325,-2.402635,0.752724
2019-05-23T04:10:47.055218Z,1.726479,-1.6140379999999999,-0.499331
2019-05-23T04:10:47.094218Z,0.698542,-1.413551,-1.08765
2019-05-23T04:10:47.135218Z,0.525476,-1.494048,-1.003787
2019-05-23T04:10:47.176218Z,0.843283,-1.036663,-0.459146
2019-05-23T04:10:47.215218Z,0.224728,-0.963001,-1.2613
2019-05-23T04:10:47.255218Z,0.155593,-0.815807,-1.301857
2019-05-23T04:10:47.294218Z,-0.487446,-0.45603699999999997,-1.010894
2019-05-23T04:10:47.335218Z,-0.077349,0.08049500000000001,0.283422
2019-05-23T04:10:47.377218Z,-0.224683,0.015627000000000002,0.324723
2019-05-23T04:10:47.415218Z,0.045812,0.40318200000000004,0.282229
2019-05-23T04:10:47.456218Z,1.232597,0.951787,2.390571
2019-05-23T04:10:47.497218Z,1.438444,0.885971,2.349026
2019-05-23T04:10:47.536218Z,-0.276981,0.112201,0.9131959999999999
2019-05-23T04:10:47.575218Z,-0.33855599999999997,-0.191472,1.283182
2019-05-23T04:10:47.615218Z,-0.384312,-0.266671,1.314115
2019-05-23T04:10:47.655218Z,0.26545599999999997,-1.405643,0.099739
2019-05-23T04:10:47.696218Z,0.204779,-1.80197,0.41869300000000004
2019-05-23T04:10:47.735218Z,0.203612,-1.7719770000000001,0.41141700000000003
2019-05-23T04:10:47.775218Z,0.178696,-1.146221,-0.170403
2019-05-23T04:10:47.815218Z,0.19514,-0.561487,0.098817
2019-05-23T04:10:47.856218Z,0.271597,-0.546671,0.083527
2019-05-23T04:10:47.896218Z,-0.174294,-0.424145,-0.744694
2019-05-23T04:10:47.935218Z,-0.445992,0.041811,0.074759
2019-05-23T04:10:47.975218Z,-0.400959,-0.153416,0.182642
2019-05-23T04:10:48.015218Z,-0.14841400000000002,0.46685600000000005,0.325207
2019-05-23T04:10:48.055218Z,-0.25758400000000004,-0.179812,0.46878000000000003
2019-05-23T04:10:48.095218Z,-0.050405,-0.218561,0.47263299999999997
2019-05-23T04:10:48.135218Z,-0.4236,-0.741869,1.221783
2019-05-23T04:10:48.176218Z,-0.503089,-0.5353100000000001,-0.089034
2019-05-23T04:10:48.216218Z,-0.8224239999999999,-0.535686,-0.067574
2019-05-23T04:10:48.256218Z,-0.754473,-0.144814,1.0836620000000001
2019-05-23T04:10:48.297218Z,0.083202,-1.4113209999999998,0.160385
2019-05-23T04:10:48.336218Z,0.121904,-1.1808290000000001,0.022882
2019-05-23T04:10:48.401218Z,0.130606,-0.711575,-0.799454
2019-05-23T04:10:48.431218Z,-1.150996,-1.5907209999999998,0.038522
2019-05-23T04:10:48.455218Z,-1.547958,-1.685343,0.149928
2019-05-23T04:10:48.497218Z,-1.746262,-1.3485850000000001,-0.12091600000000001
2019-05-23T04:10:48.536218Z,-0.686663,-0.42537200000000003,-1.4756040000000001
2019-05-23T04:10:48.576218Z,-0.767015,-0.299526,-1.510197
2019-05-23T04:10:48.617218Z,-1.5105,-0.40489899999999995,0.010731999999999998
2019-05-23T04:10:48.657218Z,-1.436524,-0.04722,1.454231
2019-05-23T04:10:48.697218Z,-1.482528,-0.048985,1.444126
2019-05-23T04:10:48.770218Z,-2.251965,0.031677,1.5988
2019-05-23T04:10:48.777218Z,-1.967695,0.12075799999999999,1.8155729999999999
2019-05-23T04:10:48.816218Z,-1.784012,0.23174499999999998,1.689025
2019-05-23T04:10:48.857218Z,-1.9618099999999998,0.053024,0.48479700000000003
2019-05-23T04:10:48.896218Z,-1.5204879999999998,-0.750674,2.198028
2019-05-23T04:10:48.936218Z,-1.296335,-0.689485,2.1105270000000003
2019-05-23T04:10:48.977218Z,-1.0594860000000001,-1.564124,0.207107
2019-05-23T04:10:49.016218Z,-0.8574790000000001,-1.738491,0.330997
2019-05-23T04:10:49.057218Z,-0.768572,-1.604381,0.264617
2019-05-23T04:10:49.101218Z,-0.344994,-1.89717,-0.144255
2019-05-23T04:10:49.137218Z,0.288771,-1.3296059999999998,0.06379
2019-05-23T04:10:49.177218Z,0.352007,-1.274621,0.043197
2019-05-23T04:10:49.217218Z,0.5578850000000001,-0.364173,-0.550573
2019-05-23T04:10:49.258218Z,0.252855,-0.25453200000000004,0.43699
2019-05-23T04:10:49.297218Z,0.32309899999999997,-0.252877,0.42824399999999996
2019-05-23T04:10:49.338218Z,0.540471,0.42938699999999996,0.086898
2019-05-23T04:10:49.377218Z,0.916582,1.04597,0.33111599999999997
2019-05-23T04:10:49.417218Z,1.0474620000000001,1.062938,0.308872
2019-05-23T04:10:49.458218Z,1.07855,0.9240229999999999,1.0246469999999999
2019-05-23T04:10:49.498218Z,1.432244,0.908553,0.464312
2019-05-23T04:10:49.540218Z,1.503636,0.974361,0.425026
2019-05-23T04:10:49.577218Z,2.016676,-0.8321790000000001,2.295954
2019-05-23T04:10:49.617218Z,1.056533,-1.34022,0.510968
2019-05-23T04:10:49.674218Z,1.108187,-1.385371,0.537827
2019-05-23T04:10:49.700218Z,1.953286,-0.772601,-0.19356199999999998
2019-05-23T04:10:49.737218Z,0.696804,-0.8286049999999999,-0.784207
2019-05-23T04:10:49.777218Z,0.6885479999999999,-0.904927,-0.728591
2019-05-23T04:10:49.817218Z,1.1043020000000001,-0.485755,-1.362655
2019-05-23T04:10:49.857218Z,-0.127141,-0.638672,-1.8042650000000002
2019-05-23T04:10:49.898218Z,-0.348627,-0.742633,-1.721907
2019-05-23T04:10:49.937218Z,-0.037596,-0.139326,-1.236457
2019-05-23T04:10:49.978218Z,-0.24850300000000003,0.683154,-1.2958100000000001
2019-05-23T04:10:50.023218Z,-0.216933,0.776882,-1.327804
2019-05-23T04:10:50.057218Z,0.8462209999999999,1.8801599999999998,0.321042
2019-05-23T04:10:50.097218Z,0.15632200000000002,1.584845,0.9560790000000001
2019-05-23T04:10:50.137218Z,0.415342,1.614925,0.9224959999999999
2019-05-23T04:10:50.178218Z,-0.44755900000000004,0.838665,0.6270140000000001
2019-05-23T04:10:50.217218Z,-1.170786,0.340034,0.42944099999999996
2019-05-23T04:10:50.257218Z,-1.662518,0.433701,0.416158
2019-05-23T04:10:50.299218Z,1.484815,-0.900086,2.068996
2019-05-23T04:10:50.338218Z,0.42216000000000004,-2.153901,0.9176709999999999
2019-05-23T04:10:50.378218Z,0.757741,-2.1455040000000003,0.8711190000000001
2019-05-23T04:10:50.418218Z,2.123757,-0.5821930000000001,-0.260939
2019-05-23T04:10:50.458218Z,1.4890139999999998,-0.8026260000000001,-1.085359
2019-05-23T04:10:50.501218Z,1.568637,-0.951808,-0.997577
2019-05-23T04:10:50.540218Z,1.017101,-0.745827,-0.524403
2019-05-23T04:10:50.579218Z,1.102589,-0.453988,-0.643231
2019-05-23T04:10:50.620218Z,1.233649,-0.557266,-0.57703
2019-05-23T04:10:50.657218Z,0.766809,0.184522,-0.678823
2019-05-23T04:10:50.727218Z,1.009833,0.33060500000000004,-0.057008
2019-05-23T04:10:50.738218Z,0.9246690000000001,0.242552,-0.012073
2019-05-23T04:10:50.779218Z,0.62932,-0.10690799999999999,1.390421
2019-05-23T04:10:50.821218Z,1.763045,0.131096,1.5395729999999999
2019-05-23T04:10:50.858218Z,1.692015,0.21988200000000002,1.463433
2019-05-23T04:10:50.898218Z,1.836568,-0.755045,2.832489
2019-05-23T04:10:50.939218Z,3.182322,-2.626744,2.9067939999999997
2019-05-23T04:10:50.979218Z,3.231991,-2.66688,2.907038
2019-05-23T04:10:51.018218Z,3.6278269999999995,-2.28242,1.187801
2019-05-23T04:10:51.073218Z,3.172993,-2.4742490000000004,1.0367979999999999
2019-05-23T04:10:51.098218Z,3.082635,-2.521493,1.073549
2019-05-23T04:10:51.139218Z,2.1092880000000003,-2.780836,0.8894129999999999
2019-05-23T04:10:51.179218Z,1.485212,-2.796957,0.6425109999999999
2019-05-23T04:10:51.222218Z,1.355078,-2.7740869999999997,0.65252
2019-05-23T04:10:51.259218Z,0.580585,-3.258882,1.121581
2019-05-23T04:10:51.298218Z,0.112305,-3.3740650000000003,1.589615
2019-05-23T04:10:51.339218Z,0.12076400000000001,-3.461988,1.654369
2019-05-23T04:10:51.379218Z,-0.27019,-3.0489919999999997,1.5337379999999998
2019-05-23T04:10:51.419218Z,-0.145126,-2.235013,0.8587870000000001
2019-05-23T04:10:51.459218Z,-0.07773200000000001,-2.226656,0.859181
2019-05-23T04:10:51.499218Z,-0.164641,-1.590201,0.833317
2019-05-23T04:10:51.538218Z,-0.14376,-1.568389,1.1833690000000001
2019-05-23T04:10:51.578218Z,-0.074925,-1.5659370000000001,1.176412
2019-05-23T04:10:51.618218Z,-0.162242,-1.524057,0.8838030000000001
2019-05-23T04:10:51.659218Z,-0.089347,-0.702607,0.16437100000000002
2019-05-23T04:10:51.701218Z,-0.135284,-0.644993,0.133775
2019-05-23T04:10:51.740218Z,-0.11154700000000001,-0.076695,0.18093199999999998
2019-05-23T04:10:51.778218Z,0.277866,0.335898,-0.164796
2019-05-23T04:10:51.818218Z,0.18448599999999998,0.526556,-0.267135
2019-05-23T04:10:51.858218Z,0.6456189999999999,-0.36899699999999996,0.9311870000000001
2019-05-23T04:10:51.898218Z,0.355025,-0.6798529999999999,1.258273
2019-05-23T04:10:51.939218Z,0.224023,-0.8281270000000001,1.339423
2019-05-23T04:10:51.979218Z,0.10670999999999999,-0.8269559999999999,1.9553639999999999
2019-05-23T04:10:52.019218Z,0.47782700000000006,-1.0975,1.493628
2019-05-23T04:10:52.059218Z,0.499396,-1.319101,1.62442
2019-05-23T04:10:52.099218Z,-0.373755,-2.862546,1.666881
2019-05-23T04:10:52.139218Z,-0.41487299999999994,-2.1177080000000004,0.75637
2019-05-23T04:10:52.179218Z,-0.318957,-2.10792,0.752495
2019-05-23T04:10:52.220218Z,-0.9974940000000001,-2.108016,0.48280100000000004
2019-05-23T04:10:52.264218Z,-0.948741,-2.045966,0.638069
2019-05-23T04:10:52.299218Z,-0.726631,-1.9333080000000002,0.564808
2019-05-23T04:10:52.343218Z,-0.372766,-1.526979,-0.240452
2019-05-23T04:10:52.379218Z,0.407398,-1.549624,0.11488399999999999
2019-05-23T04:10:52.419218Z,0.463405,-1.493054,0.095617
2019-05-23T04:10:52.460218Z,-0.24361799999999997,-0.8998360000000001,0.019614
2019-05-23T04:10:52.499218Z,-0.502916,-0.702958,-0.214383
2019-05-23T04:10:52.540218Z,-0.531193,-0.737028,-0.18174500000000002
2019-05-23T04:10:52.580218Z,-0.115087,-0.3218,0.13418
2019-05-23T04:10:52.624218Z,0.009778,-0.204672,0.6778069999999999
2019-05-23T04:10:52.675218Z,0.195932,-0.260828,0.719295
2019-05-23T04:10:52.699218Z,-0.049046,-0.598434,0.33159
2019-05-23T04:10:52.739218Z,-0.579367,0.014215,1.049503
2019-05-23T04:10:52.780218Z,-0.32756799999999997,-0.022718000000000002,1.076258
2019-05-23T04:10:52.820218Z,0.345821,0.44133,-0.341131
2019-05-23T04:10:52.860218Z,0.316153,-0.085488,1.6786150000000002
2019-05-23T04:10:52.901218Z,0.26268800000000003,-0.047041,1.6202940000000001
2019-05-23T04:10:52.940218Z,-0.535227,-1.830338,0.9196799999999999
2019-05-23T04:10:52.980218Z,0.8545360000000001,-1.0451030000000001,0.977476
2019-05-23T04:10:53.021218Z,0.888181,-0.8763209999999999,0.87192
2019-05-23T04:10:53.060218Z,0.404235,-1.113408,-0.39518200000000003
2019-05-23T04:10:53.102218Z,0.856298,-1.073452,0.39564299999999997
2019-05-23T04:10:53.141218Z,0.8406549999999999,-1.160161,0.45218500000000006
2019-05-23T04:10:53.181218Z,0.42470600000000003,-1.253366,-0.663708
2019-05-23T04:10:53.222218Z,0.274062,-0.714654,-0.660772
2019-05-23T04:10:53.260218Z,0.23137199999999997,-0.7038800000000001,-0.6517350000000001
2019-05-23T04:10:53.300218Z,-0.39379899999999995,-0.368089,-0.391088
2019-05-23T04:10:53.341218Z,-1.0031,-0.305725,0.393726
2019-05-23T04:10:53.381218Z,-1.151275,-0.302315,0.383577
2019-05-23T04:10:53.421218Z,-0.497796,0.346523,1.599695
2019-05-23T04:10:53.462218Z,-0.947156,0.24491,1.481854
2019-05-23T04:10:53.500218Z,-0.881735,0.269456,1.440476
2019-05-23T04:10:53.540218Z,-1.154733,0.397451,0.43973599999999996
2019-05-23T04:10:53.619218Z,-1.6351069999999999,-1.248743,1.476529
2019-05-23T04:10:53.631218Z,-1.6148719999999999,-1.243833,1.462169
2019-05-23T04:10:53.661218Z,-1.619483,-2.151442,-1.144833
2019-05-23T04:10:53.700218Z,-0.951463,-1.605661,-0.327651
2019-05-23T04:10:53.740218Z,-1.118167,-1.582599,-0.317913
2019-05-23T04:10:53.781218Z,-1.901209,-2.583164,0.207058
2019-05-23T04:10:53.822218Z,-1.360863,-2.111526,-0.136632
2019-05-23T04:10:53.863218Z,-1.537089,-2.07836,-0.120457
2019-05-23T04:10:53.902218Z,-1.32229,-2.085648,0.7104050000000001
2019-05-23T04:10:53.941218Z,-0.53759,-0.988556,0.665272
2019-05-23T04:10:53.989218Z,-0.5514439999999999,-0.8887430000000001,0.605409
2019-05-23T04:10:54.021218Z,-0.13125599999999998,-0.132188,1.222685
2019-05-23T04:10:54.062218Z,0.289876,-0.007624,2.115018
2019-05-23T04:10:54.102218Z,0.336836,0.081509,2.022051
2019-05-23T04:10:54.142218Z,0.358904,-0.45599700000000004,1.260783
2019-05-23T04:10:54.181218Z,-0.472128,-0.969241,0.8068420000000001
2019-05-23T04:10:54.222218Z,-0.550049,-0.9177219999999999,0.782879
2019-05-23T04:10:54.262218Z,-0.28515300000000005,-0.9680690000000001,0.9533450000000001
2019-05-23T04:10:54.301218Z,0.191548,-0.938984,0.12396300000000002
2019-05-23T04:10:54.342218Z,0.25738,-0.855892,0.082558
2019-05-23T04:10:54.382218Z,0.102699,-0.7269180000000001,-0.131323
2019-05-23T04:10:54.422218Z,0.17355299999999999,-0.7606729999999999,-0.16328099999999998
2019-05-23T04:10:54.462218Z,0.243375,-0.710485,-0.18449200000000002
2019-05-23T04:10:54.503218Z,0.39803099999999997,-0.38953499999999996,-0.598957
2019-05-23T04:10:54.545218Z,0.33558699999999997,0.15053,0.465792
2019-05-23T04:10:54.582218Z,0.320934,0.047938999999999996,0.505203
2019-05-23T04:10:54.622218Z,0.252707,-0.051651999999999997,1.012774
2019-05-23T04:10:54.662218Z,0.296699,0.615861,0.461794
2019-05-23T04:10:54.703218Z,0.39998,0.47861499999999996,0.513409
2019-05-23T04:10:54.741218Z,0.46272700000000005,0.513658,1.056843
2019-05-23T04:10:54.783218Z,0.16162200000000002,0.208585,0.29248
2019-05-23T04:10:54.821218Z,0.193242,0.135882,0.32351599999999997
2019-05-23T04:10:54.888218Z,0.363496,-0.798041,0.967568
2019-05-23T04:10:54.902218Z,0.636973,-0.933866,-0.42213
2019-05-23T04:10:54.941218Z,0.638223,-0.8351799999999999,-0.458031
2019-05-23T04:10:54.981218Z,0.42405699999999996,-0.95326,-0.171152
2019-05-23T04:10:55.022218Z,1.024044,-0.843327,-0.224082
2019-05-23T04:10:55.062218Z,1.072196,-0.8434950000000001,-0.209794
2019-05-23T04:10:55.102218Z,0.649695,-0.44550100000000004,-1.004799
2019-05-23T04:10:55.142218Z,1.07417,-0.075522,0.055924
2019-05-23T04:10:55.182218Z,1.1158620000000001,-0.14513800000000002,0.095464
2019-05-23T04:10:55.225218Z,0.915441,-0.149291,0.14362
2019-05-23T04:10:55.262218Z,0.820041,-0.099415,0.357663
2019-05-23T04:10:55.302218Z,0.8661540000000001,-0.202139,0.414308
2019-05-23T04:10:55.342218Z,1.096774,0.187502,1.226425
2019-05-23T04:10:55.383218Z,1.04755,0.240317,-0.322606
2019-05-23T04:10:55.423218Z,1.1162450000000002,0.30751100000000003,-0.348136
2019-05-23T04:10:55.462218Z,1.763327,-0.992259,2.226191
2019-05-23T04:10:55.503218Z,1.0213219999999998,-1.6502119999999998,1.14792
2019-05-23T04:10:55.544218Z,0.961477,-1.7234150000000001,1.1870610000000001
2019-05-23T04:10:55.583218Z,2.363754,-0.7889609999999999,-0.5983569999999999
2019-05-23T04:10:55.623218Z,1.8981599999999998,-0.586287,-0.421022
2019-05-23T04:10:55.662218Z,1.998446,-0.60349,-0.379264
2019-05-23T04:10:55.703218Z,1.4737799999999999,-0.5717399999999999,-0.43342299999999995
2019-05-23T04:10:55.743218Z,1.245886,-0.435975,-0.6138060000000001
2019-05-23T04:10:55.785218Z,1.3220399999999999,-0.487368,-0.550488
2019-05-23T04:10:55.823218Z,1.334306,-0.24089899999999997,-0.111042
2019-05-23T04:10:55.864218Z,0.6324930000000001,0.328577,-0.808871
2019-05-23T04:10:55.920218Z,0.5536909999999999,0.339163,-0.8174100000000001
2019-05-23T04:10:55.946218Z,0.8403209999999999,0.46235200000000004,1.1668290000000001
2019-05-23T04:10:55.984218Z,1.0385469999999999,-0.284407,1.81198
2019-05-23T04:10:56.023218Z,0.952875,-0.169782,1.702214
2019-05-23T04:10:56.063218Z,1.00206,-0.06551699999999999,1.590488
2019-05-23T04:10:56.102218Z,1.910614,-1.362021,2.032959
2019-05-23T04:10:56.142218Z,1.9057810000000002,-1.305488,1.9830290000000002
2019-05-23T04:10:56.184218Z,1.503183,-1.596276,0.632013
2019-05-23T04:10:56.223218Z,0.7723220000000001,-1.173635,-0.175091
2019-05-23T04:10:56.282218Z,0.5048699999999999,-0.950059,-0.30502199999999996
2019-05-23T04:10:56.304218Z,0.5651510000000001,0.076351,0.24274
2019-05-23T04:10:56.344218Z,1.0831950000000001,-0.556512,2.055234
2019-05-23T04:10:56.384218Z,0.997489,-0.579923,2.0368209999999998
2019-05-23T04:10:56.424218Z,0.46921599999999997,-0.909437,0.035198
2019-05-23T04:10:56.463218Z,0.68614,-0.6385850000000001,-0.283495
2019-05-23T04:10:56.504218Z,0.773541,-0.6416930000000001,-0.26695399999999997
2019-05-23T04:10:56.544218Z,0.050617,-0.615355,0.074402
2019-05-23T04:10:56.584218Z,-0.37846199999999997,-0.27115900000000004,-0.577056
2019-05-23T04:10:56.624218Z,-0.203997,-0.27067800000000003,-0.551363
2019-05-23T04:10:56.664218Z,0.359976,0.41226599999999997,0.25622
2019-05-23T04:10:56.703218Z,-0.8345450000000001,-0.035099,0.578982
2019-05-23T04:10:56.744218Z,-0.910244,-0.227002,0.66551
2019-05-23T04:10:56.785218Z,-0.20795500000000003,-0.33323800000000003,1.027009
2019-05-23T04:10:56.824218Z,0.204868,-0.790552,-0.43422
2019-05-23T04:10:56.864218Z,0.293207,-0.7935300000000001,-0.40754
2019-05-23T04:10:56.905218Z,0.688463,-1.7577040000000002,0.8708670000000001
2019-05-23T04:10:56.945218Z,-0.086208,-1.425098,-0.469674
2019-05-23T04:10:56.986218Z,-0.116803,-1.351076,-0.493917
2019-05-23T04:10:57.025218Z,0.419443,-1.258979,-0.333557
2019-05-23T04:10:57.066218Z,0.473106,-0.9060229999999999,0.07214
2019-05-23T04:10:57.105218Z,0.453689,-0.896324,0.072564
2019-05-23T04:10:57.145218Z,0.114219,-0.7558560000000001,0.054590999999999994
2019-05-23T04:10:57.186218Z,0.229123,-0.592292,0.036942
2019-05-23T04:10:57.225218Z,0.23647600000000002,-0.591713,0.04263
2019-05-23T04:10:57.265218Z,0.128983,-0.38356399999999996,-0.242883
2019-05-23T04:10:57.306218Z,0.171755,-0.274742,0.119245
2019-05-23T04:10:57.374218Z,-0.063835,-0.318696,0.12573
2019-05-23T04:10:57.386218Z,0.43263100000000004,0.187477,0.783062
2019-05-23T04:10:57.423218Z,0.721007,-0.212646,1.156292
2019-05-23T04:10:57.464218Z,0.661305,-0.215,1.139717
2019-05-23T04:10:57.505218Z,0.139552,-0.66997,0.689042
2019-05-23T04:10:57.544218Z,1.071726,-0.888993,1.405141
2019-05-23T04:10:57.584218Z,0.899891,-0.8825069999999999,1.395988
2019-05-23T04:10:57.625218Z,2.600432,-2.5566,4.000551000000001
2019-05-23T04:10:57.664218Z,2.053342,-1.677252,0.052691999999999996
2019-05-23T04:10:57.724218Z,2.1615900000000003,-1.588358,0.017376
2019-05-23T04:10:57.745218Z,1.186261,-1.254529,-0.385703
2019-05-23T04:10:57.784218Z,0.596975,-1.8942830000000002,1.131359
2019-05-23T04:10:57.825218Z,0.7769729999999999,-1.879498,1.1221379999999999
2019-05-23T04:10:57.865218Z,1.0970799999999998,-1.790693,0.748262
2019-05-23T04:10:57.905218Z,0.634096,-0.8519049999999999,-0.705546
2019-05-23T04:10:57.945218Z,0.566071,-0.8268059999999999,-0.702134
2019-05-23T04:10:57.985218Z,-0.20056,-0.490846,-0.14671199999999998
2019-05-23T04:10:58.025218Z,-0.32411599999999996,-0.614518,0.585237
2019-05-23T04:10:58.065218Z,-0.36864600000000003,-0.623054,0.584583
2019-05-23T04:10:58.104218Z,0.186622,-0.45221000000000006,0.9768049999999999
2019-05-23T04:10:58.147218Z,-0.340092,-0.113449,1.142774
2019-05-23T04:10:58.187218Z,-0.45013500000000006,-0.22423,1.183226
2019-05-23T04:10:58.225218Z,0.25326,0.080792,2.177591
2019-05-23T04:10:58.265218Z,0.24985900000000003,-1.221963,0.8350270000000001
2019-05-23T04:10:58.309218Z,0.18155,-1.172927,0.806952
2019-05-23T04:10:58.346218Z,-0.9974629999999999,-1.693227,-0.8318620000000001
2019-05-23T04:10:58.386218Z,1.4126020000000001,-1.0459370000000001,0.544512
2019-05-23T04:10:58.425218Z,1.423469,-1.064798,0.554191
2019-05-23T04:10:58.465218Z,0.683923,-1.090695,-1.024573
2019-05-23T04:10:58.534218Z,0.16555599999999998,-1.043695,-0.780209
2019-05-23T04:10:58.550218Z,0.17355399999999999,-0.974967,-0.7946979999999999
2019-05-23T04:10:58.590218Z,-0.043154000000000005,-1.211511,0.12191199999999999
2019-05-23T04:10:58.625218Z,0.33047600000000005,-0.320285,0.257753
2019-05-23T04:10:58.666218Z,0.387868,-0.31183099999999997,0.249098
2019-05-23T04:10:58.707218Z,0.226385,0.079421,-0.5228189999999999
2019-05-23T04:10:58.745218Z,-0.286931,0.051774,-0.034625
2019-05-23T04:10:58.786218Z,-0.32602600000000004,0.036445,-0.024541999999999998
2019-05-23T04:10:58.826218Z,-0.798788,0.016942,-0.043367
2019-05-23T04:10:58.866218Z,-0.680592,0.54599,-0.049267
2019-05-23T04:10:58.907218Z,-0.7461979999999999,0.59551,-0.07488099999999999
2019-05-23T04:10:58.945218Z,-0.7129810000000001,0.097216,1.799736
2019-05-23T04:10:58.985218Z,-0.235485,-0.578432,1.522746
2019-05-23T04:10:59.026218Z,-0.093212,-0.550135,1.485005
