Datetime,accx,accy,accz
2019-05-23T04:11:31.080636Z,-0.196745,-0.030757999999999997,-0.975657
2019-05-23T04:11:31.109636Z,0.088024,0.39863899999999997,-0.324759
2019-05-23T04:11:31.148636Z,0.008558,0.4794,-0.366167
2019-05-23T04:11:31.189636Z,0.11234100000000001,-1.325993,2.117909
2019-05-23T04:11:31.229636Z,-0.394927,-1.194965,0.340888
2019-05-23T04:11:31.268636Z,-0.50403,-1.137757,0.309406
2019-05-23T04:11:31.309636Z,-0.377605,-1.2751940000000002,0.21213600000000002
2019-05-23T04:11:31.357636Z,-0.339609,-1.344747,-0.312021
2019-05-23T04:11:31.389636Z,-0.35125100000000004,-1.181129,-0.36982
2019-05-23T04:11:31.429636Z,-0.389075,-0.903907,-0.084899
2019-05-23T04:11:31.469636Z,0.161724,-0.803201,0.22421799999999997
2019-05-23T04:11:31.508636Z,0.28281300000000004,-0.7568600000000001,0.218908
2019-05-23T04:11:31.548636Z,0.098687,-0.659269,0.110785
2019-05-23T04:11:31.588636Z,0.205184,-0.490458,-0.20854099999999998
2019-05-23T04:11:31.628636Z,0.193971,-0.458624,-0.215225
2019-05-23T04:11:31.705636Z,-0.046823000000000004,0.033769,-1.007473
2019-05-23T04:11:31.718636Z,-0.013235,0.18405,-0.22916999999999998
2019-05-23T04:11:31.748636Z,-0.14738800000000002,0.122089,-0.216333
2019-05-23T04:11:31.789636Z,-0.354238,0.664734,0.152858
2019-05-23T04:11:31.829636Z,-0.12063299999999999,0.896518,-0.10494400000000001
2019-05-23T04:11:31.869636Z,-0.22243200000000002,0.8217760000000001,-0.08708099999999999
2019-05-23T04:11:31.909636Z,-0.149577,0.7521899999999999,0.49968
2019-05-23T04:11:31.949636Z,-0.27084899999999995,0.349557,0.571968
2019-05-23T04:11:31.989636Z,-0.350622,0.49117799999999995,0.491961
2019-05-23T04:11:32.028636Z,-0.530361,0.968076,-0.067686
2019-05-23T04:11:32.069636Z,0.29975799999999997,-1.03795,3.3394760000000003
2019-05-23T04:11:32.109636Z,0.360441,-1.130507,3.33535
2019-05-23T04:11:32.149636Z,-0.11642999999999999,-0.820433,-0.631886
2019-05-23T04:11:32.191636Z,0.7644770000000001,-0.947499,-0.136746
2019-05-23T04:11:32.232636Z,0.834298,-0.8382860000000001,-0.16913499999999998
2019-05-23T04:11:32.270636Z,-0.084253,-0.9516479999999999,-0.983958
2019-05-23T04:11:32.309636Z,0.137657,-0.6763060000000001,-0.397049
2019-05-23T04:11:32.349636Z,0.147322,-0.699901,-0.375894
2019-05-23T04:11:32.389636Z,0.348122,-0.285007,-0.896009
2019-05-23T04:11:32.431636Z,0.297793,0.11331600000000001,-1.385658
2019-05-23T04:11:32.470636Z,0.453297,0.182456,-1.377625
2019-05-23T04:11:32.567636Z,0.790204,0.309287,-0.8218
2019-05-23T04:11:32.569636Z,0.502095,0.718539,-0.7993819999999999
2019-05-23T04:11:32.596636Z,0.508629,0.781317,-0.810574
2019-05-23T04:11:32.628636Z,-0.558167,1.166361,-0.19076300000000002
2019-05-23T04:11:32.669636Z,-0.86282,1.242552,0.586687
2019-05-23T04:11:32.710636Z,-0.9774200000000001,1.20337,0.570837
2019-05-23T04:11:32.751636Z,-0.841209,0.7299100000000001,1.564762
2019-05-23T04:11:32.790636Z,-0.181314,0.516039,1.603508
2019-05-23T04:11:32.831636Z,-0.43994399999999995,0.5427609999999999,1.545273
2019-05-23T04:11:32.873636Z,-0.064684,0.28975700000000004,1.074078
2019-05-23T04:11:32.937636Z,-0.012712000000000001,-1.7172450000000001,1.689631
2019-05-23T04:11:32.950636Z,-0.000295,-1.7533900000000002,1.687948
2019-05-23T04:11:32.990636Z,-0.19501,-1.4141299999999999,0.123748
2019-05-23T04:11:33.029636Z,0.192886,-1.130607,-1.20852
2019-05-23T04:11:33.073636Z,0.142097,-1.072532,-1.204909
2019-05-23T04:11:33.110636Z,0.24616500000000002,-0.8815620000000001,-1.204907
2019-05-23T04:11:33.150636Z,0.5706680000000001,-0.03433,-1.836729
2019-05-23T04:11:33.190636Z,0.538076,0.147065,-1.8717849999999998
2019-05-23T04:11:33.229636Z,0.393516,0.131412,-1.6675799999999998
2019-05-23T04:11:33.271636Z,-0.286409,0.17416500000000001,-0.800088
2019-05-23T04:11:33.330636Z,-0.40517800000000004,0.07677,-0.754848
2019-05-23T04:11:33.356636Z,-0.331992,1.573294,0.892059
2019-05-23T04:11:33.392636Z,-1.032147,1.408927,1.086193
2019-05-23T04:11:33.430636Z,-1.10342,1.393697,1.066639
2019-05-23T04:11:33.473636Z,-0.6795770000000001,1.3112549999999998,2.74904
2019-05-23T04:11:33.510636Z,0.638848,0.9903639999999999,1.184883
2019-05-23T04:11:33.550636Z,0.584314,1.0483,1.138586
2019-05-23T04:11:33.591636Z,0.9411450000000001,-1.16165,1.957202
2019-05-23T04:11:33.632636Z,0.9177690000000001,-1.781909,-0.686666
2019-05-23T04:11:33.681636Z,0.9465389999999999,-1.7064080000000001,-0.692032
2019-05-23T04:11:33.710636Z,0.362784,-0.997381,-1.9115229999999999
2019-05-23T04:11:33.751636Z,-0.31191599999999997,-1.054301,-0.938254
2019-05-23T04:11:33.791636Z,-0.292187,-1.09894,-0.9002819999999999
2019-05-23T04:11:33.831636Z,0.081593,-0.8862549999999999,-0.891523
2019-05-23T04:11:33.869636Z,0.719654,0.176999,-1.2914290000000002
2019-05-23T04:11:33.910636Z,0.832368,0.26256999999999997,-1.302095
2019-05-23T04:11:33.951636Z,0.299603,0.637264,-1.128982
2019-05-23T04:11:33.991636Z,-0.25687,0.585561,0.48886499999999994
2019-05-23T04:11:34.031636Z,-0.37379,0.554521,0.48514700000000005
2019-05-23T04:11:34.073636Z,-0.641757,0.304307,1.97833
2019-05-23T04:11:34.113636Z,-0.020152,0.41179099999999996,2.8299369999999997
2019-05-23T04:11:34.151636Z,-0.06925,0.489282,2.750579
2019-05-23T04:11:34.191636Z,-0.77556,-0.007078,1.240211
2019-05-23T04:11:34.231636Z,-0.34231500000000004,-1.481517,0.812098
2019-05-23T04:11:34.273636Z,-0.467905,-1.472876,0.802662
2019-05-23T04:11:34.311636Z,-0.699275,-0.730314,-0.936975
2019-05-23T04:11:34.351636Z,-0.41855200000000004,-1.2690569999999999,-1.464565
2019-05-23T04:11:34.440636Z,-0.225858,-1.1405020000000001,-1.473009
2019-05-23T04:11:34.441636Z,0.22316399999999997,-0.9895219999999999,-1.719682
2019-05-23T04:11:34.472636Z,0.197213,-0.18524000000000002,-1.542757
2019-05-23T04:11:34.513636Z,0.12945299999999998,-0.179058,-1.519527
2019-05-23T04:11:34.553636Z,-0.115071,0.221717,-0.434071
2019-05-23T04:11:34.591636Z,0.095233,0.242759,1.4790299999999998
2019-05-23T04:11:34.632636Z,0.11947100000000001,0.177701,1.475686
2019-05-23T04:11:34.671636Z,-0.081213,0.062588,1.644484
2019-05-23T04:11:34.713636Z,0.27443,-0.26349,2.481928
2019-05-23T04:11:34.751636Z,0.29285900000000004,-0.304967,2.458764
2019-05-23T04:11:34.794636Z,0.051098000000000005,-0.628552,1.860063
2019-05-23T04:11:34.830636Z,0.797354,-1.600789,1.2805520000000001
2019-05-23T04:11:34.872636Z,0.621062,-1.8031259999999998,1.355223
2019-05-23T04:11:34.911636Z,0.524209,-0.44398699999999997,-1.187508
2019-05-23T04:11:34.951636Z,0.23019,-0.917731,-1.893054
2019-05-23T04:11:34.993636Z,0.278827,-0.889584,-1.8660880000000002
2019-05-23T04:11:35.032636Z,0.41840200000000005,-1.172277,-0.30539499999999997
2019-05-23T04:11:35.074636Z,0.010621,-0.21693400000000002,-0.570626
2019-05-23T04:11:35.112636Z,-0.026601,-0.284059,-0.529439
2019-05-23T04:11:35.152636Z,-0.137899,0.43394499999999997,-0.701397
2019-05-23T04:11:35.192636Z,0.100779,0.726124,-0.12055999999999999
2019-05-23T04:11:35.233636Z,0.027795,0.753612,-0.139045
2019-05-23T04:11:35.275636Z,0.101076,0.811817,1.284098
2019-05-23T04:11:35.313636Z,0.377267,0.46812200000000004,0.649524
2019-05-23T04:11:35.353636Z,0.340814,0.54075,0.6010439999999999
2019-05-23T04:11:35.391636Z,0.046421,-0.423839,1.367306
2019-05-23T04:11:35.448636Z,-0.33476500000000003,-0.8896809999999999,-0.45927299999999993
2019-05-23T04:11:35.474636Z,-0.532709,-0.92296,-0.436849
2019-05-23T04:11:35.512636Z,-0.27572199999999997,-1.639374,0.5401729999999999
2019-05-23T04:11:35.552636Z,0.502938,-1.342957,-0.714387
2019-05-23T04:11:35.592636Z,0.639702,-1.2618850000000001,-0.7236
2019-05-23T04:11:35.631636Z,0.124662,-0.72051,-1.740415
2019-05-23T04:11:35.674636Z,-0.012609,-0.44473199999999996,-1.0861969999999999
2019-05-23T04:11:35.713636Z,-0.071852,-0.45531400000000005,-1.060973
2019-05-23T04:11:35.752636Z,-0.020075,0.039094,-0.898691
2019-05-23T04:11:35.791636Z,0.419151,0.250087,0.690797
2019-05-23T04:11:35.831636Z,0.41204399999999997,0.2826,0.662493
2019-05-23T04:11:35.872636Z,0.064459,0.580483,2.202579
2019-05-23T04:11:35.912636Z,1.155705,1.0094049999999999,1.001084
2019-05-23T04:11:35.952636Z,1.105134,1.162439,0.913958
2019-05-23T04:11:35.992636Z,1.274986,-0.399279,2.62122
2019-05-23T04:11:36.032636Z,0.8868469999999999,-0.8914280000000001,0.679249
2019-05-23T04:11:36.074636Z,0.851662,-0.8866950000000001,0.6708890000000001
2019-05-23T04:11:36.113636Z,1.9276939999999998,-1.3118290000000001,0.862654
2019-05-23T04:11:36.153636Z,2.118745,-0.923092,-1.251343
2019-05-23T04:11:36.193636Z,2.135231,-0.9904540000000001,-1.192985
2019-05-23T04:11:36.234636Z,1.435537,-1.077287,-0.975152
2019-05-23T04:11:36.273636Z,1.583819,-0.887474,-1.492113
2019-05-23T04:11:36.370636Z,1.526761,-0.712615,-1.532417
2019-05-23T04:11:36.371636Z,0.8117439999999999,-0.659636,-0.050383
2019-05-23T04:11:36.398636Z,1.119992,-0.606345,1.890406
2019-05-23T04:11:36.432636Z,0.916816,-0.563423,1.8364220000000002
2019-05-23T04:11:36.474636Z,1.4300549999999999,-0.218559,1.7631330000000003
2019-05-23T04:11:36.513636Z,1.730805,-1.7971259999999998,2.452818
2019-05-23T04:11:36.553636Z,1.765007,-1.756202,2.411359
2019-05-23T04:11:36.593636Z,0.291149,-2.030815,0.6214149999999999
2019-05-23T04:11:36.633636Z,0.49367,-2.34254,1.041875
2019-05-23T04:11:36.674636Z,0.544592,-2.474782,1.0950799999999998
2019-05-23T04:11:36.721636Z,0.540566,-1.5746799999999999,-0.10726600000000001
2019-05-23T04:11:36.753636Z,0.35141700000000003,-0.287051,-0.657928
2019-05-23T04:11:36.793636Z,0.252902,-0.225271,-0.671986
2019-05-23T04:11:36.833636Z,0.086551,0.006711,-0.235114
2019-05-23T04:11:36.879636Z,-0.675657,0.08526399999999999,-0.494039
2019-05-23T04:11:36.913636Z,-0.954312,0.135776,-0.487882
2019-05-23T04:11:36.953636Z,-0.6397649999999999,-0.485291,0.548487
2019-05-23T04:11:36.993636Z,-1.529004,-0.267851,-0.212842
2019-05-23T04:11:37.033636Z,-1.415591,-0.37650700000000004,-0.174801
2019-05-23T04:11:37.078636Z,-0.6164189999999999,0.191139,0.520038
2019-05-23T04:11:37.113636Z,-1.261556,0.725934,-0.311758
2019-05-23T04:11:37.153636Z,-1.1775799999999998,0.803992,-0.34483
2019-05-23T04:11:37.193636Z,-1.569819,0.048925,1.564498
2019-05-23T04:11:37.233636Z,-0.29777,-0.579937,1.226415
2019-05-23T04:11:37.278636Z,-0.206992,-0.635734,1.2295479999999999
2019-05-23T04:11:37.313636Z,0.253533,-1.7712459999999999,2.074323
2019-05-23T04:11:37.354636Z,0.492234,-1.8244479999999998,0.392504
2019-05-23T04:11:37.394636Z,0.576417,-1.824446,0.398945
2019-05-23T04:11:37.433636Z,1.314232,-1.590789,0.38910700000000004
2019-05-23T04:11:37.528636Z,0.214385,-1.384662,-0.10479200000000001
2019-05-23T04:11:37.529636Z,0.153304,-1.530548,-0.035229
2019-05-23T04:11:37.559636Z,-0.354443,-1.334365,-0.208675
2019-05-23T04:11:37.593636Z,-0.17413199999999998,-0.36102199999999995,-1.157827
2019-05-23T04:11:37.634636Z,-0.099177,-0.383011,-1.125055
2019-05-23T04:11:37.675636Z,-0.194026,-0.070123,-0.951049
2019-05-23T04:11:37.713636Z,-0.6013109999999999,-0.151504,0.082569
2019-05-23T04:11:37.754636Z,-0.602588,-0.18853399999999998,0.10058099999999999
2019-05-23T04:11:37.795636Z,-0.326432,0.11665299999999999,0.272163
2019-05-23T04:11:37.834636Z,-0.479256,-0.060234,1.517657
2019-05-23T04:11:37.892636Z,-0.43203500000000006,-0.105848,1.516065
2019-05-23T04:11:37.915636Z,-0.443338,0.6203989999999999,1.20094
2019-05-23T04:11:37.954636Z,-0.748734,-0.667602,1.5957729999999999
2019-05-23T04:11:37.994636Z,-0.521414,-0.722459,1.601572
2019-05-23T04:11:38.034636Z,0.599338,-1.606573,0.95786
2019-05-23T04:11:38.074636Z,-0.42325799999999997,-1.406698,-0.202871
2019-05-23T04:11:38.114636Z,-0.39374699999999996,-1.424903,-0.178497
2019-05-23T04:11:38.154636Z,-0.142618,-1.993526,-0.293723
2019-05-23T04:11:38.194636Z,0.09500700000000001,-1.569539,-0.9111440000000001
2019-05-23T04:11:38.234636Z,0.097309,-1.676025,-0.830623
2019-05-23T04:11:38.328636Z,-0.527454,-1.3242450000000001,-1.033175
2019-05-23T04:11:38.329636Z,-0.276522,-0.345613,-0.632506
2019-05-23T04:11:38.364636Z,-0.40612,-0.42153900000000005,-0.582782
2019-05-23T04:11:38.394636Z,-0.951044,0.078751,0.251157
2019-05-23T04:11:38.435636Z,-0.541768,0.005622,1.2328290000000002
2019-05-23T04:11:38.476636Z,-0.573448,-0.048366,1.2418280000000002
2019-05-23T04:11:38.515636Z,0.12128299999999999,0.028982,1.947675
2019-05-23T04:11:38.555636Z,0.548933,-0.340383,1.9031310000000001
2019-05-23T04:11:38.595636Z,0.775419,-0.33910500000000005,1.8768209999999999
2019-05-23T04:11:38.634636Z,0.703096,-1.513894,1.3955600000000001
2019-05-23T04:11:38.700636Z,-0.41412899999999997,-0.905683,-0.45548900000000003
2019-05-23T04:11:38.714636Z,-0.653724,-0.792482,-0.498327
2019-05-23T04:11:38.756636Z,0.12526600000000002,-0.588014,-1.3292680000000001
2019-05-23T04:11:38.795636Z,-0.501024,-0.679904,-2.349707
2019-05-23T04:11:38.835636Z,-0.568063,-0.656638,-2.311404
2019-05-23T04:11:38.875636Z,0.992217,-0.935378,0.604577
2019-05-23T04:11:38.915636Z,-0.47930100000000003,-0.70318,-0.601072
2019-05-23T04:11:38.955636Z,-0.523332,-0.576893,-0.633288
2019-05-23T04:11:38.996636Z,-0.09160800000000001,0.21294899999999997,0.468004
2019-05-23T04:11:39.035636Z,-0.127574,0.587458,1.466808
2019-05-23T04:11:39.075636Z,-0.258466,0.471933,1.5017610000000001
2019-05-23T04:11:39.117636Z,-0.245878,0.500471,1.541107
2019-05-23T04:11:39.155636Z,-0.044153,-0.200719,1.401451
2019-05-23T04:11:39.241636Z,-0.070352,-0.032935,1.310619
2019-05-23T04:11:39.243636Z,-0.441134,0.204936,0.595172
2019-05-23T04:11:39.281636Z,-1.2753729999999999,-1.619869,1.354364
2019-05-23T04:11:39.314636Z,-1.341194,-1.527899,1.3112030000000001
2019-05-23T04:11:39.356636Z,-1.8597439999999998,-1.51239,0.473046
2019-05-23T04:11:39.396636Z,-1.0348620000000002,-2.095438,0.817025
2019-05-23T04:11:39.436636Z,-0.9747629999999999,-2.212973,0.8627450000000001
2019-05-23T04:11:39.477636Z,-0.184051,-1.8589369999999998,-0.31096799999999997
2019-05-23T04:11:39.516636Z,0.30503600000000003,-1.2935709999999998,-1.015233
2019-05-23T04:11:39.556636Z,0.330783,-1.3709959999999999,-0.9544870000000001
2019-05-23T04:11:39.607636Z,0.27678200000000003,-0.759501,-1.003101
2019-05-23T04:11:39.636636Z,0.386654,-0.251922,0.163384
2019-05-23T04:11:39.683636Z,0.480476,-0.294037,0.177965
2019-05-23T04:11:39.716636Z,-0.218232,-0.204525,0.11223
2019-05-23T04:11:39.755636Z,-0.277873,0.24541100000000002,1.17205
2019-05-23T04:11:39.796636Z,-0.286288,0.336213,1.109138
2019-05-23T04:11:39.836636Z,-0.044857999999999995,0.124928,1.204209
2019-05-23T04:11:39.877636Z,0.555775,-0.6633859999999999,1.495873
2019-05-23T04:11:39.916636Z,0.7114779999999999,-0.616261,1.457059
2019-05-23T04:11:39.956636Z,-0.732378,-0.936959,-0.20716500000000002
2019-05-23T04:11:39.997636Z,-0.332246,-1.475783,0.289674
2019-05-23T04:11:40.037636Z,-0.28823699999999997,-1.543927,0.32757800000000004
2019-05-23T04:11:40.078636Z,0.21751700000000002,-1.1274440000000001,-0.094499
2019-05-23T04:11:40.117636Z,0.326731,-0.563947,-0.727935
2019-05-23T04:11:40.157636Z,0.42266400000000004,-0.603259,-0.68776
2019-05-23T04:11:40.197636Z,0.480286,-0.596233,-0.036062000000000004
2019-05-23T04:11:40.237636Z,0.380923,-0.11137000000000001,-0.088064
2019-05-23T04:11:40.278636Z,0.46403199999999994,-0.125832,-0.07042899999999999
2019-05-23T04:11:40.316636Z,0.163481,0.47912200000000005,-0.293692
2019-05-23T04:11:40.355636Z,-0.07613400000000001,0.159411,0.989108
2019-05-23T04:11:40.416636Z,0.087934,0.167284,0.9869469999999999
2019-05-23T04:11:40.440636Z,1.066015,0.204731,1.0466790000000001
2019-05-23T04:11:40.477636Z,1.096678,-1.390728,2.610265
2019-05-23T04:11:40.516636Z,1.160577,-1.5856860000000002,2.67728
2019-05-23T04:11:40.556636Z,3.5418010000000004,-1.8806580000000002,2.628568
2019-05-23T04:11:40.597636Z,3.2409209999999997,-1.526935,-0.133252
2019-05-23T04:11:40.637636Z,3.1343490000000003,-1.438891,-0.163975
2019-05-23T04:11:40.679636Z,3.826515,-1.835177,0.688769
2019-05-23T04:11:40.717636Z,3.4451449999999997,-1.710836,-0.41731899999999994
2019-05-23T04:11:40.766636Z,3.203999,-1.6444880000000002,-0.43649099999999996
2019-05-23T04:11:40.797636Z,2.308432,-2.194341,-0.096027
2019-05-23T04:11:40.838636Z,1.879733,-2.619288,1.10432
2019-05-23T04:11:40.876636Z,1.6712069999999999,-2.4877540000000002,1.05615
2019-05-23T04:11:40.920636Z,1.640151,-1.77882,1.477483
2019-05-23T04:11:40.957636Z,0.6060760000000001,-1.321556,0.610612
2019-05-23T04:11:40.997636Z,0.471846,-1.360183,0.633116
2019-05-23T04:11:41.037636Z,-0.538279,-0.8550709999999999,-0.052113
2019-05-23T04:11:41.080636Z,0.151882,-0.7659,0.036993
2019-05-23T04:11:41.117636Z,0.14559,-0.843641,0.075416
2019-05-23T04:11:41.159636Z,0.91766,-0.46793500000000005,0.045092
2019-05-23T04:11:41.198636Z,0.10196799999999999,-0.173992,-0.076737
2019-05-23T04:11:41.238636Z,0.100319,-0.357964,0.010015999999999999
2019-05-23T04:11:41.279636Z,-0.148135,-0.19581400000000002,0.8599610000000001
2019-05-23T04:11:41.319636Z,-1.010051,-0.45753,1.569517
2019-05-23T04:11:41.359636Z,-0.973382,-0.772258,1.708304
2019-05-23T04:11:41.399636Z,-1.850006,-1.312273,3.288298
2019-05-23T04:11:41.437636Z,-1.638813,-0.422724,0.950845
2019-05-23T04:11:41.480636Z,-1.547261,-0.567754,1.018181
2019-05-23T04:11:41.518636Z,-0.321809,-1.116945,1.53052
2019-05-23T04:11:41.559636Z,-0.576146,-0.768009,-0.595979
2019-05-23T04:11:41.599636Z,-0.42103599999999997,-0.774671,-0.582022
2019-05-23T04:11:41.638636Z,-0.621426,-1.467964,-0.43655
2019-05-23T04:11:41.680636Z,-1.401937,-1.6887189999999999,0.054611
2019-05-23T04:11:41.717636Z,-1.344296,-1.786372,0.13663
2019-05-23T04:11:41.757636Z,-1.1685299999999998,-1.132959,-0.217077
2019-05-23T04:11:41.798636Z,-1.250158,-0.8170109999999999,-0.879434
2019-05-23T04:11:41.839636Z,-1.22044,-0.7777649999999999,-0.8817659999999999
2019-05-23T04:11:41.880636Z,-1.2885209999999998,-0.8432200000000001,0.49016800000000005
2019-05-23T04:11:41.918636Z,-1.060283,-0.6084470000000001,0.529146
2019-05-23T04:11:41.958636Z,-1.100394,-0.608394,0.526605
2019-05-23T04:11:41.998636Z,-0.226471,-0.029643,1.3341370000000001
2019-05-23T04:11:42.038636Z,-0.46402,-0.7460100000000001,0.823233
2019-05-23T04:11:42.079636Z,-0.317554,-0.692973,0.787303
2019-05-23T04:11:42.118636Z,-0.587407,-1.016304,0.693896
2019-05-23T04:11:42.159636Z,-1.148321,-1.0259770000000001,0.09063099999999999
2019-05-23T04:11:42.200636Z,-1.3175350000000001,-0.965065,0.059355
2019-05-23T04:11:42.239636Z,-0.161267,-1.605277,1.870655
2019-05-23T04:11:42.277636Z,0.435399,-1.329294,0.6882520000000001
2019-05-23T04:11:42.319636Z,0.513658,-1.250232,0.64642
2019-05-23T04:11:42.358636Z,-0.09563300000000001,-1.082077,-0.40726
2019-05-23T04:11:42.399636Z,-0.06176,-0.8881879999999999,-0.57515
2019-05-23T04:11:42.438636Z,-0.084882,-0.883776,-0.559996
2019-05-23T04:11:42.480636Z,0.33907,-0.506688,-0.257143
2019-05-23T04:11:42.518636Z,0.247561,-0.447687,0.371659
2019-05-23T04:11:42.582636Z,0.316064,-0.437555,0.366431
2019-05-23T04:11:42.614636Z,0.184416,0.420151,-0.13121
2019-05-23T04:11:42.637636Z,0.10343499999999999,0.27061,1.0178479999999999
2019-05-23T04:11:42.678636Z,0.14992,0.20088699999999998,1.0416020000000001
2019-05-23T04:11:42.718636Z,-0.15629400000000002,-0.144754,0.557724
2019-05-23T04:11:42.758636Z,-0.00048499999999999997,-0.35780500000000004,0.418551
2019-05-23T04:11:42.801636Z,0.004592000000000001,-0.353643,0.412862
2019-05-23T04:11:42.838636Z,-0.380771,-1.268327,0.674441
2019-05-23T04:11:42.880636Z,-0.5343439999999999,-1.400596,0.052311
2019-05-23T04:11:42.940636Z,-0.6020840000000001,-1.336116,0.026288
2019-05-23T04:11:42.959636Z,0.167257,-0.989016,0.306136
2019-05-23T04:11:42.999636Z,0.071281,-0.557874,-0.575192
2019-05-23T04:11:43.039636Z,-0.018158,-0.507464,-0.588322
2019-05-23T04:11:43.080636Z,0.121342,-0.26151399999999997,-0.516162
2019-05-23T04:11:43.119636Z,0.36936599999999997,-0.13259500000000002,0.147732
2019-05-23T04:11:43.159636Z,0.48705200000000004,-0.151865,0.159027
2019-05-23T04:11:43.198636Z,0.21572199999999997,0.004315,0.187903
2019-05-23T04:11:43.240636Z,-0.158746,0.100762,0.646774
2019-05-23T04:11:43.281636Z,-0.162482,0.052109,0.661794
2019-05-23T04:11:43.319636Z,0.14226,0.229331,1.7275509999999998
2019-05-23T04:11:43.361636Z,0.20565300000000003,-0.085566,0.297688
2019-05-23T04:11:43.399636Z,0.19203399999999998,-0.014897,0.25566300000000003
2019-05-23T04:11:43.440636Z,0.428174,-0.836759,2.576941
2019-05-23T04:11:43.482636Z,0.190976,-1.110084,0.56624
2019-05-23T04:11:43.519636Z,0.136349,-1.131825,0.575862
2019-05-23T04:11:43.562636Z,0.8353229999999999,-0.9721770000000001,0.067423
2019-05-23T04:11:43.599636Z,0.353883,-0.8966049999999999,-0.708404
2019-05-23T04:11:43.661636Z,0.32931,-0.968083,-0.648335
2019-05-23T04:11:43.690636Z,0.302869,-0.29417,-1.086511
2019-05-23T04:11:43.719636Z,0.48238500000000006,-0.27771399999999996,-0.314587
2019-05-23T04:11:43.759636Z,0.44535,-0.40449,-0.226064
2019-05-23T04:11:43.803636Z,0.15176900000000002,-0.191754,-0.479264
2019-05-23T04:11:43.839636Z,0.437191,-0.157546,0.550963
2019-05-23T04:11:43.900636Z,0.435173,-0.197729,0.571052
2019-05-23T04:11:43.919636Z,0.368987,-0.14291700000000002,0.857503
2019-05-23T04:11:43.960636Z,0.44811899999999993,-0.138596,0.8854350000000001
2019-05-23T04:11:44.021636Z,0.410937,-0.117415,0.8562059999999999
2019-05-23T04:11:44.039636Z,0.2391,0.5094810000000001,0.70153
2019-05-23T04:11:44.079636Z,0.430845,-1.798024,1.788429
2019-05-23T04:11:44.120636Z,0.504081,-1.828483,1.806452
2019-05-23T04:11:44.159636Z,0.20488499999999998,-1.619246,0.279013
2019-05-23T04:11:44.200636Z,0.151617,-1.34795,-0.706655
2019-05-23T04:11:44.239636Z,0.12926500000000002,-1.312443,-0.705066
2019-05-23T04:11:44.279636Z,0.977269,-0.937574,-0.633939
2019-05-23T04:11:44.321636Z,0.7762020000000001,-0.41079799999999994,-1.531443
2019-05-23T04:11:44.393636Z,0.9502959999999999,-0.21076999999999999,-1.625851
2019-05-23T04:11:44.407636Z,1.125256,-0.393125,-0.193432
2019-05-23T04:11:44.440636Z,-0.146396,-0.833261,1.383537
2019-05-23T04:11:44.480636Z,-0.274415,-0.8198049999999999,1.3600649999999999
2019-05-23T04:11:44.521636Z,1.549959,-0.263648,1.7255509999999998
2019-05-23T04:11:44.560636Z,1.7845490000000002,-0.337648,1.0034049999999999
2019-05-23T04:11:44.600636Z,1.665303,-0.22486,0.920676
2019-05-23T04:11:44.641636Z,2.507532,-0.5391090000000001,2.148309
2019-05-23T04:11:44.681636Z,2.040334,-0.681034,0.274508
2019-05-23T04:11:44.721636Z,1.841307,-0.579725,0.2209
2019-05-23T04:11:44.760636Z,1.450526,-0.9431200000000001,1.207812
2019-05-23T04:11:44.800636Z,1.413949,-1.048986,0.811755
2019-05-23T04:11:44.841636Z,1.439251,-1.048959,0.8055720000000001
2019-05-23T04:11:44.881636Z,1.597731,-0.7450680000000001,-0.799046
2019-05-23T04:11:44.922636Z,0.677092,-0.11785699999999999,-1.8352529999999998
2019-05-23T04:11:44.960636Z,0.79155,0.065703,-1.897788
2019-05-23T04:11:45.001636Z,0.533137,-1.0331299999999999,1.182567
2019-05-23T04:11:45.041636Z,-0.199767,-0.934157,1.399835
2019-05-23T04:11:45.083636Z,-0.19434500000000002,-1.078691,1.459409
2019-05-23T04:11:45.121636Z,0.579064,-0.451367,1.369546
2019-05-23T04:11:45.162636Z,0.377754,-0.110326,0.9794200000000001
2019-05-23T04:11:45.201636Z,0.17841700000000002,-0.09615599999999999,0.966347
2019-05-23T04:11:45.241636Z,0.46715200000000007,-0.631451,1.473178
2019-05-23T04:11:45.285636Z,-0.047262,-2.2498139999999998,1.803784
2019-05-23T04:11:45.322636Z,0.016107,-2.2789639999999998,1.808416
2019-05-23T04:11:45.362636Z,0.169466,-1.499886,0.046359
2019-05-23T04:11:45.401636Z,0.5947479999999999,-1.406744,0.47278100000000006
2019-05-23T04:11:45.480636Z,0.803175,-1.34491,0.435651
2019-05-23T04:11:45.481636Z,0.821694,-1.641947,-0.083271
2019-05-23T04:11:45.525636Z,0.299937,-1.411748,0.044672
2019-05-23T04:11:45.561636Z,0.25689,-1.510171,0.116802
2019-05-23T04:11:45.601636Z,0.790443,-1.243536,0.01054
2019-05-23T04:11:45.644636Z,1.423063,-0.941573,0.760818
2019-05-23T04:11:45.683636Z,1.343587,-1.061525,0.833521
2019-05-23T04:11:45.723636Z,1.366293,-1.3585209999999999,1.4733100000000001
2019-05-23T04:11:45.762636Z,1.7730849999999998,-0.9424459999999999,0.841709
2019-05-23T04:11:45.818636Z,1.703059,-0.770887,0.730783
2019-05-23T04:11:45.842636Z,2.161823,-0.921256,0.95134
2019-05-23T04:11:45.883636Z,2.407033,-2.194756,1.678196
2019-05-23T04:11:45.922636Z,2.421071,-2.111366,1.621304
2019-05-23T04:11:45.962636Z,1.884479,-2.063678,0.39309299999999997
2019-05-23T04:11:46.002636Z,1.8148520000000001,-2.029162,0.609776
2019-05-23T04:11:46.041636Z,1.834589,-2.026097,0.615598
2019-05-23T04:11:46.083636Z,1.550265,-1.670246,-0.212759
2019-05-23T04:11:46.122636Z,1.319844,-1.302748,0.042763999999999996
2019-05-23T04:11:46.161636Z,1.352133,-1.289959,0.045728
2019-05-23T04:11:46.202636Z,0.630782,-1.097848,0.7183069999999999
2019-05-23T04:11:46.243636Z,0.44042,-0.604204,1.307708
2019-05-23T04:11:46.285636Z,0.366596,-0.658311,1.324073
2019-05-23T04:11:46.322636Z,0.099634,-0.560297,1.722623
2019-05-23T04:11:46.364636Z,0.395556,-0.24541,1.177569
2019-05-23T04:11:46.402636Z,0.281102,-0.170717,1.1215979999999999
2019-05-23T04:11:46.442636Z,0.49845600000000007,-0.516694,1.620313
2019-05-23T04:11:46.523636Z,0.363563,-2.265992,1.197452
2019-05-23T04:11:46.527636Z,0.45103999999999994,-2.242648,1.1841629999999999
2019-05-23T04:11:46.563636Z,0.077047,-1.582816,-0.325333
2019-05-23T04:11:46.605636Z,-0.13149,-1.7807650000000002,-0.333781
2019-05-23T04:11:46.642636Z,0.028288999999999998,-1.626319,-0.393
2019-05-23T04:11:46.724636Z,-0.360819,-1.5072809999999999,-0.43862700000000004
2019-05-23T04:11:46.725636Z,-0.396599,-0.8494309999999999,-0.324942
2019-05-23T04:11:46.763636Z,-0.564826,-0.8723690000000001,-0.302706
2019-05-23T04:11:46.802636Z,-0.8070930000000001,-0.5360050000000001,-0.41708500000000004
2019-05-23T04:11:46.843636Z,-0.275099,-0.030455,0.17469500000000002
2019-05-23T04:11:46.882636Z,-0.192938,-0.013624,0.164021
2019-05-23T04:11:46.923636Z,-0.498147,-0.021815,0.548639
2019-05-23T04:11:46.963636Z,-0.656692,0.33471799999999996,0.403855
2019-05-23T04:11:47.003636Z,-0.6820189999999999,0.237936,0.443184
2019-05-23T04:11:47.045636Z,0.077919,0.591422,1.321046
2019-05-23T04:11:47.089636Z,1.292447,0.12704200000000002,0.916328
2019-05-23T04:11:47.123636Z,1.350917,0.19951,0.8661709999999999
2019-05-23T04:11:47.162636Z,0.715407,-2.044045,1.952662
2019-05-23T04:11:47.203636Z,0.173703,-1.78263,0.337256
2019-05-23T04:11:47.242636Z,0.029329,-1.716653,0.30446799999999996
2019-05-23T04:11:47.284636Z,0.636061,-1.3176940000000001,1.032498
2019-05-23T04:11:47.324636Z,0.5696869999999999,-1.157987,-0.144675
2019-05-23T04:11:47.362636Z,0.6154350000000001,-1.063627,-0.17563
2019-05-23T04:11:47.402636Z,0.37187800000000004,-0.7529140000000001,-1.0475370000000002
2019-05-23T04:11:47.442636Z,-0.08993999999999999,-1.204002,-0.16181800000000002
2019-05-23T04:11:47.483636Z,-0.203746,-1.217103,-0.14538800000000002
2019-05-23T04:11:47.538636Z,0.45662700000000006,-0.8707,-0.750372
2019-05-23T04:11:47.564636Z,0.869172,-0.611159,0.455192
2019-05-23T04:11:47.602636Z,0.920191,-0.604517,0.44973500000000005
2019-05-23T04:11:47.642636Z,0.977384,0.039236,-0.632613
2019-05-23T04:11:47.684636Z,1.19999,-0.121826,0.643389
2019-05-23T04:11:47.722636Z,1.335507,-0.131366,0.6418689999999999
2019-05-23T04:11:47.763636Z,2.273403,-0.820241,1.613453
2019-05-23T04:11:47.804636Z,2.377854,-2.1988990000000004,2.155972
2019-05-23T04:11:47.843636Z,2.266202,-2.187159,2.128371
2019-05-23T04:11:47.905636Z,2.40505,-2.358555,3.360704
2019-05-23T04:11:47.923636Z,2.675709,-1.162718,0.903825
2019-05-23T04:11:47.965636Z,2.6226599999999998,-1.14087,0.887642
2019-05-23T04:11:48.003636Z,2.761802,-0.8482850000000001,-0.028647000000000002
2019-05-23T04:11:48.043636Z,1.7661639999999998,-1.611068,-0.047488999999999996
2019-05-23T04:11:48.087636Z,1.6916200000000001,-1.712076,0.009798999999999999
2019-05-23T04:11:48.123636Z,1.181935,-1.3891120000000001,-0.67925
2019-05-23T04:11:48.164636Z,0.577484,-1.085785,-0.456783
2019-05-23T04:11:48.204636Z,0.554817,-1.0875920000000001,-0.43968999999999997
2019-05-23T04:11:48.244636Z,0.428637,-0.789432,0.12274700000000001
2019-05-23T04:11:48.286636Z,0.466717,-0.41129499999999997,0.555439
2019-05-23T04:11:48.324636Z,0.39951,-0.41156000000000004,0.553465
2019-05-23T04:11:48.364636Z,0.435698,-0.065488,0.878243
2019-05-23T04:11:48.404636Z,0.42925699999999994,0.311749,1.549059
2019-05-23T04:11:48.443636Z,0.402587,0.283484,1.535908
2019-05-23T04:11:48.485636Z,0.520016,-0.3625,0.712214
2019-05-23T04:11:48.524636Z,1.2029239999999999,-1.39283,2.5443
2019-05-23T04:11:48.565636Z,1.48007,-1.515247,2.549992
2019-05-23T04:11:48.605636Z,1.592662,-1.815423,-0.064621
2019-05-23T04:11:48.644636Z,1.035406,-1.057087,-0.83831
2019-05-23T04:11:48.686636Z,0.962142,-1.029203,-0.8275389999999999
2019-05-23T04:11:48.724636Z,0.004899000000000001,-0.8373440000000001,-0.26750999999999997
2019-05-23T04:11:48.765636Z,0.366902,-0.891482,-0.5821029999999999
2019-05-23T04:11:48.807636Z,0.335462,-0.953432,-0.5319510000000001
2019-05-23T04:11:48.844636Z,0.470926,-0.7789149999999999,-0.799661
2019-05-23T04:11:48.885636Z,0.453808,-0.299994,-0.287421
2019-05-23T04:11:48.926636Z,0.57367,-0.300636,-0.288993
2019-05-23T04:11:48.964636Z,0.321848,0.066813,0.405908
2019-05-23T04:11:49.004636Z,-0.49808800000000003,0.072628,1.3127360000000001
2019-05-23T04:11:49.045636Z,-0.50959,-0.19780799999999998,1.435014
2019-05-23T04:11:49.086636Z,-0.351319,-0.371202,2.554131
2019-05-23T04:11:49.124636Z,-0.083946,-0.019916999999999997,-0.376322
2019-05-23T04:11:49.165636Z,-0.099941,0.183618,-0.4783
2019-05-23T04:11:49.205636Z,-0.691646,-0.782457,1.57638
2019-05-23T04:11:49.246636Z,-0.324468,-1.268633,0.727621
2019-05-23T04:11:49.285636Z,-0.120526,-1.2042760000000001,0.696967
2019-05-23T04:11:49.324636Z,-0.181719,-0.8606729999999999,-0.553706
2019-05-23T04:11:49.409636Z,-0.420727,-1.234726,-1.260707
2019-05-23T04:11:49.410636Z,-0.530518,-1.182221,-1.259594
2019-05-23T04:11:49.444636Z,-0.30482600000000004,-0.9765,-0.330876
2019-05-23T04:11:49.485636Z,-0.585245,-0.712432,-0.922858
2019-05-23T04:11:49.524636Z,-0.684774,-0.698398,-0.910595
2019-05-23T04:11:49.568636Z,-0.120547,-0.033224000000000004,-0.239488
2019-05-23T04:11:49.605636Z,-0.002895,-0.474429,1.3824379999999998
2019-05-23T04:11:49.644636Z,-0.041801,-0.691837,1.483748
2019-05-23T04:11:49.684636Z,0.175972,-0.667559,2.010271
2019-05-23T04:11:49.724636Z,0.653468,-0.638011,0.884908
2019-05-23T04:11:49.769636Z,0.889906,-0.775822,0.977658
2019-05-23T04:11:49.804636Z,0.309521,0.26912800000000003,-0.053796000000000004
2019-05-23T04:11:49.845636Z,-0.046223,0.44802600000000004,0.012766
2019-05-23T04:11:49.887636Z,0.028532,0.751613,-0.16815
2019-05-23T04:11:49.925636Z,-0.064187,-0.992416,-0.784554
2019-05-23T04:11:49.967636Z,-0.365775,-1.946123,0.832664
2019-05-23T04:11:50.005636Z,-0.44854399999999994,-1.898614,0.809131
2019-05-23T04:11:50.046636Z,0.06605599999999999,-1.332824,-0.508977
2019-05-23T04:11:50.087636Z,0.590076,-0.515339,-1.033208
2019-05-23T04:11:50.126636Z,0.598549,-0.29275999999999996,-1.1124530000000001
2019-05-23T04:11:50.166636Z,0.19828099999999999,0.17564200000000002,-1.103696
2019-05-23T04:11:50.206636Z,-0.848001,-0.199561,0.394663
2019-05-23T04:11:50.245636Z,-0.8460290000000001,-0.230692,0.402765
2019-05-23T04:11:50.286636Z,0.37728,0.717542,0.43491599999999997
2019-05-23T04:11:50.325636Z,0.593237,0.799345,0.66645
2019-05-23T04:11:50.366636Z,0.644575,0.664212,0.706462
2019-05-23T04:11:50.407636Z,0.267842,0.11693800000000001,1.6225969999999998
2019-05-23T04:11:50.447636Z,-0.139254,-0.251713,-0.44978500000000005
2019-05-23T04:11:50.491636Z,-0.271984,-0.037045999999999996,-0.531142
2019-05-23T04:11:50.526636Z,-0.571166,-1.1795280000000001,0.84178
2019-05-23T04:11:50.605636Z,-0.117842,-0.944132,0.099975
2019-05-23T04:11:50.606636Z,-0.054537999999999996,-0.689728,0.015378
2019-05-23T04:11:50.645636Z,0.267302,-0.557424,0.33499
2019-05-23T04:11:50.686636Z,-0.55524,-0.9521270000000001,0.817789
2019-05-23T04:11:50.725636Z,-0.497242,-1.086703,0.855527
2019-05-23T04:11:50.765636Z,0.753451,-0.716225,-0.9161100000000001
2019-05-23T04:11:50.807636Z,0.21131799999999998,-0.7482260000000001,-0.767075
2019-05-23T04:11:50.846636Z,0.194651,-0.805873,-0.729029
2019-05-23T04:11:50.888636Z,0.337725,-0.824959,0.36780999999999997
2019-05-23T04:11:50.926636Z,0.22583899999999998,-0.582099,1.189812
2019-05-23T04:11:50.965636Z,0.186048,-0.738742,1.234864
2019-05-23T04:11:51.006636Z,0.447416,-0.511325,2.796383
2019-05-23T04:11:51.047636Z,0.7668659999999999,-0.525069,0.731263
2019-05-23T04:11:51.086636Z,0.717017,-0.58294,0.748819
2019-05-23T04:11:51.126636Z,0.735939,-1.1772719999999999,1.335217
2019-05-23T04:11:51.166636Z,0.638604,-1.096416,-0.013105
2019-05-23T04:11:51.206636Z,0.570382,-1.081432,-0.010138
2019-05-23T04:11:51.247636Z,0.9557760000000001,-1.114439,0.019813
2019-05-23T04:11:51.288636Z,0.738785,-0.992735,-0.645915
2019-05-23T04:11:51.326636Z,0.762299,-0.96959,-0.638895
2019-05-23T04:11:51.367636Z,0.382374,-0.734424,-1.1972770000000001
2019-05-23T04:11:51.407636Z,-0.014586000000000002,-0.7153609999999999,-0.419192
2019-05-23T04:11:51.447636Z,-0.114821,-0.681719,-0.41884099999999996
2019-05-23T04:11:51.488636Z,0.023997,-0.619884,0.570288
2019-05-23T04:11:51.527636Z,0.26152,-0.29631,0.46214799999999995
2019-05-23T04:11:51.568636Z,0.26114499999999996,-0.302526,0.45936499999999997
2019-05-23T04:11:51.607636Z,0.141268,0.024168000000000002,0.169966
2019-05-23T04:11:51.647636Z,-0.27910799999999997,0.138051,0.219654
2019-05-23T04:11:51.688636Z,-0.34022800000000003,0.10710499999999999,0.232143
2019-05-23T04:11:51.727636Z,0.013904,0.182578,0.8411620000000001
2019-05-23T04:11:51.767636Z,0.45878800000000003,-0.100701,0.479476
2019-05-23T04:11:51.808636Z,0.569272,-0.082343,0.46007200000000004
2019-05-23T04:11:51.846636Z,0.54578,-0.338429,0.6559729999999999
2019-05-23T04:11:51.888636Z,0.095603,-0.815453,-0.091963
2019-05-23T04:11:51.929636Z,0.142078,-0.732708,-0.121236
2019-05-23T04:11:51.967636Z,0.32411100000000004,-0.692446,-0.198901
2019-05-23T04:11:52.008636Z,-0.040175999999999996,-1.012779,0.565498
2019-05-23T04:11:52.048636Z,0.12433399999999999,-1.059812,0.585878
2019-05-23T04:11:52.086636Z,0.16533599999999998,-0.9875450000000001,0.44641000000000003
2019-05-23T04:11:52.127636Z,-0.309225,-0.023635,-0.9308780000000001
2019-05-23T04:11:52.167636Z,-0.717902,0.24202100000000001,-1.021326
2019-05-23T04:11:52.207636Z,-0.8270299999999999,0.593639,-0.918952
2019-05-23T04:11:52.247636Z,0.184219,-0.704059,1.417669
2019-05-23T04:11:52.287636Z,-0.063547,-0.586073,1.382051
2019-05-23T04:11:52.327636Z,-0.56984,-0.598856,0.294854
2019-05-23T04:11:52.367636Z,0.499705,-0.5484289999999999,0.7324149999999999
2019-05-23T04:11:52.408636Z,0.657576,-0.682575,0.756817
2019-05-23T04:11:52.447636Z,0.615522,0.17103,-0.732735
2019-05-23T04:11:52.489636Z,0.5023810000000001,0.286098,-0.074185
2019-05-23T04:11:52.528636Z,0.7367859999999999,0.15599200000000002,-0.029162
2019-05-23T04:11:52.568636Z,0.112812,0.117221,0.366597
2019-05-23T04:11:52.611636Z,-0.06727000000000001,0.584735,-0.199203
2019-05-23T04:11:52.648636Z,-0.114936,0.498482,-0.164829
2019-05-23T04:11:52.687636Z,-0.12449,0.455021,0.617764
2019-05-23T04:11:52.728636Z,0.509908,0.308377,1.087305
2019-05-23T04:11:52.768636Z,0.850196,0.237904,1.126075
2019-05-23T04:11:52.808636Z,0.308846,0.446604,-0.108431
2019-05-23T04:11:52.847636Z,-0.32707800000000004,-0.527767,0.127392
2019-05-23T04:11:52.890636Z,-0.30686599999999997,-0.6113810000000001,0.17213900000000001
2019-05-23T04:11:52.929636Z,0.320907,-0.682709,0.249739
2019-05-23T04:11:52.968636Z,0.894365,-0.643513,-0.26482100000000003
2019-05-23T04:11:53.008636Z,1.055959,-0.614201,-0.24008600000000002
2019-05-23T04:11:53.048636Z,0.07645199999999999,-0.752328,-0.821061
2019-05-23T04:11:53.088636Z,-0.276955,-0.877791,-0.589328
2019-05-23T04:11:53.168636Z,-0.257496,-0.797778,-0.610575
2019-05-23T04:11:53.169636Z,0.4743,-0.24369200000000002,-0.052636
2019-05-23T04:11:53.211636Z,-0.875225,-0.309967,-0.07434199999999999
2019-05-23T04:11:53.248636Z,-1.081392,-0.265148,-0.1171
2019-05-23T04:11:53.288636Z,-1.110105,0.021609,-0.472757
2019-05-23T04:11:53.328636Z,-1.6642279999999998,-0.320404,-0.112926
2019-05-23T04:11:53.368636Z,-1.776909,-0.284688,-0.134707
2019-05-23T04:11:53.408636Z,-2.291102,-0.46908900000000003,0.00943
2019-05-23T04:11:53.449636Z,-2.215056,-0.482621,0.114192
2019-05-23T04:11:53.488636Z,-2.23968,-0.530234,0.13472699999999999
2019-05-23T04:11:53.546636Z,-1.272255,-0.44255900000000004,-0.24808899999999998
2019-05-23T04:11:53.568636Z,-0.989405,-0.650655,0.757909
2019-05-23T04:11:53.608636Z,-0.8875799999999999,-0.6769470000000001,0.767894
2019-05-23T04:11:53.649636Z,-0.962108,-0.9475790000000001,0.5069229999999999
2019-05-23T04:11:53.691636Z,-0.8724350000000001,-1.482703,0.809579
2019-05-23T04:11:53.729636Z,-0.818458,-1.526084,0.8313280000000001
2019-05-23T04:11:53.769636Z,-0.733484,-2.231377,1.1091030000000002
2019-05-23T04:11:53.809636Z,-0.883641,-2.197047,1.0122959999999999
2019-05-23T04:11:53.849636Z,-0.818499,-2.188284,1.013486
2019-05-23T04:11:53.890636Z,-0.33307800000000004,-2.189835,0.8208190000000001
2019-05-23T04:11:53.929636Z,-0.386117,-2.001761,1.0488309999999998
2019-05-23T04:11:53.969636Z,-0.24433200000000002,-1.997739,1.065397
2019-05-23T04:11:54.009636Z,-0.26350300000000004,-1.890189,1.053201
2019-05-23T04:11:54.050636Z,-0.07573099999999999,-2.024465,1.3859629999999998
2019-05-23T04:11:54.091636Z,0.122677,-2.016477,1.415137
2019-05-23T04:11:54.129636Z,0.051224,-2.331286,1.386483
2019-05-23T04:11:54.170636Z,0.16403800000000002,-2.33577,1.404506
2019-05-23T04:11:54.211636Z,0.256427,-2.351537,1.430723
2019-05-23T04:11:54.250636Z,0.524624,-2.097911,0.8193969999999999
2019-05-23T04:11:54.292636Z,0.637672,-1.586661,0.6154109999999999
2019-05-23T04:11:54.330636Z,0.6119829999999999,-1.6659509999999997,0.651353
2019-05-23T04:11:54.370636Z,1.06758,-1.2464600000000001,0.893566
2019-05-23T04:11:54.410636Z,1.319392,-0.924117,0.691617
2019-05-23T04:11:54.450636Z,1.2945440000000001,-0.993294,0.720778
2019-05-23T04:11:54.492636Z,1.473433,-0.985293,1.170757
2019-05-23T04:11:54.531636Z,2.0805860000000003,-0.357354,0.6059359999999999
2019-05-23T04:11:54.570636Z,2.0956580000000002,-0.264586,0.5675520000000001
2019-05-23T04:11:54.610636Z,2.635856,-0.449762,1.723311
2019-05-23T04:11:54.650636Z,2.665349,-0.6670520000000001,0.754161
2019-05-23T04:11:54.691636Z,2.5816790000000003,-0.6515810000000001,0.729093
2019-05-23T04:11:54.732636Z,2.624039,-0.710367,0.16767200000000002
2019-05-23T04:11:54.769636Z,2.963269,-0.7838649999999999,0.483411
2019-05-23T04:11:54.810636Z,2.820709,-0.8179569999999999,0.47995699999999997
2019-05-23T04:11:54.850636Z,2.817846,-0.803657,0.489782
2019-05-23T04:11:54.892636Z,2.2797330000000002,-0.458502,-0.601621
2019-05-23T04:11:54.930636Z,2.113986,-0.422763,-0.6250859999999999
2019-05-23T04:11:54.971636Z,1.7837470000000002,-0.473854,-0.201427
2019-05-23T04:11:55.011636Z,0.675706,-0.8130689999999999,0.669733
2019-05-23T04:11:55.051636Z,0.598305,-0.8876440000000001,0.695843
2019-05-23T04:11:55.094636Z,-0.003959000000000001,-0.8419129999999999,0.910284
2019-05-23T04:11:55.130636Z,0.165838,-0.512897,0.6156159999999999
2019-05-23T04:11:55.170636Z,0.153866,-0.533423,0.619319
2019-05-23T04:11:55.210636Z,0.595789,-0.438166,1.4162370000000002
2019-05-23T04:11:55.250636Z,0.7119949999999999,-0.283767,0.037688
2019-05-23T04:11:55.291636Z,0.712928,-0.217131,0.0069689999999999995
2019-05-23T04:11:55.330636Z,0.518872,-0.812231,0.78798
2019-05-23T04:11:55.369636Z,0.476495,-0.918148,-0.562566
2019-05-23T04:11:55.432636Z,0.365969,-0.8703930000000001,-0.583397
2019-05-23T04:11:55.461636Z,0.283219,-0.058029,-0.24848699999999999
2019-05-23T04:11:55.491636Z,0.17843299999999998,-0.375933,0.28883000000000003
2019-05-23T04:11:55.529636Z,0.062186,-0.405881,0.291908
2019-05-23T04:11:55.571636Z,0.608398,-0.045656,0.7072930000000001
2019-05-23T04:11:55.611636Z,0.5515100000000001,-0.508714,1.005486
2019-05-23T04:11:55.652636Z,0.601125,-0.50889,0.997875
2019-05-23T04:11:55.692636Z,0.603299,-0.045341,-0.10816300000000001
2019-05-23T04:11:55.730636Z,0.682214,0.31438,-0.088322
2019-05-23T04:11:55.794636Z,0.682963,0.33404,-0.09803300000000001
2019-05-23T04:11:55.810636Z,1.144711,-0.086013,0.23923899999999998
2019-05-23T04:11:55.850636Z,1.539823,-0.512322,0.86031
2019-05-23T04:11:55.892636Z,1.556006,-0.545978,0.8675350000000001
2019-05-23T04:11:55.933636Z,1.414642,-1.283587,0.8836350000000001
2019-05-23T04:11:55.970636Z,1.257564,-0.906648,-0.013747
2019-05-23T04:11:56.010636Z,1.2428649999999999,-0.8995,-0.009385
2019-05-23T04:11:56.054636Z,0.7283470000000001,-0.49974700000000005,-0.31298899999999996
2019-05-23T04:11:56.091636Z,0.747753,-0.291166,-0.4661
2019-05-23T04:11:56.132636Z,0.736639,-0.27989899999999995,-0.461242
2019-05-23T04:11:56.171636Z,0.418004,-0.07511,-0.179449
2019-05-23T04:11:56.210636Z,0.579422,0.128252,-0.344012
2019-05-23T04:11:56.251636Z,0.543647,0.145531,-0.34929899999999997
2019-05-23T04:11:56.293636Z,-0.252207,0.07209299999999999,-0.034309
2019-05-23T04:11:56.330636Z,0.07675599999999999,-0.025387,1.085696
2019-05-23T04:11:56.370636Z,0.165692,-0.048007999999999995,1.0831959999999998
2019-05-23T04:11:56.411636Z,0.129395,0.048451999999999995,1.0838219999999998
2019-05-23T04:11:56.451636Z,-0.44851899999999995,-0.15903299999999998,0.621256
2019-05-23T04:11:56.493636Z,-0.5762520000000001,-0.175325,0.614467
2019-05-23T04:11:56.531636Z,-0.37018,-1.384609,1.6404990000000002
2019-05-23T04:11:56.572636Z,0.16898,-1.297663,0.26942699999999997
2019-05-23T04:11:56.611636Z,0.149809,-1.314957,0.282556
2019-05-23T04:11:56.651636Z,0.793505,-0.920213,0.118578
2019-05-23T04:11:56.691636Z,0.6251,-1.02024,-0.58477
2019-05-23T04:11:56.731636Z,0.798556,-1.0119360000000002,-0.560837
2019-05-23T04:11:56.771636Z,0.953263,-0.496967,-0.616761
2019-05-23T04:11:56.811636Z,0.52763,-0.499629,-0.11238800000000002
2019-05-23T04:11:56.901636Z,0.5861350000000001,-0.496216,-0.102906
2019-05-23T04:11:56.901636Z,0.78376,0.43028,-1.0813059999999999
2019-05-23T04:11:56.931636Z,-0.081915,0.131114,-0.561507
2019-05-23T04:11:56.971636Z,-0.49921400000000005,0.067797,-0.540898
2019-05-23T04:11:57.012636Z,-0.231292,0.44978999999999997,0.46418999999999994
2019-05-23T04:11:57.054636Z,0.63526,0.283414,0.6480130000000001
2019-05-23T04:11:57.094636Z,0.622422,0.24174,0.654319
2019-05-23T04:11:57.131636Z,0.9414469999999999,0.45232100000000003,0.8147439999999999
2019-05-23T04:11:57.172636Z,1.1385299999999998,0.42594899999999997,0.594442
2019-05-23T04:11:57.212636Z,1.076775,0.47265799999999997,0.564901
2019-05-23T04:11:57.253636Z,1.62544,-0.6418050000000001,1.5989879999999999
2019-05-23T04:11:57.293636Z,1.635561,-0.282104,0.634386
2019-05-23T04:11:57.332636Z,1.668582,-0.295403,0.6278729999999999
2019-05-23T04:11:57.373636Z,1.3020530000000001,-0.108179,-0.476887
2019-05-23T04:11:57.412636Z,1.1190200000000001,-0.436734,-0.8661280000000001
2019-05-23T04:11:57.452636Z,1.118858,-0.40825,-0.861707
2019-05-23T04:11:57.493636Z,0.9769200000000001,-0.55337,-0.828722
2019-05-23T04:11:57.533636Z,0.677941,0.013168000000000001,-1.5713840000000001
2019-05-23T04:11:57.572636Z,0.6151979999999999,0.035432,-1.5508540000000002
2019-05-23T04:11:57.613636Z,0.51441,0.5680029999999999,-1.193918
2019-05-23T04:11:57.653636Z,0.375229,0.812046,-0.8333870000000001
2019-05-23T04:11:57.694636Z,0.407657,0.886808,-0.856977
2019-05-23T04:11:57.732636Z,-0.02362,1.034175,-0.321965
2019-05-23T04:11:57.773636Z,-0.38898699999999997,0.632921,1.19459
2019-05-23T04:11:57.813636Z,-0.43733299999999997,0.636263,1.173835
2019-05-23T04:11:57.854636Z,-0.053337999999999997,0.846668,1.8536419999999998
2019-05-23T04:11:57.892636Z,0.35491,0.9626290000000001,1.405437
2019-05-23T04:11:57.933636Z,0.13278199999999998,1.0518299999999998,1.357317
2019-05-23T04:11:57.974636Z,-0.15273499999999998,0.647985,1.766472
2019-05-23T04:11:58.014636Z,0.13906300000000002,-1.137838,1.74217
2019-05-23T04:11:58.053636Z,0.21936399999999998,-1.1659030000000001,1.725539
2019-05-23T04:11:58.097636Z,-0.32757800000000004,-1.429781,0.086631
2019-05-23T04:11:58.132636Z,0.059338,-1.835975,-0.783921
2019-05-23T04:11:58.172636Z,0.45361899999999994,-1.822798,-0.7676029999999999
2019-05-23T04:11:58.238636Z,0.294153,-1.678797,-1.656807
2019-05-23T04:11:58.263636Z,0.491333,0.131364,-2.3382080000000003
2019-05-23T04:11:58.294636Z,0.11241199999999998,0.061915,-2.2858419999999997
2019-05-23T04:11:58.333636Z,-1.0702049999999999,-0.103083,-0.197164
2019-05-23T04:11:58.372636Z,-0.155121,0.45969099999999996,-0.347878
2019-05-23T04:11:58.413636Z,-0.317459,0.554217,-0.376211
2019-05-23T04:11:58.453636Z,-0.390721,0.705812,0.60605
2019-05-23T04:11:58.495636Z,0.17893399999999998,0.6739310000000001,2.10079
2019-05-23T04:11:58.533636Z,0.298873,0.8350989999999999,1.993543
2019-05-23T04:11:58.573636Z,0.517965,0.704697,0.325335
2019-05-23T04:11:58.613636Z,2.032363,-1.219514,2.8569299999999997
2019-05-23T04:11:58.655636Z,2.254479,-1.337018,2.862891
2019-05-23T04:11:58.693636Z,1.007033,-0.8406110000000001,-1.7293060000000002
2019-05-23T04:11:58.733636Z,0.864348,-0.535994,-0.46635200000000004
2019-05-23T04:11:58.772636Z,0.8512350000000001,-0.474659,-0.475691
2019-05-23T04:11:58.813636Z,-0.711071,-1.3237649999999999,0.10839100000000002
2019-05-23T04:11:58.853636Z,-0.552988,-1.111691,-1.234246
2019-05-23T04:11:58.895636Z,-0.637038,-1.052577,-1.227066
2019-05-23T04:11:58.933636Z,-1.201673,-0.723186,-0.534513
2019-05-23T04:11:58.973636Z,-0.162245,0.067162,-0.19166
2019-05-23T04:11:59.013636Z,-0.280854,0.047054,-0.179152
2019-05-23T04:11:59.054636Z,-0.181174,1.2456049999999999,0.09268
2019-05-23T04:11:59.096636Z,0.09714600000000001,0.969483,2.2988
2019-05-23T04:11:59.135636Z,0.24915199999999998,0.7296,2.3339369999999997
2019-05-23T04:11:59.173636Z,0.289681,0.29172600000000004,1.223278
2019-05-23T04:11:59.214636Z,0.049711,-0.59885,0.8954989999999999
2019-05-23T04:11:59.253636Z,0.119754,-0.566738,0.867901
2019-05-23T04:11:59.296636Z,0.390843,-0.8592420000000001,-0.9541350000000001
2019-05-23T04:11:59.334636Z,0.43775699999999995,-0.566149,-0.168905
2019-05-23T04:11:59.375636Z,0.507259,-0.569807,-0.162663
2019-05-23T04:11:59.414636Z,0.965224,-0.620149,0.198028
2019-05-23T04:11:59.454636Z,0.427179,-0.446989,-1.782023
2019-05-23T04:11:59.497636Z,0.408146,-0.49846,-1.7306110000000001
2019-05-23T04:11:59.534636Z,0.36126199999999997,-0.268337,-1.1462450000000002
2019-05-23T04:11:59.574636Z,0.362199,0.058205999999999994,-0.43711099999999997
2019-05-23T04:11:59.615636Z,0.33782,0.10563900000000001,-0.448432
2019-05-23T04:11:59.653636Z,-0.015966,-0.222221,1.574905
2019-05-23T04:11:59.694636Z,-0.589091,-0.013772999999999999,1.02074
2019-05-23T04:11:59.734636Z,-0.75802,-0.085752,1.031874
2019-05-23T04:11:59.774636Z,0.768624,0.276967,1.556348
2019-05-23T04:11:59.815636Z,0.609953,-1.089105,1.9904169999999999
2019-05-23T04:11:59.856636Z,0.7352270000000001,-1.0205600000000001,1.939428
2019-05-23T04:11:59.895636Z,0.453525,-1.247485,1.066674
2019-05-23T04:11:59.935636Z,0.272206,-1.431873,0.65187
2019-05-23T04:11:59.976636Z,0.32109899999999997,-1.4633690000000001,0.661728
2019-05-23T04:12:00.016636Z,1.3391790000000001,-1.0903209999999999,-0.865984
2019-05-23T04:12:00.055636Z,0.372057,-1.0845879999999999,-1.562373
2019-05-23T04:12:00.097636Z,0.331942,-1.113815,-1.5181790000000002
2019-05-23T04:12:00.135636Z,0.379552,-0.581851,-1.521093
2019-05-23T04:12:00.176636Z,0.415351,0.227555,-1.452868
2019-05-23T04:12:00.234636Z,0.234192,0.273744,-1.444675
2019-05-23T04:12:00.254636Z,0.09650399999999999,0.278834,0.322179
2019-05-23T04:12:00.295636Z,-0.164122,0.11355499999999999,0.858559
2019-05-23T04:12:00.336636Z,-0.102729,0.13264,0.833886
2019-05-23T04:12:00.376636Z,0.000529,1.0677459999999999,0.353556
2019-05-23T04:12:00.414636Z,-0.311711,0.9045549999999999,0.7049489999999999
2019-05-23T04:12:00.489636Z,-0.240182,0.871016,0.698762
2019-05-23T04:12:00.500636Z,0.318495,1.21389,0.076152
2019-05-23T04:12:00.535636Z,-1.151628,0.23674099999999998,0.413242
2019-05-23T04:12:00.574636Z,-1.153813,0.15475999999999998,0.43987600000000004
2019-05-23T04:12:00.614636Z,0.244498,-0.369824,0.80493
2019-05-23T04:12:00.654636Z,-0.6627350000000001,-0.648029,-0.24542399999999998
2019-05-23T04:12:00.695636Z,-0.712141,-0.658891,-0.23041199999999998
2019-05-23T04:12:00.734636Z,-0.655552,-0.9791799999999999,-0.672112
2019-05-23T04:12:00.774636Z,-0.265881,-0.292367,-1.085418
2019-05-23T04:12:00.815636Z,-0.269358,-0.230096,-1.089404
2019-05-23T04:12:00.863636Z,0.016194999999999998,-0.022186,-0.8566
2019-05-23T04:12:00.897636Z,-0.139438,0.18653699999999998,-0.773259
2019-05-23T04:12:00.935636Z,-0.154941,0.258889,-0.7871600000000001
2019-05-23T04:12:00.976636Z,-0.212763,0.510479,-0.037864999999999996
2019-05-23T04:12:01.015636Z,-0.5828760000000001,0.604152,0.814956
2019-05-23T04:12:01.055636Z,-0.585492,0.6168520000000001,0.793834
2019-05-23T04:12:01.099636Z,-0.49468900000000005,0.671712,0.59049
2019-05-23T04:12:01.135636Z,-0.238833,0.656339,1.531601
2019-05-23T04:12:01.175636Z,-0.21597800000000003,0.567068,1.533865
2019-05-23T04:12:01.215636Z,0.343119,0.94929,1.260111
2019-05-23T04:12:01.257636Z,0.084156,-0.32829899999999995,1.6256030000000001
2019-05-23T04:12:01.301636Z,0.143776,-0.42613599999999996,1.633885
2019-05-23T04:12:01.336636Z,-0.024367,-0.739317,-0.274093
2019-05-23T04:12:01.377636Z,0.063924,-1.409614,-1.060958
2019-05-23T04:12:01.415636Z,-0.015258,-1.337502,-1.054226
2019-05-23T04:12:01.471636Z,-0.026299,-1.384406,-0.954522
2019-05-23T04:12:01.499636Z,0.256728,-1.174072,-0.090512
2019-05-23T04:12:01.535636Z,0.16522699999999998,-1.224813,-0.050837
2019-05-23T04:12:01.575636Z,0.35892199999999996,-0.410734,-0.44454099999999996
2019-05-23T04:12:01.616636Z,0.511583,-0.134394,-0.7183579999999999
2019-05-23T04:12:01.656636Z,0.5137970000000001,-0.146819,-0.701956
2019-05-23T04:12:01.698636Z,-0.020897,0.022215000000000002,-0.411233
2019-05-23T04:12:01.737636Z,0.012074,0.5292279999999999,-0.102311
2019-05-23T04:12:01.776636Z,0.013068000000000001,0.529759,-0.10447000000000001
2019-05-23T04:12:01.828636Z,0.167035,0.842535,0.586888
2019-05-23T04:12:01.856636Z,0.059197,1.181129,0.43263100000000004
2019-05-23T04:12:01.896636Z,0.154552,1.206806,0.39704
2019-05-23T04:12:01.936636Z,-0.300327,0.5740390000000001,0.195123
2019-05-23T04:12:01.977636Z,-0.3205,-0.539994,0.824291
2019-05-23T04:12:02.016636Z,-0.37311300000000003,-0.47805200000000003,0.7971520000000001
2019-05-23T04:12:02.056636Z,-0.49016400000000004,-1.024994,0.775522
2019-05-23T04:12:02.135636Z,-0.037505000000000004,-0.697505,-0.237202
2019-05-23T04:12:02.138636Z,-0.031844,-0.639139,-0.249619
2019-05-23T04:12:02.176636Z,-0.121698,-0.622736,-0.475296
2019-05-23T04:12:02.216636Z,0.025927999999999996,-0.145574,-0.626591
2019-05-23T04:12:02.256636Z,0.017531,-0.168054,-0.606956
2019-05-23T04:12:02.351636Z,-0.313366,-0.009818,-0.5395979999999999
2019-05-23T04:12:02.352636Z,-0.18304700000000002,0.19222899999999998,0.093824
2019-05-23T04:12:02.379636Z,-0.269402,0.057553999999999994,0.149776
2019-05-23T04:12:02.415636Z,-1.112824,-0.36120599999999997,0.5649649999999999
2019-05-23T04:12:02.457636Z,-0.745155,-0.299421,0.85703
2019-05-23T04:12:02.496636Z,-0.697278,-0.525103,0.934358
2019-05-23T04:12:02.537636Z,-0.5855020000000001,-0.316211,0.46287399999999995
2019-05-23T04:12:02.577636Z,-0.731263,-0.251189,0.565841
2019-05-23T04:12:02.617636Z,-0.916955,-0.30672699999999997,0.61669
2019-05-23T04:12:02.657636Z,-1.327143,-1.400161,1.477168
2019-05-23T04:12:02.715636Z,-0.983123,-1.295209,0.26371700000000003
2019-05-23T04:12:02.736636Z,-0.917566,-1.218344,0.226857
2019-05-23T04:12:02.777636Z,-0.8230649999999999,-1.122372,0.516048
2019-05-23T04:12:02.817636Z,-0.640309,-0.8391569999999999,0.164175
2019-05-23T04:12:02.857636Z,-0.475347,-0.7150989999999999,0.097483
2019-05-23T04:12:02.898636Z,-0.46289399999999997,-0.71616,0.24138400000000002
2019-05-23T04:12:02.938636Z,-0.065819,-0.715122,0.588749
2019-05-23T04:12:02.977636Z,0.031687,-0.671254,0.558596
2019-05-23T04:12:03.023636Z,0.5206109999999999,-0.5617439999999999,0.358103
2019-05-23T04:12:03.057636Z,1.2121879999999998,0.002127,0.11903599999999999
2019-05-23T04:12:03.100636Z,1.330908,-0.009770000000000001,0.11601800000000001
2019-05-23T04:12:03.138636Z,0.9477270000000001,0.327405,-0.060203
2019-05-23T04:12:03.178636Z,0.9505899999999999,0.656667,-0.064014
2019-05-23T04:12:03.218636Z,1.024171,0.629049,-0.05736599999999999
2019-05-23T04:12:03.259636Z,1.137442,0.736956,0.438384
2019-05-23T04:12:03.298636Z,0.696793,-0.008874,0.38325
2019-05-23T04:12:03.338636Z,0.704812,-0.123502,0.423569
2019-05-23T04:12:03.379636Z,0.688593,-0.019483,0.108708
2019-05-23T04:12:03.419636Z,0.49090900000000004,-0.376787,0.7886770000000001
2019-05-23T04:12:03.459636Z,0.49584399999999995,-0.531808,0.848665
2019-05-23T04:12:03.499636Z,0.528767,-0.484138,-0.165385
2019-05-23T04:12:03.539636Z,0.721454,-0.410728,0.017208
2019-05-23T04:12:03.579636Z,0.739255,-0.451137,0.038627
2019-05-23T04:12:03.618636Z,1.1260270000000001,-0.351912,-0.317309
2019-05-23T04:12:03.659636Z,1.083361,-0.092659,-0.8555729999999999
2019-05-23T04:12:03.698636Z,1.144467,-0.108628,-0.8332639999999999
2019-05-23T04:12:03.738636Z,1.089733,0.063166,-0.9681350000000001
2019-05-23T04:12:03.778636Z,0.257999,0.119401,-1.144894
2019-05-23T04:12:03.840636Z,0.287108,0.130741,-1.131701
2019-05-23T04:12:03.871636Z,-0.102781,0.28909,0.124278
2019-05-23T04:12:03.898636Z,-0.351113,0.190611,0.9455469999999999
2019-05-23T04:12:03.937636Z,-0.258858,0.185499,0.931524
2019-05-23T04:12:03.979636Z,-0.525412,0.396287,0.039573000000000004
2019-05-23T04:12:04.018636Z,-0.19531600000000002,-0.304845,0.9402010000000001
2019-05-23T04:12:04.058636Z,0.004411,-0.33407,0.9450540000000001
2019-05-23T04:12:04.100636Z,-0.552165,-2.062734,1.097509
2019-05-23T04:12:04.140636Z,-0.974999,-2.363055,0.470812
2019-05-23T04:12:04.207636Z,-1.042353,-2.394166,0.49574799999999997
2019-05-23T04:12:04.219636Z,-0.277477,-2.272487,0.77451
2019-05-23T04:12:04.259636Z,-0.038072,-1.97613,0.588728
2019-05-23T04:12:04.300636Z,0.155184,-1.743426,0.500051
2019-05-23T04:12:04.339636Z,-0.384158,-1.5823479999999999,0.519529
2019-05-23T04:12:04.378636Z,0.147579,-1.628139,1.277875
2019-05-23T04:12:04.418636Z,0.038593,-1.7474450000000001,1.312274
2019-05-23T04:12:04.458636Z,1.7097740000000001,-0.750583,0.252616
2019-05-23T04:12:04.501636Z,2.7093380000000002,-0.079913,-0.386849
2019-05-23T04:12:04.539636Z,2.7649880000000002,-0.10315,-0.36027600000000004
2019-05-23T04:12:04.579636Z,2.780646,0.21336,0.008316
2019-05-23T04:12:04.620636Z,1.746635,0.617495,-0.272095
2019-05-23T04:12:04.658636Z,1.747184,0.621397,-0.270889
2019-05-23T04:12:04.699636Z,0.41438800000000003,0.047287,0.264533
2019-05-23T04:12:04.773636Z,0.511219,-0.48796999999999996,1.110314
2019-05-23T04:12:04.784636Z,0.35136100000000003,-0.578889,1.128201
2019-05-23T04:12:04.818636Z,0.541011,-1.836182,2.733725
2019-05-23T04:12:04.858636Z,1.163517,-1.621499,0.531352
2019-05-23T04:12:04.900636Z,1.203179,-1.561784,0.510785
2019-05-23T04:12:04.938636Z,1.55779,-1.279153,-0.699533
2019-05-23T04:12:04.979636Z,2.481841,-0.9653200000000001,-0.49988699999999997
2019-05-23T04:12:05.019636Z,2.62036,-0.868401,-0.514878
2019-05-23T04:12:05.060636Z,1.680361,-0.340335,-1.4183860000000001
2019-05-23T04:12:05.132636Z,1.168976,-0.167458,-0.262732
2019-05-23T04:12:05.162636Z,1.172469,-0.157327,-0.259353
2019-05-23T04:12:05.179636Z,1.0006760000000001,-0.322146,-0.36364
2019-05-23T04:12:05.220636Z,1.314985,-0.30499299999999996,0.68643
2019-05-23T04:12:05.259636Z,1.273105,-0.362535,0.7036439999999999
2019-05-23T04:12:05.301636Z,0.8960520000000001,-0.191685,0.38463400000000003
2019-05-23T04:12:05.340636Z,0.842951,-0.181362,1.1245690000000002
2019-05-23T04:12:05.379636Z,0.747133,-0.266276,1.143744
2019-05-23T04:12:05.420636Z,0.8682629999999999,-0.100711,1.176569
2019-05-23T04:12:05.460636Z,0.338208,-0.680139,1.321491
2019-05-23T04:12:05.499636Z,0.419318,-0.6356069999999999,1.28843
2019-05-23T04:12:05.540636Z,0.087621,-1.064702,0.238389
2019-05-23T04:12:05.578636Z,0.1238,-0.916061,0.007620999999999999
2019-05-23T04:12:05.619636Z,0.181047,-0.871871,-0.002325
2019-05-23T04:12:05.660636Z,0.8035140000000001,-0.680018,-0.345428
2019-05-23T04:12:05.700636Z,0.8193799999999999,-0.638289,-0.419128
2019-05-23T04:12:05.742636Z,0.8715360000000001,-0.62895,-0.405839
2019-05-23T04:12:05.781636Z,0.572691,-0.433882,-0.211617
2019-05-23T04:12:05.821636Z,1.0368540000000002,-0.002625,0.251646
2019-05-23T04:12:05.861636Z,1.058749,-0.018147,0.258117
2019-05-23T04:12:05.904636Z,1.346056,-0.35536799999999996,0.453876
2019-05-23T04:12:05.941636Z,1.138578,-0.308668,0.354585
2019-05-23T04:12:05.981636Z,1.27033,-0.332468,0.380796
2019-05-23T04:12:06.020636Z,0.9411129999999999,-0.198287,0.120776
2019-05-23T04:12:06.061636Z,1.617217,-0.176866,1.0037459999999998
2019-05-23T04:12:06.103636Z,1.6705400000000001,-0.203444,1.0135889999999999
2019-05-23T04:12:06.140636Z,1.309992,-0.725074,1.414534
2019-05-23T04:12:06.219636Z,1.7002549999999998,-1.090471,0.536613
2019-05-23T04:12:06.230636Z,1.855117,-0.944533,0.504312
2019-05-23T04:12:06.261636Z,2.554958,-1.401901,0.7463029999999999
2019-05-23T04:12:06.300636Z,2.497184,-1.1275950000000001,0.866848
2019-05-23T04:12:06.343636Z,2.299137,-1.168736,0.857194
2019-05-23T04:12:06.380636Z,3.030792,-1.3199040000000002,0.277217
2019-05-23T04:12:06.421636Z,2.836363,-2.2073139999999998,0.987816
2019-05-23T04:12:06.460636Z,2.5358970000000003,-2.2740650000000002,1.000564
2019-05-23T04:12:06.502636Z,2.5987869999999997,-2.652,2.124609
2019-05-23T04:12:06.571636Z,2.1878580000000003,-3.155453,1.094171
2019-05-23T04:12:06.580636Z,2.002234,-3.1146119999999997,1.0823459999999998
2019-05-23T04:12:06.620636Z,1.520757,-3.7993099999999997,2.098746
2019-05-23T04:12:06.660636Z,0.951235,-4.267939,1.293484
2019-05-23T04:12:06.700636Z,0.839405,-4.139754,1.25108
2019-05-23T04:12:06.741636Z,1.413081,-3.821594,0.8336129999999999
2019-05-23T04:12:06.781636Z,1.3554110000000001,-3.608488,1.907687
2019-05-23T04:12:06.822636Z,1.350474,-3.5518059999999996,1.876214
2019-05-23T04:12:06.861636Z,0.42712700000000003,-2.3647419999999997,1.506869
2019-05-23T04:12:06.902636Z,0.303738,-2.042268,1.848269
2019-05-23T04:12:06.941636Z,0.42579700000000004,-2.074749,1.8373580000000003
2019-05-23T04:12:06.982636Z,-0.42285600000000007,-2.262034,0.652822
2019-05-23T04:12:07.022636Z,-0.500418,-1.469452,0.6154
2019-05-23T04:12:07.063636Z,-0.588129,-1.623476,0.684968
2019-05-23T04:12:07.102636Z,0.088253,-1.1394600000000001,1.071077
2019-05-23T04:12:07.142636Z,-0.38851399999999997,-1.311148,0.371593
2019-05-23T04:12:07.183636Z,-0.458715,-1.505396,0.469743
2019-05-23T04:12:07.223636Z,-0.945976,-1.458793,1.725693
2019-05-23T04:12:07.263636Z,-0.091786,-0.282348,0.387708
2019-05-23T04:12:07.304636Z,-0.197695,-0.31130399999999997,0.407518
2019-05-23T04:12:07.342636Z,-1.001542,-1.754563,0.867661
2019-05-23T04:12:07.383636Z,-1.257931,-1.962234,-0.441999
2019-05-23T04:12:07.423636Z,-1.3752870000000001,-1.975295,-0.398563
2019-05-23T04:12:07.462636Z,-1.52546,-1.6463139999999998,-0.056964
2019-05-23T04:12:07.502636Z,-1.118967,-1.886782,0.269042
2019-05-23T04:12:07.541636Z,-1.013241,-1.799825,0.23093200000000003
2019-05-23T04:12:07.610636Z,-1.192893,-1.0541040000000002,-0.17799600000000002
2019-05-23T04:12:07.623636Z,-0.8014640000000001,-0.378701,-0.56788
2019-05-23T04:12:07.665636Z,-0.786666,-0.314947,-0.588784
2019-05-23T04:12:07.700636Z,-1.1533209999999998,-0.018649000000000002,-0.47621199999999997
2019-05-23T04:12:07.742636Z,-0.971526,-0.014556,0.20845999999999998
2019-05-23T04:12:07.782636Z,-1.024304,-0.054054,0.227559
2019-05-23T04:12:07.822636Z,0.022585,0.202227,0.885397
2019-05-23T04:12:07.862636Z,-0.7266600000000001,-0.163999,0.830787
2019-05-23T04:12:07.902636Z,-1.027316,-0.010966,0.756696
2019-05-23T04:12:07.957636Z,-1.9063139999999998,-1.346911,0.981964
2019-05-23T04:12:07.982636Z,-0.988607,-1.637055,0.455427
2019-05-23T04:12:08.022636Z,-1.09359,-1.5668469999999999,0.43753400000000003
2019-05-23T04:12:08.065636Z,-0.746402,0.12903599999999998,-0.052716
2019-05-23T04:12:08.104636Z,-0.926551,-0.817371,0.012749
2019-05-23T04:12:08.142636Z,-0.742168,-0.747613,-0.025580000000000002
2019-05-23T04:12:08.182636Z,-0.9284030000000001,-0.470942,-0.732414
2019-05-23T04:12:08.222636Z,-0.9410069999999999,-0.482167,-0.344467
2019-05-23T04:12:08.262636Z,-0.9708610000000001,-0.47600200000000004,-0.334677
2019-05-23T04:12:08.302636Z,0.14994200000000002,0.017506999999999998,-0.06365
2019-05-23T04:12:08.342636Z,-0.198494,0.436572,0.423372
2019-05-23T04:12:08.383636Z,-0.214392,0.41109700000000005,0.426033
2019-05-23T04:12:08.423636Z,-1.205338,-0.511826,1.102407
2019-05-23T04:12:08.464636Z,-0.864922,-0.521868,1.424708
2019-05-23T04:12:08.505636Z,-0.964844,-0.444572,1.379334
2019-05-23T04:12:08.544636Z,-0.206486,-0.389652,1.4455069999999999
2019-05-23T04:12:08.583636Z,0.077645,-0.8710200000000001,0.8718799999999999
2019-05-23T04:12:08.624636Z,0.17691800000000002,-0.91022,0.8748610000000001
2019-05-23T04:12:08.664636Z,-0.391125,-0.35685300000000003,-0.149723
2019-05-23T04:12:08.706636Z,-0.241056,-0.6464270000000001,-0.5600569999999999
2019-05-23T04:12:08.744636Z,-0.055327999999999995,-0.575975,-0.581986
2019-05-23T04:12:08.784636Z,-0.55171,-0.798503,-0.564635
2019-05-23T04:12:08.824636Z,-0.5836640000000001,-0.219377,-0.26154099999999997
2019-05-23T04:12:08.864636Z,-0.546446,-0.263548,-0.23802600000000002
2019-05-23T04:12:08.906636Z,0.27513899999999997,-0.109529,0.21570799999999998
2019-05-23T04:12:08.943636Z,0.18299,0.048671,0.060527
2019-05-23T04:12:08.984636Z,0.083241,-0.086457,0.122182
2019-05-23T04:12:09.024636Z,0.36488400000000004,-0.153641,0.8599620000000001
2019-05-23T04:12:09.065636Z,0.40156,0.514451,0.651081
2019-05-23T04:12:09.105636Z,0.31687,0.6198640000000001,0.5949479999999999
2019-05-23T04:12:09.143636Z,0.543931,-1.171081,2.8526540000000002
2019-05-23T04:12:09.183636Z,-0.432662,-0.9957940000000001,1.300165
2019-05-23T04:12:09.223636Z,-0.344525,-1.009375,1.289134
2019-05-23T04:12:09.262636Z,-0.42987700000000006,-0.7508779999999999,0.002698
2019-05-23T04:12:09.303636Z,-1.417266,-1.453759,-0.9775510000000001
2019-05-23T04:12:09.355636Z,-1.291144,-1.3880299999999999,-0.97909
2019-05-23T04:12:09.393636Z,-1.1806649999999999,-0.820192,-1.6680869999999999
2019-05-23T04:12:09.422636Z,-2.2940560000000003,-1.2601280000000001,-0.824673
2019-05-23T04:12:09.462636Z,-2.317298,-1.301493,-0.786075
2019-05-23T04:12:09.503636Z,-2.699201,-1.653825,-0.591806
2019-05-23T04:12:09.542636Z,-1.268589,-1.342862,1.967915
2019-05-23T04:12:09.583636Z,-1.187519,-1.453722,1.9908970000000001
2019-05-23T04:12:09.622636Z,-0.313707,-2.089755,2.580991
2019-05-23T04:12:09.663636Z,-0.511563,-2.085448,1.641659
2019-05-23T04:12:09.703636Z,-0.576975,-2.1905259999999998,1.6748060000000002
2019-05-23T04:12:09.743636Z,-0.682441,-3.020168,1.432477
2019-05-23T04:12:09.783636Z,-0.06566699999999999,-2.62338,0.479059
2019-05-23T04:12:09.824636Z,-0.008055,-2.527989,0.446637
2019-05-23T04:12:09.864636Z,0.550179,-2.708812,0.593943
2019-05-23T04:12:09.905636Z,0.247414,-1.690078,0.49119799999999997
2019-05-23T04:12:09.944636Z,0.23648200000000003,-1.6738490000000001,0.488038
2019-05-23T04:12:09.983636Z,0.693793,-0.665734,0.727532
2019-05-23T04:12:10.024636Z,0.7563949999999999,-0.775679,1.683661
2019-05-23T04:12:10.064636Z,0.803937,-0.910557,1.7192049999999999
2019-05-23T04:12:10.105636Z,1.253314,-0.7866449999999999,1.5706790000000002
2019-05-23T04:12:10.144636Z,1.450593,-0.552434,-0.02882
2019-05-23T04:12:10.185636Z,1.5600319999999999,-0.6575880000000001,0.033736
2019-05-23T04:12:10.225636Z,1.5313219999999998,0.074462,-1.243852
2019-05-23T04:12:10.265636Z,1.6844290000000002,0.664679,-0.9171520000000001
2019-05-23T04:12:10.308636Z,1.7973119999999998,0.505146,-0.812995
2019-05-23T04:12:10.345636Z,1.968679,0.90825,0.5291600000000001
2019-05-23T04:12:10.384636Z,1.439659,0.789223,0.563491
2019-05-23T04:12:10.425636Z,1.491283,0.684251,0.611268
2019-05-23T04:12:10.464636Z,2.305762,-1.2382389999999999,3.4168529999999997
2019-05-23T04:12:10.504636Z,2.408305,-0.669312,-0.213842
2019-05-23T04:12:10.596636Z,2.056667,-0.656713,-0.254267
2019-05-23T04:12:10.597636Z,2.847937,-0.761714,0.23353200000000002
2019-05-23T04:12:10.627636Z,2.585397,-1.305027,-0.9369059999999999
2019-05-23T04:12:10.663636Z,2.235007,-1.334229,-0.913904
2019-05-23T04:12:10.705636Z,2.209259,-0.849426,-0.30109
2019-05-23T04:12:10.745636Z,3.1354189999999997,-1.0818159999999999,0.585734
2019-05-23T04:12:10.784636Z,2.9994669999999997,-1.049397,0.569519
2019-05-23T04:12:10.824636Z,2.814916,-0.9654799999999999,1.283787
2019-05-23T04:12:10.865636Z,2.506565,-0.5853,0.032819
2019-05-23T04:12:10.908636Z,2.429981,-0.622712,0.060979
2019-05-23T04:12:10.977636Z,2.7851,0.35386,-0.9109659999999999
2019-05-23T04:12:10.989636Z,1.9691349999999999,-0.217275,-0.20291800000000002
2019-05-23T04:12:11.025636Z,1.8967330000000002,-0.188443,-0.21167399999999997
2019-05-23T04:12:11.065636Z,1.106802,-0.33387100000000003,-0.290402
2019-05-23T04:12:11.106636Z,1.084357,0.047997000000000005,0.38804299999999997
2019-05-23T04:12:11.145636Z,1.082486,0.010923,0.400934
2019-05-23T04:12:11.184636Z,1.2185780000000002,0.5099199999999999,0.479646
2019-05-23T04:12:11.224636Z,1.026368,0.609689,-0.755472
2019-05-23T04:12:11.264636Z,0.185471,0.6079979999999999,-0.263766
2019-05-23T04:12:11.305636Z,-0.03501,0.46036499999999997,-0.161357
2019-05-23T04:12:11.344636Z,-0.185129,-0.460805,1.526031
2019-05-23T04:12:11.384636Z,-0.265436,-0.296808,1.015409
2019-05-23T04:12:11.424636Z,-0.141681,-0.32466300000000003,1.0088270000000001
2019-05-23T04:12:11.464636Z,0.023096000000000002,-1.477905,1.301779
2019-05-23T04:12:11.507636Z,-1.07497,-1.107968,-0.483781
2019-05-23T04:12:11.546636Z,-1.119545,-1.1180299999999999,-0.454928
2019-05-23T04:12:11.587636Z,-0.34221999999999997,-1.308284,0.713047
2019-05-23T04:12:11.625636Z,-0.448574,-1.407894,0.28591300000000003
2019-05-23T04:12:11.665636Z,-0.243635,-1.345656,0.256804
2019-05-23T04:12:11.770636Z,-1.155756,-0.963042,-0.770339
2019-05-23T04:12:11.771636Z,-2.185966,-1.187881,-0.10408599999999998
2019-05-23T04:12:11.784636Z,-2.3657939999999997,-1.1452950000000002,-0.122707
2019-05-23T04:12:11.824636Z,-2.147214,-0.845417,0.614016
2019-05-23T04:12:11.865636Z,-1.973857,-0.814095,0.653342
2019-05-23T04:12:11.905636Z,-2.064984,-0.830174,0.66651
2019-05-23T04:12:11.945636Z,-1.54015,-0.17916600000000002,0.487475
2019-05-23T04:12:11.986636Z,-1.596173,-0.039636000000000005,0.8955110000000001
2019-05-23T04:12:12.025636Z,-1.600424,-0.06142,0.897086
2019-05-23T04:12:12.066636Z,-1.310561,0.055709,-0.11103299999999999
2019-05-23T04:12:12.127636Z,-1.326423,-0.706584,0.710734
2019-05-23T04:12:12.145636Z,-1.240876,-0.613516,0.6444479999999999
2019-05-23T04:12:12.186636Z,-0.129353,-0.8703489999999999,-0.5837140000000001
2019-05-23T04:12:12.227636Z,-1.538106,-1.3485479999999999,0.5143770000000001
2019-05-23T04:12:12.266636Z,-1.729443,-1.342662,0.527259
2019-05-23T04:12:12.305636Z,-0.725083,-1.7288419999999998,-0.017988999999999998
2019-05-23T04:12:12.345636Z,-0.12518800000000002,-1.647873,-0.00042
2019-05-23T04:12:12.386636Z,-0.013758000000000001,-1.435612,-0.10291600000000001
2019-05-23T04:12:12.427636Z,0.037802999999999996,-0.9085280000000001,-0.359942
2019-05-23T04:12:12.466636Z,0.15001,-0.089134,-0.17653
2019-05-23T04:12:12.508636Z,0.03968,0.019175,-0.21557600000000002
2019-05-23T04:12:12.547636Z,0.23243899999999998,0.325525,0.731959
2019-05-23T04:12:12.587636Z,0.984245,0.958226,1.5816139999999999
2019-05-23T04:12:12.628636Z,0.924013,0.843442,1.606005
2019-05-23T04:12:12.667636Z,1.305085,1.114544,1.425694
2019-05-23T04:12:12.709636Z,2.085692,0.38706999999999997,0.928514
2019-05-23T04:12:12.748636Z,2.1678900000000003,0.322166,0.933783
2019-05-23T04:12:12.787636Z,2.166605,0.013566,1.4624700000000002
2019-05-23T04:12:12.828636Z,2.391736,-0.848223,1.382501
2019-05-23T04:12:12.866636Z,2.546865,-1.03757,1.470987
2019-05-23T04:12:12.907636Z,1.7835720000000002,-0.842456,-0.6321680000000001
2019-05-23T04:12:12.981636Z,2.3008919999999997,-0.996577,-0.286602
2019-05-23T04:12:12.992636Z,2.213418,-0.9894540000000001,-0.273811
2019-05-23T04:12:13.027636Z,2.472865,-0.735927,0.085862
2019-05-23T04:12:13.066636Z,2.655752,-0.43035500000000004,-0.7353770000000001
2019-05-23T04:12:13.107636Z,2.5208720000000002,-0.30407,-0.7858069999999999
2019-05-23T04:12:13.147636Z,2.786118,-0.019247,0.22248600000000002
2019-05-23T04:12:13.187636Z,2.4535099999999996,-0.268246,-0.084468
2019-05-23T04:12:13.227636Z,2.3284689999999997,-0.32665900000000003,-0.038285
2019-05-23T04:12:13.267636Z,1.960866,-0.289614,-0.094145
2019-05-23T04:12:13.307636Z,2.0971040000000003,-0.939802,0.326046
2019-05-23T04:12:13.347636Z,2.074815,-1.0146899999999999,0.375948
2019-05-23T04:12:13.387636Z,1.030227,-0.780479,-0.598969
2019-05-23T04:12:13.427636Z,0.992821,-0.867777,0.15532
2019-05-23T04:12:13.467636Z,0.8509040000000001,-0.795112,0.13958900000000002
2019-05-23T04:12:13.508636Z,-0.243952,-0.555154,0.24326799999999998
2019-05-23T04:12:13.548636Z,0.6381760000000001,-0.190866,0.324623
2019-05-23T04:12:13.588636Z,0.596924,-0.22333899999999998,0.349012
2019-05-23T04:12:13.628636Z,-0.22221300000000002,-0.256168,-0.4939
2019-05-23T04:12:13.668636Z,-0.5801229999999999,0.037618,-0.418426
2019-05-23T04:12:13.707636Z,-0.53977,0.036334,-0.41835100000000003
2019-05-23T04:12:13.748636Z,-0.698689,0.505309,-0.032117
2019-05-23T04:12:13.788636Z,-0.6523359999999999,0.66732,0.333739
2019-05-23T04:12:13.829636Z,-0.542459,0.6705720000000001,0.29849899999999996
2019-05-23T04:12:13.869636Z,-0.6656770000000001,0.399755,0.9935729999999999
2019-05-23T04:12:13.911636Z,-0.759961,0.100052,0.784107
2019-05-23T04:12:13.949636Z,-0.6517270000000001,-0.004138,0.82245
2019-05-23T04:12:13.988636Z,-0.429511,0.085469,0.187042
2019-05-23T04:12:14.029636Z,-0.664192,-0.920726,0.98864
2019-05-23T04:12:14.068636Z,-0.28943800000000003,-0.9200379999999999,0.9471780000000001
2019-05-23T04:12:14.110636Z,-0.988142,-0.7994939999999999,-0.120202
2019-05-23T04:12:14.148636Z,-1.225506,-1.133623,0.184634
2019-05-23T04:12:14.191636Z,-0.989418,-1.161792,0.20821599999999998
2019-05-23T04:12:14.227636Z,-0.557697,-1.253002,-0.182169
2019-05-23T04:12:14.267636Z,-1.9483709999999999,-0.693045,-0.585868
2019-05-23T04:12:14.336636Z,-2.02831,-0.653207,-0.598567
2019-05-23T04:12:14.352636Z,-1.3303129999999999,-0.713869,-0.551506
2019-05-23T04:12:14.389636Z,-1.354647,-0.491465,-0.505818
2019-05-23T04:12:14.427636Z,-1.517288,-0.36499499999999996,-0.56294
2019-05-23T04:12:14.468636Z,-0.978273,-0.080458,0.35162899999999997
2019-05-23T04:12:14.507636Z,-0.49639399999999995,0.378263,0.523134
2019-05-23T04:12:14.548636Z,-0.61407,0.421835,0.495271
2019-05-23T04:12:14.589636Z,-0.0279,0.293165,1.427904
2019-05-23T04:12:14.629636Z,-0.07220599999999999,0.039719,0.5490470000000001
2019-05-23T04:12:14.667636Z,0.022616999999999998,0.031973,0.540876
2019-05-23T04:12:14.713636Z,-0.35470999999999997,-0.094273,0.34844400000000003
2019-05-23T04:12:14.748636Z,0.535483,-0.6953229999999999,0.56709
2019-05-23T04:12:14.788636Z,0.640518,-0.80057,0.621777
2019-05-23T04:12:14.828636Z,1.1224399999999999,-0.489937,-0.852908
2019-05-23T04:12:14.868636Z,1.530484,0.071656,-0.901866
2019-05-23T04:12:14.910636Z,1.5855700000000001,0.071327,-0.886956
2019-05-23T04:12:14.948636Z,0.621563,-0.379485,0.032681
2019-05-23T04:12:14.987636Z,0.51454,-0.179596,-0.017388999999999998
2019-05-23T04:12:15.028636Z,0.696425,-0.223703,0.019197
2019-05-23T04:12:15.068636Z,0.795121,-0.500401,-0.352649
2019-05-23T04:12:15.108636Z,-0.552415,0.606046,-1.9318919999999997
2019-05-23T04:12:15.201636Z,-0.841053,0.574908,-1.9112349999999998
2019-05-23T04:12:15.203636Z,-0.740414,0.292557,-0.6978850000000001
2019-05-23T04:12:15.233636Z,-0.24559,1.256749,0.193854
2019-05-23T04:12:15.267636Z,-0.362998,1.3095299999999999,0.146491
2019-05-23T04:12:15.310636Z,-0.30335300000000004,1.29598,0.346364
2019-05-23T04:12:15.352636Z,-0.44434399999999996,1.262679,0.476042
2019-05-23T04:12:15.388636Z,-0.430965,1.6864119999999998,0.236339
2019-05-23T04:12:15.427636Z,-1.702103,1.057828,0.437641
2019-05-23T04:12:15.471636Z,1.141673,-1.445991,3.3418699999999997
2019-05-23T04:12:15.509636Z,1.055421,-1.587438,3.355626
2019-05-23T04:12:15.551636Z,-0.698763,-1.735583,-0.13908199999999998
2019-05-23T04:12:15.588636Z,0.828892,-1.064498,-0.879857
2019-05-23T04:12:15.632636Z,0.74993,-0.963042,-0.8893620000000001
2019-05-23T04:12:15.668636Z,0.311474,-1.222335,-0.490623
2019-05-23T04:12:15.709636Z,0.189154,-0.952073,-0.616858
2019-05-23T04:12:15.748636Z,0.25346399999999997,-0.945199,-0.6121340000000001
2019-05-23T04:12:15.788636Z,-0.230696,-0.278316,-0.663532
2019-05-23T04:12:15.829636Z,-0.094358,0.409918,-0.362755
2019-05-23T04:12:15.869636Z,0.046017,0.520105,-0.41352700000000003
2019-05-23T04:12:15.911636Z,-0.029463999999999997,0.544447,0.387023
2019-05-23T04:12:15.949636Z,-0.090137,0.393097,0.811894
2019-05-23T04:12:15.990636Z,-0.065458,0.293792,0.830526
2019-05-23T04:12:16.030636Z,0.027206,0.146635,0.8816219999999999
2019-05-23T04:12:16.070636Z,0.200879,-0.088822,0.202268
2019-05-23T04:12:16.110636Z,0.087094,0.031711,0.160171
2019-05-23T04:12:16.150636Z,0.33226300000000003,-1.293863,2.022272
2019-05-23T04:12:16.189636Z,0.889242,-1.863704,0.028281
2019-05-23T04:12:16.232636Z,1.0178770000000001,-1.901545,0.054520000000000006
2019-05-23T04:12:16.270636Z,-0.48166099999999995,-1.069755,-0.21151799999999998
2019-05-23T04:12:16.310636Z,-0.033964999999999995,-1.124195,-0.124366
2019-05-23T04:12:16.348636Z,0.010464,-0.937049,-0.18417
2019-05-23T04:12:16.389636Z,-0.9244899999999999,-0.675638,-0.5686869999999999
2019-05-23T04:12:16.430636Z,-0.8045,-0.78773,-0.006815000000000001
2019-05-23T04:12:16.470636Z,-1.437287,-0.669033,0.036489999999999995
2019-05-23T04:12:16.510636Z,-0.896874,-1.5283360000000001,0.21125
2019-05-23T04:12:16.550636Z,0.846426,-0.549917,0.573551
2019-05-23T04:12:16.589636Z,1.017994,-0.43146899999999994,0.499557
2019-05-23T04:12:16.629636Z,0.5885199999999999,0.243916,-0.815005
2019-05-23T04:12:16.670636Z,0.737123,0.131882,1.0949200000000001
2019-05-23T04:12:16.713636Z,0.8889239999999999,0.052178999999999996,1.079615
2019-05-23T04:12:16.751636Z,0.259454,0.12478099999999999,0.6465529999999999
2019-05-23T04:12:16.791636Z,0.799758,-0.000688,1.156215
2019-05-23T04:12:16.830636Z,1.0477,-0.238864,1.196425
2019-05-23T04:12:16.871636Z,0.436295,-0.6667489999999999,0.7050609999999999
2019-05-23T04:12:16.913636Z,-0.00828,-1.132081,0.023198
2019-05-23T04:12:16.951636Z,0.281112,-1.2142879999999998,0.06429
2019-05-23T04:12:16.989636Z,0.46711499999999995,-0.147017,-0.8576860000000001
2019-05-23T04:12:17.029636Z,-0.906058,0.056695,-1.265125
2019-05-23T04:12:17.070636Z,-1.488893,0.309695,-1.3405989999999999
2019-05-23T04:12:17.114636Z,-1.445347,-0.689964,0.080639
2019-05-23T04:12:17.150636Z,-0.271041,-1.514549,0.293969
2019-05-23T04:12:17.190636Z,-0.24879400000000002,-1.555484,0.30504000000000003
2019-05-23T04:12:17.230636Z,-0.031998,-1.29427,1.298227
2019-05-23T04:12:17.270636Z,0.097077,-0.5146609999999999,-0.689918
2019-05-23T04:12:17.310636Z,0.295406,-0.302014,-0.759278
2019-05-23T04:12:17.350636Z,0.640389,-0.62325,1.232577
2019-05-23T04:12:17.391636Z,0.27564099999999997,-0.580252,0.133456
2019-05-23T04:12:17.432636Z,0.652812,-0.574657,0.132977
2019-05-23T04:12:17.470636Z,0.141738,-0.110036,-0.9919889999999999
2019-05-23T04:12:17.512636Z,0.532133,0.065171,0.007462000000000001
2019-05-23T04:12:17.554636Z,0.947852,0.159215,0.033882999999999996
2019-05-23T04:12:17.590636Z,-0.548212,0.714526,-0.083838
2019-05-23T04:12:17.630636Z,-1.011378,1.005991,-0.9838469999999999
2019-05-23T04:12:17.670636Z,-1.6878369999999998,1.1557520000000001,-1.035409
2019-05-23T04:12:17.710636Z,0.19858900000000002,0.352519,0.659867
2019-05-23T04:12:17.782636Z,-0.20286500000000002,-0.295107,1.10017
2019-05-23T04:12:17.791636Z,-0.817525,-0.43824799999999997,1.197978
2019-05-23T04:12:17.830636Z,0.24033000000000002,-0.498808,0.665561
2019-05-23T04:12:17.870636Z,0.899816,0.355003,-0.295155
2019-05-23T04:12:17.910636Z,1.213108,0.49695200000000006,-0.377279
2019-05-23T04:12:17.951636Z,0.941522,0.369542,0.472832
2019-05-23T04:12:17.992636Z,0.266482,0.103129,0.70614
2019-05-23T04:12:18.033636Z,0.541971,-0.17657899999999999,0.764703
2019-05-23T04:12:18.071636Z,0.141965,-0.395347,-0.20365999999999998
2019-05-23T04:12:18.114636Z,-0.068227,-0.385653,0.159676
2019-05-23T04:12:18.153636Z,0.131214,-0.656974,0.27328
2019-05-23T04:12:18.193636Z,-0.092708,-0.046093,-0.533061
2019-05-23T04:12:18.233636Z,-0.42246300000000003,0.147546,-0.770047
2019-05-23T04:12:18.271636Z,-0.455608,0.205154,-0.785751
2019-05-23T04:12:18.311636Z,-0.870367,0.553959,-1.161937
2019-05-23T04:12:18.351636Z,-0.9046209999999999,0.423824,-0.210483
2019-05-23T04:12:18.392636Z,-1.277665,0.47158999999999995,-0.216498
2019-05-23T04:12:18.431636Z,-0.764158,0.079553,0.22668600000000003
2019-05-23T04:12:18.471636Z,-0.809167,-0.300065,0.153952
2019-05-23T04:12:18.512636Z,-1.032474,-0.389879,0.221848
2019-05-23T04:12:18.552636Z,-0.365822,-0.40141,0.276187
2019-05-23T04:12:18.591636Z,0.46426300000000004,0.296446,0.018948
2019-05-23T04:12:18.633636Z,0.642968,0.324498,-0.023066999999999997
2019-05-23T04:12:18.675636Z,0.205091,-0.059337,0.126317
2019-05-23T04:12:18.713636Z,0.331635,0.041152,-0.072304
2019-05-23T04:12:18.754636Z,0.529572,0.088314,-0.10869100000000001
2019-05-23T04:12:18.793636Z,0.152477,0.004398,-0.163365
2019-05-23T04:12:18.831636Z,0.190829,0.056503,0.069853
2019-05-23T04:12:18.876636Z,0.203296,-0.007478,0.092801
2019-05-23T04:12:18.925636Z,-0.33697699999999997,0.027936000000000002,0.021927000000000002
2019-05-23T04:12:18.951636Z,-0.08783099999999999,-0.302765,-0.22690900000000003
2019-05-23T04:12:18.991636Z,-0.18333,-0.29039,-0.21730300000000002
2019-05-23T04:12:19.031636Z,-0.173821,-0.387829,0.12853
2019-05-23T04:12:19.072636Z,-0.273554,-0.293566,0.45614399999999994
2019-05-23T04:12:19.114636Z,-0.298066,-0.355563,0.480659
2019-05-23T04:12:19.152636Z,0.226131,-0.11784000000000001,0.42193
2019-05-23T04:12:19.193636Z,0.22460100000000002,-0.036653,-0.001734
2019-05-23T04:12:19.235636Z,0.24365,-0.090655,0.020819
2019-05-23T04:12:19.275636Z,0.07029500000000001,-0.143713,-0.1658
2019-05-23T04:12:19.316636Z,0.30877899999999997,-0.107307,-0.305279
2019-05-23T04:12:19.353636Z,0.385391,-0.131002,-0.296166
2019-05-23T04:12:19.395636Z,-0.028004,0.487779,-0.031087
2019-05-23T04:12:19.433636Z,0.30175599999999997,0.23569600000000002,-0.478642
2019-05-23T04:12:19.474636Z,0.444028,0.178452,-0.454471
2019-05-23T04:12:19.516636Z,-0.137264,0.252198,-0.11068599999999999
2019-05-23T04:12:19.556636Z,-0.552802,0.250391,0.3646
2019-05-23T04:12:19.596636Z,-0.5805060000000001,0.0973,0.44024300000000005
2019-05-23T04:12:19.634636Z,-0.320472,0.29691100000000004,0.391468
2019-05-23T04:12:19.674636Z,-0.019261,0.839317,-0.588924
2019-05-23T04:12:19.717636Z,0.133655,0.7519520000000001,-0.535239
2019-05-23T04:12:19.756636Z,-0.536656,0.402792,-0.15545
2019-05-23T04:12:19.794636Z,0.193927,0.289483,-0.93029
2019-05-23T04:12:19.835636Z,0.34771399999999997,0.25067399999999995,-0.889333
2019-05-23T04:12:19.876636Z,0.356966,0.273622,-0.8210049999999999
2019-05-23T04:12:19.918636Z,0.184613,0.607629,-1.301974
2019-05-23T04:12:19.956636Z,0.250515,0.600158,-1.276859
2019-05-23T04:12:19.996636Z,0.32424400000000003,1.379767,-1.530243
2019-05-23T04:12:20.033636Z,0.979535,0.752035,0.050276
2019-05-23T04:12:20.072636Z,1.160615,0.729654,0.075019
2019-05-23T04:12:20.114636Z,-0.06275499999999999,0.91522,1.220382
2019-05-23T04:12:20.175636Z,-0.460218,-0.333744,-0.133595
2019-05-23T04:12:20.194636Z,-0.899623,-0.262556,-0.218027
2019-05-23T04:12:20.232636Z,0.724151,0.11271400000000001,0.897741
2019-05-23T04:12:20.272636Z,0.713268,-1.79112,2.461267
2019-05-23T04:12:20.312636Z,0.748482,-1.729659,2.401982
2019-05-23T04:12:20.353636Z,0.019533000000000002,-0.856453,-0.372948
2019-05-23T04:12:20.393636Z,1.640338,-1.246112,0.581857
2019-05-23T04:12:20.433636Z,1.5348389999999998,-1.158917,0.532734
2019-05-23T04:12:20.474636Z,1.7727979999999999,-1.201729,0.5110859999999999
2019-05-23T04:12:20.514636Z,1.9550049999999999,-0.633506,-0.077426
2019-05-23T04:12:20.560636Z,1.887425,-0.5972310000000001,-0.08996699999999999
2019-05-23T04:12:20.595636Z,1.6462400000000001,-0.902373,-0.01768
2019-05-23T04:12:20.633636Z,1.012701,-1.224573,0.235665
2019-05-23T04:12:20.673636Z,0.9271360000000001,-1.1557819999999999,0.20749499999999999
2019-05-23T04:12:20.715636Z,0.5008020000000001,-1.358335,1.122815
2019-05-23T04:12:20.753636Z,1.290632,-1.334915,1.248456
2019-05-23T04:12:20.793636Z,1.255681,-1.335988,1.24261
2019-05-23T04:12:20.833636Z,1.041647,-0.801517,-0.25971900000000003
2019-05-23T04:12:20.872636Z,0.578166,-1.2864870000000002,1.380141
2019-05-23T04:12:20.914636Z,0.7040310000000001,-1.323542,1.381745
2019-05-23T04:12:20.955636Z,-0.45632799999999996,-1.050214,0.36356700000000003
2019-05-23T04:12:20.994636Z,0.300011,-0.719569,-0.081972
2019-05-23T04:12:21.036636Z,0.31269,-0.67932,-0.097811
2019-05-23T04:12:21.075636Z,0.41351099999999996,-0.449667,0.24354099999999998
2019-05-23T04:12:21.117636Z,-0.219788,-0.49416000000000004,0.20409000000000002
2019-05-23T04:12:21.155636Z,-0.185003,-0.554493,0.237387
2019-05-23T04:12:21.196636Z,-0.291088,-0.491278,0.174773
2019-05-23T04:12:21.235636Z,-1.295587,-0.330928,0.6120909999999999
2019-05-23T04:12:21.275636Z,-1.42261,-0.50257,0.721783
2019-05-23T04:12:21.318636Z,-1.473697,-0.78117,1.7402400000000002
2019-05-23T04:12:21.355636Z,-0.438717,-0.896184,0.9031969999999999
2019-05-23T04:12:21.396636Z,-0.44208100000000006,-0.8651340000000001,0.87766
2019-05-23T04:12:21.436636Z,-0.410545,-0.650133,1.439314
2019-05-23T04:12:21.476636Z,-0.28308099999999997,-1.456964,0.209317
2019-05-23T04:12:21.515636Z,-0.215033,-1.4575040000000001,0.221546
2019-05-23T04:12:21.556636Z,-1.465027,-1.316923,-0.254177
2019-05-23T04:12:21.595636Z,-0.43349,-2.02978,1.968392
2019-05-23T04:12:21.636636Z,-0.250203,-1.9893830000000001,1.9287459999999998
2019-05-23T04:12:21.676636Z,-0.347064,-1.6574939999999998,0.31355500000000003
2019-05-23T04:12:21.717636Z,0.055229999999999994,-1.300781,0.102287
2019-05-23T04:12:21.755636Z,0.06589099999999999,-1.299449,0.114324
2019-05-23T04:12:21.795636Z,0.131114,-1.042078,0.11068199999999999
2019-05-23T04:12:21.836636Z,0.199561,-0.727468,0.6941229999999999
2019-05-23T04:12:21.876636Z,0.224498,-0.753981,0.708581
2019-05-23T04:12:21.916636Z,-0.171815,-0.667312,0.150704
2019-05-23T04:12:21.956636Z,-0.068787,-0.298767,-0.11906099999999999
2019-05-23T04:12:21.997636Z,-0.07484,-0.32187,-0.098731
2019-05-23T04:12:22.035636Z,0.32555700000000004,-0.206391,0.31611999999999996
2019-05-23T04:12:22.074636Z,-0.27658699999999997,-0.145038,-0.011152
2019-05-23T04:12:22.171636Z,-0.192184,-0.190617,0.026389
2019-05-23T04:12:22.172636Z,0.5177229999999999,0.264781,0.195082
2019-05-23T04:12:22.207636Z,0.450903,-0.787963,0.75671
2019-05-23T04:12:22.234636Z,0.590626,-0.640139,0.66391
2019-05-23T04:12:22.274636Z,1.678336,-1.4461870000000001,2.126462
2019-05-23T04:12:22.316636Z,1.768982,-1.5902120000000002,0.727402
2019-05-23T04:12:22.355636Z,1.602306,-1.530366,0.685076
2019-05-23T04:12:22.396636Z,1.919446,-1.258424,0.42473299999999997
2019-05-23T04:12:22.435636Z,1.959682,-1.578633,0.801527
2019-05-23T04:12:22.475636Z,1.879832,-1.641456,0.840822
2019-05-23T04:12:22.538636Z,1.461224,-1.6568580000000002,0.144965
2019-05-23T04:12:22.554636Z,0.9331870000000001,-1.583382,-0.595849
2019-05-23T04:12:22.595636Z,0.816821,-1.514275,-0.612029
2019-05-23T04:12:22.636636Z,1.067912,-1.430256,-0.41012600000000005
2019-05-23T04:12:22.675636Z,0.9299799999999999,-1.174557,1.0829950000000002
2019-05-23T04:12:22.721636Z,0.993139,-1.059182,1.009279
2019-05-23T04:12:22.755636Z,0.7378279999999999,-0.17416199999999998,0.577396
2019-05-23T04:12:22.795636Z,0.721723,0.217982,0.533192
2019-05-23T04:12:22.836636Z,0.794351,0.267704,0.49331099999999994
2019-05-23T04:12:22.875636Z,0.6202840000000001,0.16833299999999998,0.43854
2019-05-23T04:12:22.917636Z,-0.299745,0.265669,0.921284
2019-05-23T04:12:22.956636Z,-0.31518,0.234587,0.919286
2019-05-23T04:12:22.996636Z,-0.42931199999999997,-0.054055,1.3161049999999999
2019-05-23T04:12:23.037636Z,-0.108054,-0.443959,0.491199
2019-05-23T04:12:23.076636Z,-0.16472699999999998,-0.317263,0.423284
2019-05-23T04:12:23.119636Z,-0.12834600000000002,-1.130099,1.696881
2019-05-23T04:12:23.157636Z,-0.24536999999999998,-1.7686939999999998,1.119873
2019-05-23T04:12:23.196636Z,-0.140029,-1.821967,1.143825
2019-05-23T04:12:23.237636Z,-0.370314,-1.435224,-0.040777
2019-05-23T04:12:23.277636Z,-0.08015900000000001,-1.636335,-0.186643
2019-05-23T04:12:23.319636Z,-0.042082,-1.650624,-0.161107
2019-05-23T04:12:23.357636Z,-0.125411,-1.85805,0.645857
2019-05-23T04:12:23.398636Z,0.47295200000000004,-1.833739,-0.036252
2019-05-23T04:12:23.435636Z,0.87855,-1.8098759999999998,0.011273
2019-05-23T04:12:23.476636Z,0.24863200000000002,-1.1686,-1.364276
2019-05-23T04:12:23.554636Z,0.6248239999999999,-0.783543,0.520833
2019-05-23T04:12:23.567636Z,0.653116,-0.62897,0.448042
2019-05-23T04:12:23.595636Z,0.5303770000000001,-0.618618,-0.039501
2019-05-23T04:12:23.635636Z,1.385566,-0.06459,1.133306
2019-05-23T04:12:23.676636Z,1.456827,0.05358400000000001,1.076699
2019-05-23T04:12:23.718636Z,2.12989,0.648483,1.456955
2019-05-23T04:12:23.756636Z,1.7378470000000001,-0.420203,1.8469520000000001
2019-05-23T04:12:23.796636Z,1.6713220000000002,-0.587184,1.885818
2019-05-23T04:12:23.836636Z,0.390617,-1.925984,1.058474
2019-05-23T04:12:23.877636Z,0.37353200000000003,-1.9658330000000002,-0.059587
2019-05-23T04:12:23.921636Z,-0.12992,-1.893657,-0.12806700000000001
2019-05-23T04:12:23.956636Z,0.536098,-2.718076,3.012219
2019-05-23T04:12:23.996636Z,2.0171200000000002,-2.429231,1.059002
2019-05-23T04:12:24.037636Z,2.0857099999999997,-2.352839,1.026409
2019-05-23T04:12:24.076636Z,1.9369150000000002,-2.12033,-0.284034
2019-05-23T04:12:24.119636Z,1.129794,-2.427306,-0.139277
2019-05-23T04:12:24.156636Z,0.950577,-2.393118,-0.133615
2019-05-23T04:12:24.197636Z,1.113521,-1.543213,-0.041194999999999996
2019-05-23T04:12:24.237636Z,0.8814,-1.16493,-0.18299300000000002
2019-05-23T04:12:24.276636Z,0.879142,-1.078614,-0.20938400000000001
2019-05-23T04:12:24.321636Z,0.405559,-0.7067859999999999,0.364725
2019-05-23T04:12:24.357636Z,0.637415,-0.136081,1.090214
2019-05-23T04:12:24.398636Z,0.703488,-0.18809700000000001,1.094754
2019-05-23T04:12:24.438636Z,0.5666800000000001,0.0008640000000000001,1.249789
2019-05-23T04:12:24.477636Z,0.67115,0.053347000000000006,1.481219
2019-05-23T04:12:24.519636Z,0.829161,-0.16409,1.563701
2019-05-23T04:12:24.558636Z,0.578962,-0.278976,0.922861
2019-05-23T04:12:24.598636Z,0.39666799999999997,-0.648014,0.315768
2019-05-23T04:12:24.638636Z,0.479559,-0.652613,0.325723
2019-05-23T04:12:24.678636Z,-0.33726799999999996,-1.535801,1.563848
2019-05-23T04:12:24.718636Z,0.113201,-1.6677790000000001,1.0933
2019-05-23T04:12:24.758636Z,0.20335999999999999,-1.899889,1.247102
2019-05-23T04:12:24.798636Z,0.249633,-1.307796,-0.600713
2019-05-23T04:12:24.838636Z,0.219606,-1.648265,-0.182927
2019-05-23T04:12:24.876636Z,0.42224700000000004,-1.572241,-0.17013699999999998
2019-05-23T04:12:24.987636Z,-0.197294,-1.47987,-0.928945
2019-05-23T04:12:24.989636Z,-0.8799610000000001,-1.2266860000000002,-0.548733
2019-05-23T04:12:25.001636Z,-1.207762,-1.227174,-0.592975
2019-05-23T04:12:25.036636Z,-1.2634020000000001,-0.63894,-0.752297
2019-05-23T04:12:25.077636Z,-0.13215,-0.047758999999999996,-0.361738
2019-05-23T04:12:25.119636Z,-0.16688499999999998,0.092334,-0.44014200000000003
2019-05-23T04:12:25.159636Z,-0.11024,0.24491300000000002,0.134765
2019-05-23T04:12:25.198636Z,0.07953500000000001,0.029375,0.542989
2019-05-23T04:12:25.239636Z,0.134597,0.030375,0.53935
2019-05-23T04:12:25.277636Z,0.038821,0.16947,0.045373000000000004
2019-05-23T04:12:25.335636Z,0.273418,0.655405,0.902083
2019-05-23T04:12:25.357636Z,0.298504,0.6422,0.8915049999999999
2019-05-23T04:12:25.397636Z,-0.411871,0.901307,-0.601622
2019-05-23T04:12:25.439636Z,-0.079226,0.304044,1.258491
2019-05-23T04:12:25.479636Z,-0.605224,0.43971800000000005,1.177439
2019-05-23T04:12:25.518636Z,1.353925,-2.324332,3.676411
2019-05-23T04:12:25.557636Z,0.371463,-1.629721,0.095547
2019-05-23T04:12:25.597636Z,0.250807,-1.7753169999999998,0.199714
2019-05-23T04:12:25.639636Z,1.518623,-1.057607,-0.545503
2019-05-23T04:12:25.677636Z,0.029162999999999998,-1.362464,-0.630301
2019-05-23T04:12:25.720636Z,0.23076999999999998,-1.342443,-0.6336149999999999
2019-05-23T04:12:25.758636Z,0.098973,-1.162716,-0.41012600000000005
2019-05-23T04:12:25.799636Z,-0.19303599999999999,-0.658594,-0.9164180000000001
2019-05-23T04:12:25.838636Z,-0.159132,-0.6468,-0.9027069999999999
2019-05-23T04:12:25.878636Z,-0.22659899999999997,-0.197097,-0.642
2019-05-23T04:12:25.921636Z,-0.28080700000000003,0.023211000000000002,-0.052912
2019-05-23T04:12:25.960636Z,-0.288877,-0.042024,-0.01529
2019-05-23T04:12:25.999636Z,0.27355300000000005,0.37956,0.24684499999999998
2019-05-23T04:12:26.040636Z,0.376972,0.710346,-0.031669
2019-05-23T04:12:26.079636Z,0.45015,0.749333,-0.060892999999999996
2019-05-23T04:12:26.122636Z,-0.03442,1.029733,0.512798
2019-05-23T04:12:26.160636Z,0.359952,1.022032,1.274614
2019-05-23T04:12:26.200636Z,0.36131599999999997,0.975758,1.270053
2019-05-23T04:12:26.240636Z,0.14033299999999999,0.7750130000000001,0.607857
2019-05-23T04:12:26.280636Z,-0.081278,-0.827984,1.806124
2019-05-23T04:12:26.319636Z,-0.0401,-0.9020309999999999,1.8242490000000002
2019-05-23T04:12:26.360636Z,0.204857,-1.220025,0.8903549999999999
2019-05-23T04:12:26.400636Z,-0.493802,-1.6247340000000001,-0.128195
2019-05-23T04:12:26.439636Z,-0.6127729999999999,-1.647843,-0.091528
2019-05-23T04:12:26.479636Z,0.0955,-1.697959,0.061099
2019-05-23T04:12:26.522636Z,0.28101,-1.483571,-0.172188
2019-05-23T04:12:26.559636Z,0.40016399999999996,-1.4295129999999998,-0.19028499999999998
2019-05-23T04:12:26.599636Z,0.485335,-1.156115,0.10625799999999999
2019-05-23T04:12:26.640636Z,0.07485800000000001,-0.8458610000000001,-0.679591
2019-05-23T04:12:26.679636Z,0.01695,-0.8239489999999999,-0.6715260000000001
2019-05-23T04:12:26.721636Z,0.321469,-0.432093,0.272969
2019-05-23T04:12:26.760636Z,0.049462,0.04885,0.38192
2019-05-23T04:12:26.800636Z,0.172552,0.021075,0.39109
2019-05-23T04:12:26.840636Z,0.22594099999999998,0.200533,0.45016999999999996
2019-05-23T04:12:26.881636Z,0.514321,0.48428999999999994,-0.073241
2019-05-23T04:12:26.919636Z,0.5463560000000001,0.370341,-0.007319
2019-05-23T04:12:26.958636Z,0.208058,0.681353,0.41438800000000003
2019-05-23T04:12:26.999636Z,0.515839,0.377345,-0.9550799999999999
2019-05-23T04:12:27.039636Z,0.368765,0.605353,-1.084327
2019-05-23T04:12:27.080636Z,0.302939,-0.9474940000000001,2.605745
2019-05-23T04:12:27.119636Z,0.519009,-0.7931090000000001,1.026399
2019-05-23T04:12:27.159636Z,0.499096,-0.772443,1.004804
2019-05-23T04:12:27.199636Z,0.620423,-1.132136,0.061502
2019-05-23T04:12:27.239636Z,0.35388000000000003,-1.227963,-0.429609
2019-05-23T04:12:27.279636Z,0.42474300000000004,-1.1985780000000001,-0.425692
2019-05-23T04:12:27.319636Z,0.24891999999999997,-0.813148,-1.06131
2019-05-23T04:12:27.361636Z,0.265201,-0.417687,-1.1704649999999999
2019-05-23T04:12:27.399636Z,0.28953,-0.395294,-1.158783
2019-05-23T04:12:27.440636Z,0.133643,-0.043641,-0.577332
2019-05-23T04:12:27.479636Z,-0.20666500000000002,0.2218,-0.33677399999999996
2019-05-23T04:12:27.520636Z,-0.302175,0.271399,-0.364782
2019-05-23T04:12:27.596636Z,-0.299091,0.992778,0.572079
2019-05-23T04:12:27.611636Z,-0.6343340000000001,1.1082889999999999,1.021046
2019-05-23T04:12:27.650636Z,-0.769658,1.031627,1.035686
2019-05-23T04:12:27.679636Z,0.463451,1.099391,1.454644
2019-05-23T04:12:27.721636Z,-0.037316,0.5420229999999999,-0.201383
2019-05-23T04:12:27.760636Z,-0.154645,0.579824,-0.22517199999999998
2019-05-23T04:12:27.800636Z,0.474516,-1.008348,2.347244
2019-05-23T04:12:27.840636Z,0.179311,-1.301157,0.744661
2019-05-23T04:12:27.882636Z,0.23649099999999998,-1.32759,0.76158
2019-05-23T04:12:27.919636Z,0.5014649999999999,-1.399915,-0.513944
2019-05-23T04:12:27.959636Z,0.248693,-1.146909,-0.7701979999999999
2019-05-23T04:12:27.999636Z,0.220047,-1.0118770000000001,-0.822801
2019-05-23T04:12:28.040636Z,-0.41384499999999996,-0.37848000000000004,-1.591344
2019-05-23T04:12:28.086636Z,0.016224000000000002,-0.198875,-0.095523
2019-05-23T04:12:28.120636Z,-0.263676,-0.201006,-0.077782
2019-05-23T04:12:28.162636Z,-0.374013,-0.198878,-0.20113499999999998
2019-05-23T04:12:28.200636Z,0.546475,0.706082,0.563372
2019-05-23T04:12:28.241636Z,0.685376,0.667419,0.555385
2019-05-23T04:12:28.280636Z,0.741242,1.1507100000000001,-0.23935700000000001
2019-05-23T04:12:28.320636Z,0.387542,0.696554,0.839551
2019-05-23T04:12:28.360636Z,0.257844,0.562513,0.8983610000000001
2019-05-23T04:12:28.401636Z,0.796431,0.293584,1.332108
2019-05-23T04:12:28.441636Z,0.854442,0.049986,0.220914
2019-05-23T04:12:28.482636Z,0.823471,0.244977,0.118995
2019-05-23T04:12:28.524636Z,1.327949,-1.2510299999999999,3.018684
2019-05-23T04:12:28.561636Z,0.642972,-1.352396,0.118324
2019-05-23T04:12:28.602636Z,0.583704,-1.398788,0.154669
2019-05-23T04:12:28.642636Z,1.054002,-0.9864629999999999,-0.9358049999999999
2019-05-23T04:12:28.681636Z,0.44396499999999994,-1.218689,-0.691228
2019-05-23T04:12:28.724636Z,0.492638,-1.20702,-0.6781229999999999
2019-05-23T04:12:28.762636Z,0.502213,-0.919417,-0.6355390000000001
2019-05-23T04:12:28.802636Z,0.5899939999999999,-0.46084200000000003,-0.745961
2019-05-23T04:12:28.842636Z,0.628302,-0.450738,-0.736877
2019-05-23T04:12:28.880636Z,0.48992299999999994,-0.23652800000000002,-0.5290279999999999
2019-05-23T04:12:28.924636Z,0.240067,-0.056587,0.457958
2019-05-23T04:12:28.961636Z,0.30248,-0.1073,0.476047
2019-05-23T04:12:29.002636Z,0.22691599999999998,-0.102358,0.455266
2019-05-23T04:12:29.040636Z,-0.034582,0.514261,0.455214
2019-05-23T04:12:29.134636Z,0.026704000000000002,0.502324,0.448122
2019-05-23T04:12:29.135636Z,1.162266,0.6661060000000001,0.846124
2019-05-23T04:12:29.163636Z,-0.265957,-0.163363,1.370211
2019-05-23T04:12:29.201636Z,-0.43583,-0.217698,1.3836110000000001
2019-05-23T04:12:29.241636Z,0.927983,-0.9140280000000001,1.7003119999999998
2019-05-23T04:12:29.282636Z,0.8346100000000001,-1.155131,0.6237689999999999
2019-05-23T04:12:29.321636Z,0.855709,-1.140752,0.614057
2019-05-23T04:12:29.361636Z,0.604563,-1.236458,-0.38429800000000003
2019-05-23T04:12:29.403636Z,0.19275499999999998,-0.9032629999999999,-1.041615
2019-05-23T04:12:29.442636Z,-0.010998,-0.8861209999999999,-1.010186
2019-05-23T04:12:29.491636Z,0.034575,-0.45539300000000005,-0.577063
2019-05-23T04:12:29.522636Z,0.011784000000000001,-0.363387,0.032697000000000004
2019-05-23T04:12:29.562636Z,0.078111,-0.30495700000000003,-0.0016899999999999999
2019-05-23T04:12:29.603636Z,0.181726,0.071752,0.741052
2019-05-23T04:12:29.641636Z,0.082048,0.592512,-0.23558800000000002
2019-05-23T04:12:29.682636Z,0.043197,0.5373479999999999,-0.20435
2019-05-23T04:12:29.723636Z,0.177235,0.9714139999999999,0.128227
2019-05-23T04:12:29.763636Z,-0.14441500000000002,0.703715,0.497676
2019-05-23T04:12:29.804636Z,-0.187626,0.6138319999999999,0.537467
2019-05-23T04:12:29.842636Z,-0.543084,0.196773,1.200811
2019-05-23T04:12:29.882636Z,-0.35217800000000005,-0.261364,-0.087103
2019-05-23T04:12:29.925636Z,-0.33410700000000004,-0.213312,-0.11214600000000001
2019-05-23T04:12:29.965636Z,0.065488,-1.208407,0.890618
2019-05-23T04:12:30.003636Z,-0.438687,-0.9802930000000001,-0.16359500000000002
2019-05-23T04:12:30.044636Z,-0.479677,-0.934751,-0.17144500000000001
2019-05-23T04:12:30.083636Z,-0.236932,-1.455667,0.498258
2019-05-23T04:12:30.125636Z,-0.64252,-0.9425459999999999,-0.031239
2019-05-23T04:12:30.164636Z,-0.516967,-0.9041450000000001,-0.052532
2019-05-23T04:12:30.204636Z,-0.568495,-0.615897,-0.6741010000000001
2019-05-23T04:12:30.244636Z,-0.32266300000000003,-0.190449,-0.7155239999999999
2019-05-23T04:12:30.283636Z,-0.309884,-0.197373,-0.698747
2019-05-23T04:12:30.326636Z,-0.131699,0.068381,-0.575912
2019-05-23T04:12:30.364636Z,-0.206587,0.212205,0.097295
2019-05-23T04:12:30.404636Z,-0.299914,0.15751600000000002,0.130325
2019-05-23T04:12:30.444636Z,-0.259996,0.171171,0.905634
2019-05-23T04:12:30.483636Z,-0.770293,-0.126088,0.784567
2019-05-23T04:12:30.526636Z,-0.606072,-0.22173,0.8159689999999999
2019-05-23T04:12:30.564636Z,-0.8227059999999999,-0.000798,-0.199483
2019-05-23T04:12:30.604636Z,-1.283739,-0.192269,2.387683
2019-05-23T04:12:30.644636Z,-1.1846370000000002,-0.240378,2.371573
2019-05-23T04:12:30.683636Z,-0.647721,-0.8366030000000001,1.403086
2019-05-23T04:12:30.726636Z,-0.673629,-0.629285,-0.028137
2019-05-23T04:12:30.762636Z,-0.42188400000000004,-0.613518,-0.024481
2019-05-23T04:12:30.802636Z,-1.000609,-0.39103899999999997,-0.540728
2019-05-23T04:12:30.842636Z,-0.5994550000000001,-0.707856,-0.546638
2019-05-23T04:12:30.882636Z,-0.346972,-0.718566,-0.50151
2019-05-23T04:12:30.925636Z,0.085603,-0.442614,-1.059167
2019-05-23T04:12:30.962636Z,0.45037,-0.001518,-1.1290069999999999
2019-05-23T04:12:31.002636Z,0.635562,0.137688,-1.152935
2019-05-23T04:12:31.086636Z,-1.203714,0.37051999999999996,-1.218305
2019-05-23T04:12:31.088636Z,-1.142895,0.9083100000000001,-0.820667
2019-05-23T04:12:31.124636Z,-1.3636190000000001,0.956787,-0.8810959999999999
2019-05-23T04:12:31.162636Z,-1.079281,1.12791,-0.47718599999999994
2019-05-23T04:12:31.204636Z,-1.056675,1.019647,0.5245
2019-05-23T04:12:31.243636Z,-1.17126,1.033056,0.48740900000000004
2019-05-23T04:12:31.283636Z,-0.508242,0.7214510000000001,1.55077
2019-05-23T04:12:31.323636Z,0.12527,0.130173,0.893025
2019-05-23T04:12:31.363636Z,0.142676,0.12202,0.8825149999999999
2019-05-23T04:12:31.403636Z,1.019253,-1.0294940000000001,1.3115430000000001
2019-05-23T04:12:31.445636Z,1.145024,-1.027987,0.168355
2019-05-23T04:12:31.483636Z,1.323225,-0.932025,0.15073
2019-05-23T04:12:31.524636Z,0.818415,-0.848131,-0.18269000000000002
2019-05-23T04:12:31.564636Z,0.40577399999999997,-0.334,-0.913508
2019-05-23T04:12:31.604636Z,0.127342,-0.200096,-0.974524
2019-05-23T04:12:31.642636Z,0.555094,-0.312671,-1.042876
2019-05-23T04:12:31.682636Z,0.230871,-0.13711600000000002,-1.016781
2019-05-23T04:12:31.723636Z,0.047858,-0.0774,-1.020203
2019-05-23T04:12:31.763636Z,0.911479,-0.098968,-0.75008
2019-05-23T04:12:31.803636Z,1.759956,0.6858310000000001,0.026349
2019-05-23T04:12:31.844636Z,1.845203,0.745938,0.000648
2019-05-23T04:12:31.884636Z,0.9511719999999999,1.175201,0.017991999999999998
2019-05-23T04:12:31.925636Z,0.683014,0.9071309999999999,1.595337
2019-05-23T04:12:31.964636Z,0.648281,0.755046,1.622322
2019-05-23T04:12:32.003636Z,0.680864,0.340252,0.942875
2019-05-23T04:12:32.042636Z,1.0120040000000001,0.16356400000000001,1.568175
2019-05-23T04:12:32.083636Z,0.935699,0.12434500000000001,1.559231
2019-05-23T04:12:32.124636Z,1.114141,-1.3176709999999998,1.8678860000000002
2019-05-23T04:12:32.162636Z,0.9459549999999999,-1.858255,0.725492
2019-05-23T04:12:32.202636Z,1.2170290000000001,-1.9573099999999999,0.777252
2019-05-23T04:12:32.243636Z,1.0616459999999999,-1.479358,-0.74317
2019-05-23T04:12:32.283636Z,1.2137120000000001,-1.199441,-0.47123000000000004
2019-05-23T04:12:32.323636Z,1.198542,-1.260163,-0.42485
2019-05-23T04:12:32.363636Z,1.046977,-0.883933,-1.303392
2019-05-23T04:12:32.420636Z,1.5431979999999998,-0.5040979999999999,0.813303
2019-05-23T04:12:32.448636Z,1.3912579999999999,-0.47004300000000004,0.786592
2019-05-23T04:12:32.483636Z,1.121428,-1.180146,1.068533
2019-05-23T04:12:32.524636Z,2.081484,-1.702343,1.40642
2019-05-23T04:12:32.564636Z,1.886411,-1.7363169999999999,1.420996
2019-05-23T04:12:32.604636Z,1.9814919999999998,-2.331323,1.7140389999999999
2019-05-23T04:12:32.648636Z,1.7406599999999999,-2.929582,1.1025610000000001
2019-05-23T04:12:32.684636Z,1.491195,-2.89373,1.11296
2019-05-23T04:12:32.728636Z,2.052746,-3.1906779999999997,2.2926740000000003
2019-05-23T04:12:32.780636Z,2.069019,-3.651507,2.05295
2019-05-23T04:12:32.804636Z,2.030221,-3.5793,2.0140860000000003
2019-05-23T04:12:32.845636Z,1.603705,-3.22165,1.996032
2019-05-23T04:12:32.884636Z,2.5275819999999998,-2.677479,1.8345349999999998
2019-05-23T04:12:32.925636Z,2.501834,-2.7561299999999997,1.860396
2019-05-23T04:12:32.965636Z,2.067013,-2.653921,0.693016
2019-05-23T04:12:33.004636Z,0.927723,-2.4962009999999997,0.0029530000000000003
2019-05-23T04:12:33.045636Z,0.9599200000000001,-2.5230240000000004,0.028916000000000004
2019-05-23T04:12:33.085636Z,-0.40443,-2.306031,0.281064
2019-05-23T04:12:33.126636Z,-1.031153,-1.774576,-0.050151
2019-05-23T04:12:33.164636Z,-0.8017,-1.711964,-0.092734
2019-05-23T04:12:33.205636Z,-0.987814,-1.264159,0.006011
2019-05-23T04:12:33.245636Z,-1.25095,-1.162217,0.9725
2019-05-23T04:12:33.284636Z,-1.158228,-1.3649229999999999,1.066812
2019-05-23T04:12:33.325636Z,-1.1269879999999999,-1.035015,0.923216
2019-05-23T04:12:33.365636Z,-1.611423,-0.9853799999999999,2.974555
2019-05-23T04:12:33.406636Z,-1.351905,-1.11981,3.001804
2019-05-23T04:12:33.446636Z,-1.781537,-2.318623,2.224247
2019-05-23T04:12:33.484636Z,-1.5327600000000001,-1.906033,0.225944
2019-05-23T04:12:33.524636Z,-1.403591,-1.869266,0.22034
2019-05-23T04:12:33.564636Z,-0.38019400000000003,-1.943391,-0.158105
2019-05-23T04:12:33.605636Z,0.331753,-1.928936,0.424814
2019-05-23T04:12:33.645636Z,0.35291100000000003,-1.854228,0.394009
2019-05-23T04:12:33.685636Z,0.912482,-1.285668,0.233302
2019-05-23T04:12:33.728636Z,1.044877,-1.0089860000000002,-0.052243
2019-05-23T04:12:33.767636Z,1.1666530000000002,-0.9045989999999999,-0.085889
2019-05-23T04:12:33.806636Z,0.48676099999999994,-0.109826,-0.161357
2019-05-23T04:12:33.846636Z,0.862942,0.179893,-0.311825
2019-05-23T04:12:33.887636Z,0.855266,0.286182,-0.361444
2019-05-23T04:12:33.931636Z,0.512508,0.121001,0.26045799999999997
2019-05-23T04:12:33.967636Z,0.520207,-0.520219,1.7923310000000001
2019-05-23T04:12:34.007636Z,0.48286899999999994,-0.673922,1.8413279999999999
2019-05-23T04:12:34.046636Z,0.646844,-0.9006549999999999,0.716259
2019-05-23T04:12:34.087636Z,0.5908260000000001,-0.9276909999999999,0.900918
2019-05-23T04:12:34.126636Z,0.616325,-0.8981299999999999,0.881149
2019-05-23T04:12:34.165636Z,0.5038050000000001,-2.052381,1.093445
2019-05-23T04:12:34.206636Z,0.331966,-0.732388,-0.43696499999999994
2019-05-23T04:12:34.285636Z,0.399954,-0.726643,-0.422443
2019-05-23T04:12:34.286636Z,0.785346,-1.223388,-0.9078649999999999
2019-05-23T04:12:34.333636Z,-0.139533,-1.047675,-0.106832
2019-05-23T04:12:34.365636Z,-0.175484,-1.083474,-0.081817
2019-05-23T04:12:34.406636Z,0.37026,-0.680532,-0.6999529999999999
2019-05-23T04:12:34.446636Z,0.163186,-0.462613,-0.257524
2019-05-23T04:12:34.487636Z,0.140183,-0.444275,-0.259414
2019-05-23T04:12:34.527636Z,0.145807,-0.29422600000000004,0.190636
2019-05-23T04:12:34.566636Z,0.22591799999999998,0.140388,0.037636
2019-05-23T04:12:34.606636Z,0.172272,0.11975699999999999,0.043253
2019-05-23T04:12:34.652636Z,0.32474699999999995,0.600861,0.419541
2019-05-23T04:12:34.686636Z,0.26047,0.459053,0.8373860000000001
2019-05-23T04:12:34.728636Z,0.21559499999999998,0.372324,0.861535
2019-05-23T04:12:34.766636Z,-0.340946,0.075654,0.834781
2019-05-23T04:12:34.806636Z,-0.066285,-0.147482,0.407659
2019-05-23T04:12:34.846636Z,-0.123293,-0.036024,0.34386
2019-05-23T04:12:34.886636Z,0.157914,-1.002026,2.082088
2019-05-23T04:12:34.926636Z,-0.136903,-1.048076,0.17474800000000001
2019-05-23T04:12:34.967636Z,-0.132994,-1.022957,0.168174
2019-05-23T04:12:35.007636Z,-0.134099,-1.10135,-0.432381
2019-05-23T04:12:35.046636Z,-0.26514299999999996,-0.44365200000000005,-0.749396
2019-05-23T04:12:35.086636Z,-0.46758599999999995,-0.218873,-0.838354
2019-05-23T04:12:35.125636Z,0.123201,-0.724005,0.041907
2019-05-23T04:12:35.166636Z,0.17260799999999998,-0.312153,-1.081867
2019-05-23T04:12:35.246636Z,0.085427,-0.403481,-1.0214020000000001
2019-05-23T04:12:35.262636Z,-0.139631,-0.332663,0.017866999999999997
2019-05-23T04:12:35.286636Z,-0.385794,-0.09188400000000001,0.8992620000000001
2019-05-23T04:12:35.326636Z,-0.47768299999999997,-0.261957,0.975413
2019-05-23T04:12:35.366636Z,0.6206470000000001,0.014325,0.085066
2019-05-23T04:12:35.407636Z,-0.007376000000000001,0.057682000000000004,1.757982
2019-05-23T04:12:35.450636Z,0.039298,-0.058873,1.786741
2019-05-23T04:12:35.487636Z,0.870084,-0.45341899999999996,0.651011
2019-05-23T04:12:35.526636Z,1.066946,-0.8463620000000001,1.873889
2019-05-23T04:12:35.568636Z,1.220199,-0.8738799999999999,1.856391
2019-05-23T04:12:35.606636Z,1.196744,-1.823655,0.73035
2019-05-23T04:12:35.648636Z,1.492813,-1.217671,-0.013965
2019-05-23T04:12:35.687636Z,1.536159,-1.3492959999999998,0.06448200000000001
2019-05-23T04:12:35.727636Z,0.9912719999999999,-1.107164,-1.006168
2019-05-23T04:12:35.771636Z,0.382232,-1.1307719999999999,-1.415525
2019-05-23T04:12:35.806636Z,0.5417069999999999,-1.115178,-1.383213
2019-05-23T04:12:35.846636Z,0.320467,-0.364181,-0.815492
2019-05-23T04:12:35.887636Z,-0.48984300000000003,-0.354071,-0.46706000000000003
2019-05-23T04:12:35.928636Z,-0.588739,-0.24013,-0.523053
2019-05-23T04:12:35.967636Z,-0.796918,0.570136,1.0488870000000001
2019-05-23T04:12:36.007636Z,-0.188116,0.766666,1.472317
2019-05-23T04:12:36.048636Z,-0.27328,0.681297,1.481898
2019-05-23T04:12:36.088636Z,0.539061,0.618794,1.560129
2019-05-23T04:12:36.132636Z,0.507549,-0.101114,1.070906
2019-05-23T04:12:36.169636Z,0.5164449999999999,-0.170125,1.092148
2019-05-23T04:12:36.208636Z,0.25659099999999996,-0.676132,1.3119809999999998
2019-05-23T04:12:36.248636Z,0.7198140000000001,-1.908459,-0.016928
2019-05-23T04:12:36.289636Z,0.8207620000000001,-1.937403,0.024361
2019-05-23T04:12:36.330636Z,0.452233,-1.76377,-0.5264220000000001
2019-05-23T04:12:36.366636Z,-0.009608,-1.039001,-1.0373569999999999
2019-05-23T04:12:36.439636Z,-0.077703,-0.941751,-1.071443
2019-05-23T04:12:36.457636Z,0.29762,-0.8363729999999999,-0.91289
2019-05-23T04:12:36.501636Z,-0.008142,-0.494605,-0.5039899999999999
2019-05-23T04:12:36.528636Z,-0.100601,-0.5753659999999999,-0.448035
2019-05-23T04:12:36.568636Z,-0.120012,-0.37316900000000003,-0.650894
2019-05-23T04:12:36.608636Z,-0.203879,-0.056089,-0.233785
2019-05-23T04:12:36.651636Z,-0.287288,-0.103348,-0.20081
2019-05-23T04:12:36.688636Z,-0.666916,-0.169944,0.09157699999999999
2019-05-23T04:12:36.730636Z,-0.335862,0.6240220000000001,0.950586
2019-05-23T04:12:36.776636Z,-0.36978099999999997,0.611372,0.937942
2019-05-23T04:12:36.808636Z,1.052865,0.5173260000000001,1.197288
2019-05-23T04:12:36.848636Z,0.388281,-0.014843,1.526571
2019-05-23T04:12:36.888636Z,0.289953,-0.11083699999999999,1.56104
2019-05-23T04:12:36.930636Z,1.1526129999999999,-1.288189,1.408633
2019-05-23T04:12:36.968636Z,0.964511,-1.121245,-0.097511
2019-05-23T04:12:37.008636Z,0.9948440000000001,-1.073709,-0.116052
2019-05-23T04:12:37.049636Z,0.48618100000000003,-1.380398,-0.43768599999999996
2019-05-23T04:12:37.088636Z,-0.027159,-1.106167,-0.567059
2019-05-23T04:12:37.130636Z,0.007234,-1.087594,-0.559469
2019-05-23T04:12:37.168636Z,0.190563,-0.539225,-1.4731370000000001
2019-05-23T04:12:37.207636Z,0.077326,-0.20600900000000003,-1.239015
2019-05-23T04:12:37.249636Z,0.040129000000000005,-0.15193199999999998,-1.243969
2019-05-23T04:12:37.288636Z,-0.11701800000000001,-0.015316999999999999,0.11423399999999999
2019-05-23T04:12:37.328636Z,0.023977000000000002,0.343344,0.23144699999999999
2019-05-23T04:12:37.369636Z,-0.083041,0.370894,0.218453
2019-05-23T04:12:37.409636Z,0.28889899999999996,0.8635430000000001,1.286242
2019-05-23T04:12:37.450636Z,0.382704,0.9358879999999999,1.628788
2019-05-23T04:12:37.489636Z,0.365797,0.9442879999999999,1.5898450000000002
2019-05-23T04:12:37.533636Z,-0.156333,0.386492,0.9490729999999999
2019-05-23T04:12:37.569636Z,-0.323873,-0.657421,0.6936359999999999
2019-05-23T04:12:37.610636Z,-0.199454,-0.554192,0.6233609999999999
2019-05-23T04:12:37.650636Z,-0.7828039999999999,-0.24454299999999998,-0.369287
2019-05-23T04:12:37.690636Z,-0.446096,-0.707521,0.48966099999999996
2019-05-23T04:12:37.733636Z,-0.304528,-0.558603,0.406114
2019-05-23T04:12:37.769636Z,-0.266613,-0.212718,-0.498033
2019-05-23T04:12:37.810636Z,0.008874,-0.355132,-0.165771
2019-05-23T04:12:37.850636Z,0.071324,-0.369232,-0.156961
2019-05-23T04:12:37.888636Z,0.36306900000000003,-0.41905699999999996,-0.514733
2019-05-23T04:12:37.930636Z,0.250206,-0.020246,-1.327652
2019-05-23T04:12:38.020636Z,0.28994200000000003,0.012203,-1.3191030000000001
2019-05-23T04:12:38.021636Z,0.5169560000000001,0.538258,0.7691640000000001
2019-05-23T04:12:38.059636Z,-0.152499,0.5110680000000001,0.271403
2019-05-23T04:12:38.088636Z,-0.049868,0.488991,0.273537
2019-05-23T04:12:38.129636Z,-0.013883000000000001,0.425534,0.855633
2019-05-23T04:12:38.169636Z,-0.332974,0.256158,0.7202930000000001
2019-05-23T04:12:38.209636Z,-0.25350100000000003,0.329883,0.674774
2019-05-23T04:12:38.250636Z,-0.07749600000000001,-0.072201,0.155828
2019-05-23T04:12:38.290636Z,1.154244,-0.723717,0.859324
2019-05-23T04:12:38.330636Z,1.109218,-0.737019,0.8555870000000001
2019-05-23T04:12:38.380636Z,0.904573,-0.963534,-0.057458
2019-05-23T04:12:38.410636Z,0.78157,-1.008674,-0.43010699999999996
2019-05-23T04:12:38.450636Z,0.7580319999999999,-0.9041299999999999,-0.458259
2019-05-23T04:12:38.491636Z,-0.35886999999999997,-0.848103,-0.23631
2019-05-23T04:12:38.532636Z,0.201156,-0.45297,-0.696944
2019-05-23T04:12:38.569636Z,0.186529,-0.47666800000000004,-0.672503
2019-05-23T04:12:38.609636Z,0.014903,-0.103559,-0.787255
2019-05-23T04:12:38.649636Z,-0.1575,0.062259,0.008436
2019-05-23T04:12:38.690636Z,-0.159109,-0.033056,0.048125
2019-05-23T04:12:38.732636Z,-0.193176,0.329282,0.449329
2019-05-23T04:12:38.770636Z,0.184324,0.386366,1.2488860000000002
2019-05-23T04:12:38.810636Z,0.210434,0.278013,1.2728780000000002
2019-05-23T04:12:38.851636Z,0.159686,0.216259,0.986944
2019-05-23T04:12:38.892636Z,-0.45542299999999997,0.322148,0.762391
2019-05-23T04:12:38.933636Z,-0.504274,0.26503000000000004,0.774133
2019-05-23T04:12:38.971636Z,0.058217,-0.85164,0.5266069999999999
2019-05-23T04:12:39.011636Z,-0.312262,-0.359335,-0.614754
2019-05-23T04:12:39.052636Z,-0.389393,-0.323117,-0.617811
2019-05-23T04:12:39.093636Z,-0.18908599999999998,-1.011299,-0.056635000000000005
2019-05-23T04:12:39.131636Z,-0.032115,-0.94483,-1.0196459999999998
2019-05-23T04:12:39.227636Z,0.047595,-0.8962180000000001,-1.016417
2019-05-23T04:12:39.228636Z,0.237632,-0.468391,-0.369796
2019-05-23T04:12:39.259636Z,-0.640113,-0.41340699999999997,-0.6300020000000001
2019-05-23T04:12:39.289636Z,-0.708727,-0.49723,-0.578334
2019-05-23T04:12:39.332636Z,0.213348,0.415025,-0.051613
2019-05-23T04:12:39.370636Z,-0.204656,0.273326,-0.257168
2019-05-23T04:12:39.411636Z,-0.270823,0.28234499999999996,-0.26064699999999996
2019-05-23T04:12:39.451636Z,-0.029705000000000002,0.112686,1.549416
2019-05-23T04:12:39.491636Z,-0.175147,0.556357,0.296439
2019-05-23T04:12:39.531636Z,-0.330158,0.722869,0.206037
2019-05-23T04:12:39.588636Z,0.575599,-0.25404299999999996,2.3157099999999997
2019-05-23T04:12:39.611636Z,0.67982,-0.621664,0.255469
2019-05-23T04:12:39.650636Z,0.696584,-0.55148,0.22367800000000002
2019-05-23T04:12:39.691636Z,0.648145,-0.641038,-0.750758
2019-05-23T04:12:39.787636Z,0.6054,-0.508783,-0.524143
2019-05-23T04:12:39.787636Z,0.548728,-0.547605,-0.49413500000000005
2019-05-23T04:12:39.812636Z,0.205231,-0.286563,-0.969518
2019-05-23T04:12:39.850636Z,0.21650100000000003,-0.260349,-0.735319
2019-05-23T04:12:39.892636Z,0.181516,-0.258383,-0.721767
2019-05-23T04:12:39.930636Z,-0.093636,-0.173752,-0.41039799999999993
2019-05-23T04:12:39.971636Z,-0.10976199999999998,-0.02275,-0.190225
2019-05-23T04:12:40.011636Z,-0.143163,0.014977,-0.203205
2019-05-23T04:12:40.051636Z,0.054339,0.59922,-0.03383
2019-05-23T04:12:40.091636Z,0.051485,0.499672,1.190399
2019-05-23T04:12:40.137636Z,0.069793,0.379893,1.2224469999999998
2019-05-23T04:12:40.171636Z,0.279435,0.721378,0.33943
2019-05-23T04:12:40.211636Z,0.020802,0.096597,1.681498
2019-05-23T04:12:40.252636Z,-0.039938999999999995,0.04453,1.681948
2019-05-23T04:12:40.294636Z,0.320363,-1.456084,1.080922
2019-05-23T04:12:40.330636Z,0.023816,-1.016477,-0.063377
2019-05-23T04:12:40.371636Z,0.024212,-1.0346799999999998,-0.045612
2019-05-23T04:12:40.411636Z,0.186107,-1.131049,-0.49618
2019-05-23T04:12:40.452636Z,0.595583,-1.012679,0.127155
2019-05-23T04:12:40.491636Z,0.587917,-0.976039,0.115532
2019-05-23T04:12:40.531636Z,0.915441,-0.649512,-0.124136
2019-05-23T04:12:40.572636Z,0.746392,-0.314345,-0.186447
2019-05-23T04:12:40.612636Z,0.699426,-0.264258,-0.200844
2019-05-23T04:12:40.653636Z,0.7141390000000001,-0.199883,-0.3133
2019-05-23T04:12:40.693636Z,0.773922,-0.385865,0.297796
2019-05-23T04:12:40.735636Z,0.789185,-0.292468,0.254833
2019-05-23T04:12:40.773636Z,1.380733,-0.4521,0.9841280000000001
2019-05-23T04:12:40.813636Z,1.977862,-0.38697,0.949249
2019-05-23T04:12:40.852636Z,1.9013740000000001,-0.397177,0.943732
2019-05-23T04:12:40.893636Z,2.1101900000000002,-0.577268,0.984967
2019-05-23T04:12:40.936636Z,2.356016,-1.32161,0.7768010000000001
2019-05-23T04:12:40.973636Z,2.3559810000000003,-1.347709,0.779871
2019-05-23T04:12:41.013636Z,1.862294,-1.233099,0.057629999999999994
2019-05-23T04:12:41.053636Z,1.334194,-1.010298,-0.197233
2019-05-23T04:12:41.093636Z,1.264534,-0.963366,-0.200237
2019-05-23T04:12:41.135636Z,0.718001,-0.89513,-0.348569
2019-05-23T04:12:41.171636Z,0.09994700000000001,-1.243642,0.14560399999999998
2019-05-23T04:12:41.212636Z,0.155781,-1.239481,0.1427
2019-05-23T04:12:41.299636Z,-0.273838,-1.044662,0.47006499999999996
2019-05-23T04:12:41.300636Z,-0.730595,-1.399392,1.219789
2019-05-23T04:12:41.337636Z,-0.900285,-1.53246,1.293251
2019-05-23T04:12:41.371636Z,0.16109300000000001,-0.323219,0.539095
2019-05-23T04:12:41.411636Z,-0.020709,-0.211966,-0.012355
2019-05-23T04:12:41.452636Z,-0.0445,-0.28970999999999997,0.028573
2019-05-23T04:12:41.493636Z,0.088787,-0.431515,0.879444
2019-05-23T04:12:41.534636Z,-0.383955,-0.390851,-0.157252
2019-05-23T04:12:41.572636Z,-0.419235,-0.42798500000000006,-0.12673900000000002
2019-05-23T04:12:41.612636Z,-0.9341520000000001,-1.151222,0.896976
2019-05-23T04:12:41.657636Z,-0.84659,-1.092494,0.9003129999999999
2019-05-23T04:12:41.693636Z,-0.828033,-1.0942209999999999,0.894966
2019-05-23T04:12:41.735636Z,-0.638251,-0.48866899999999996,0.320981
2019-05-23T04:12:41.773636Z,-0.943838,-0.607839,-0.109733
2019-05-23T04:12:41.812636Z,-0.9461309999999999,-0.557133,-0.126229
2019-05-23T04:12:41.853636Z,-1.205833,-0.934359,0.43938
2019-05-23T04:12:41.892636Z,-1.053474,-0.770025,0.37747800000000004
2019-05-23T04:12:41.934636Z,-0.897149,-0.7300449999999999,0.34034200000000003
2019-05-23T04:12:41.972636Z,-0.9017069999999999,-0.25442600000000004,-0.30502199999999996
2019-05-23T04:12:42.013636Z,-0.7103659999999999,-0.156581,-0.103477
2019-05-23T04:12:42.052636Z,-0.679855,-0.178278,-0.091516
2019-05-23T04:12:42.094636Z,-0.54707,-0.124991,0.178053
2019-05-23T04:12:42.137636Z,-0.373626,0.098838,0.23342800000000002
2019-05-23T04:12:42.173636Z,-0.309221,0.075709,0.23568699999999998
2019-05-23T04:12:42.214636Z,-0.37986,0.301171,-0.15718900000000002
2019-05-23T04:12:42.254636Z,-0.6572479999999999,0.2407,0.577753
2019-05-23T04:12:42.294636Z,-0.693496,0.159728,0.612446
2019-05-23T04:12:42.336636Z,-0.034013999999999996,0.3849,0.8978459999999999
2019-05-23T04:12:42.374636Z,-0.6068100000000001,-0.465858,-0.155559
2019-05-23T04:12:42.414636Z,-0.69538,-0.338505,-0.204018
2019-05-23T04:12:42.454636Z,0.564338,-1.34833,2.437755
2019-05-23T04:12:42.494636Z,-0.020859,-1.553658,0.11807999999999999
2019-05-23T04:12:42.536636Z,0.067246,-1.49506,0.095125
2019-05-23T04:12:42.574636Z,0.028399,-1.493747,-0.44311000000000006
2019-05-23T04:12:42.615636Z,-0.214285,-1.21835,0.025398
2019-05-23T04:12:42.654636Z,-0.29853,-1.263523,0.060897
2019-05-23T04:12:42.694636Z,-0.117931,-1.183632,0.032049
2019-05-23T04:12:42.737636Z,0.049250999999999996,-0.246781,-0.7458
2019-05-23T04:12:42.775636Z,0.09740599999999999,-0.30062300000000003,-0.707271
2019-05-23T04:12:42.814636Z,-0.173724,-0.066163,-0.5777180000000001
2019-05-23T04:12:42.853636Z,-0.406077,-0.025241,-0.123115
2019-05-23T04:12:42.893636Z,-0.398032,-0.08544299999999999,-0.089009
2019-05-23T04:12:42.935636Z,-0.41485600000000006,0.08938099999999999,0.23542600000000002
2019-05-23T04:12:42.974636Z,-0.612549,-0.144367,1.621318
2019-05-23T04:12:43.013636Z,-0.45481400000000005,-0.193223,1.616303
2019-05-23T04:12:43.054636Z,-0.661834,0.13833499999999999,0.269861
2019-05-23T04:12:43.096636Z,-0.659877,-0.725073,2.248752
2019-05-23T04:12:43.135636Z,-0.843724,-0.744243,2.240396
2019-05-23T04:12:43.175636Z,-0.0047810000000000005,-1.593336,2.173225
2019-05-23T04:12:43.215636Z,0.032195,-0.678435,-0.45620299999999997
2019-05-23T04:12:43.272636Z,0.178472,-0.524547,-0.523925
2019-05-23T04:12:43.294636Z,0.235039,-0.848223,-0.011946
2019-05-23T04:12:43.335636Z,0.455013,-1.53936,-0.360917
2019-05-23T04:12:43.374636Z,0.68939,-1.4499549999999999,-0.38327100000000003
2019-05-23T04:12:43.414636Z,0.12780899999999998,-1.091291,-1.7658900000000002
2019-05-23T04:12:43.473636Z,0.356031,-0.426059,-0.9684459999999999
2019-05-23T04:12:43.502636Z,0.298504,-0.444509,-0.941609
2019-05-23T04:12:43.533636Z,0.42631499999999994,0.13581600000000002,-0.46459399999999995
2019-05-23T04:12:43.574636Z,0.42051099999999997,-0.068941,0.7399560000000001
2019-05-23T04:12:43.614636Z,0.336389,-0.15598499999999998,0.769404
2019-05-23T04:12:43.654636Z,-0.5373829999999999,-0.456404,1.047348
2019-05-23T04:12:43.694636Z,-0.21679099999999998,-0.24884499999999998,1.182013
2019-05-23T04:12:43.739636Z,-0.19008699999999998,-0.1168,1.0998219999999999
2019-05-23T04:12:43.774636Z,-0.43126800000000004,-0.485034,1.356127
2019-05-23T04:12:43.840636Z,0.216363,-0.923588,1.5487600000000001
2019-05-23T04:12:43.854636Z,0.178546,-0.961777,1.549688
2019-05-23T04:12:43.894636Z,0.150326,-0.794086,0.140746
2019-05-23T04:12:43.934636Z,0.38969299999999996,-1.04005,0.261615
2019-05-23T04:12:43.974636Z,0.32901199999999997,-1.0944450000000001,0.295433
2019-05-23T04:12:44.015636Z,0.449664,-0.7073149999999999,-0.46963900000000003
2019-05-23T04:12:44.054636Z,0.306411,-0.44576000000000005,-0.881516
2019-05-23T04:12:44.094636Z,0.306249,-0.44144799999999995,-0.865607
2019-05-23T04:12:44.135636Z,-0.26342,-0.353375,-0.8970600000000001
2019-05-23T04:12:44.174636Z,-0.342098,-0.24311300000000002,-0.715508
2019-05-23T04:12:44.215636Z,-0.421137,-0.184474,-0.723472
2019-05-23T04:12:44.255636Z,-0.638137,-0.018013,-0.41363999999999995
2019-05-23T04:12:44.295636Z,-0.3046,-0.014097,0.45093500000000003
2019-05-23T04:12:44.338636Z,-0.23862199999999997,-0.03148,0.446547
2019-05-23T04:12:44.382636Z,0.670029,0.47459300000000004,1.111936
2019-05-23T04:12:44.414636Z,0.619889,1.1606370000000001,0.9292819999999999
2019-05-23T04:12:44.455636Z,0.7369,1.049706,0.956787
2019-05-23T04:12:44.494636Z,-1.033882,0.733862,0.157843
2019-05-23T04:12:44.536636Z,-0.139488,-0.769258,2.2204740000000003
2019-05-23T04:12:44.575636Z,-0.174213,-0.7850600000000001,2.2016459999999998
2019-05-23T04:12:44.615636Z,-0.588112,-1.201156,0.521461
2019-05-23T04:12:44.655636Z,0.237069,-1.142013,0.478654
2019-05-23T04:12:44.696636Z,0.217354,-1.2116790000000002,0.517864
2019-05-23T04:12:44.736636Z,0.188058,-1.399891,-0.667003
2019-05-23T04:12:44.776636Z,1.288702,-0.595934,-1.719395
2019-05-23T04:12:44.816636Z,1.507262,-0.367676,-1.8094270000000001
2019-05-23T04:12:44.854636Z,-0.08190800000000001,-0.754545,-1.070365
2019-05-23T04:12:44.895636Z,-0.14139200000000002,-0.654347,-0.141706
2019-05-23T04:12:44.972636Z,-0.24843200000000001,-0.7925,-0.06499500000000001
2019-05-23T04:12:44.983636Z,-0.372469,-0.09073200000000001,-0.14206400000000002
2019-05-23T04:12:45.015636Z,-0.6471859999999999,0.11445799999999999,0.42207
2019-05-23T04:12:45.055636Z,-0.650544,0.156593,0.394563
2019-05-23T04:12:45.095636Z,-0.469125,0.28674499999999997,1.039172
2019-05-23T04:12:45.135636Z,-0.182362,0.921566,0.9225030000000001
2019-05-23T04:12:45.176636Z,-0.219282,0.9411360000000001,0.894077
2019-05-23T04:12:45.216636Z,0.338873,1.0519379999999998,0.43677
2019-05-23T04:12:45.255636Z,0.7898029999999999,-0.14083900000000002,0.739693
2019-05-23T04:12:45.296636Z,0.834482,-0.13285999999999998,0.718225
2019-05-23T04:12:45.337636Z,0.9667469999999999,-0.9677020000000001,-0.023882
2019-05-23T04:12:45.376636Z,0.554949,-0.824544,-0.696788
2019-05-23T04:12:45.416636Z,0.557869,-0.773428,-0.703782
