Datetime,accx,accy,accz
2019-03-25T18:40:36.105087Z,0.0,0.0,0.0
2019-03-25T18:40:36.305087Z,1.105581,-0.409481,-1.391224
2019-03-25T18:40:36.505087Z,0.335522,-0.18188900000000002,-0.141809
2019-03-25T18:40:36.741087Z,-0.034105,0.10599000000000001,0.094185
2019-03-25T18:40:36.937087Z,-0.251763,0.13103900000000002,0.331548
2019-03-25T18:40:37.136087Z,-0.078227,-1.397583,1.8247779999999998
2019-03-25T18:40:37.336087Z,1.097897,-0.773451,1.0568819999999999
2019-03-25T18:40:37.536087Z,0.24630100000000002,0.17497200000000002,0.516249
2019-03-25T18:40:37.737087Z,-0.360649,0.6219779999999999,0.598801
2019-03-25T18:40:37.936087Z,0.528483,-0.315228,1.8649310000000001
2019-03-25T18:40:38.137087Z,1.519564,-0.579427,-0.452846
2019-03-25T18:40:38.337087Z,0.6068600000000001,0.586316,0.037256
2019-03-25T18:40:38.590087Z,0.41985600000000006,0.9789180000000001,0.639366
2019-03-25T18:40:38.737087Z,-0.767734,-0.330527,-0.63641
2019-03-25T18:40:38.937087Z,-1.476701,-1.343379,1.197227
2019-03-25T18:40:39.137087Z,-0.38201199999999996,-0.496072,0.9089459999999999
2019-03-25T18:40:39.337087Z,-1.134292,-0.610211,0.46743199999999996
2019-03-25T18:40:39.537087Z,-0.962357,0.009165999999999999,-0.22683499999999998
2019-03-25T18:40:39.738087Z,-1.572468,0.263868,-0.397784
2019-03-25T18:40:39.937087Z,0.669524,-1.026032,2.6600349999999997
2019-03-25T18:40:40.138087Z,0.168067,-1.243077,-0.317662
2019-03-25T18:40:40.337087Z,-0.667686,-0.393389,0.631015
2019-03-25T18:40:40.537087Z,-0.139943,0.35681799999999997,0.571707
2019-03-25T18:40:40.738087Z,-0.881921,-1.9072790000000002,1.573918
2019-03-25T18:40:40.938087Z,0.037449,-2.770062,-0.28331999999999996
2019-03-25T18:40:41.138087Z,-0.029264,-1.309451,0.545792
2019-03-25T18:40:41.338087Z,-1.504134,-0.8021510000000001,1.086567
2019-03-25T18:40:41.538087Z,0.221156,-0.9148719999999999,1.5724879999999999
2019-03-25T18:40:41.738087Z,1.2988389999999999,-1.118806,0.9491440000000001
2019-03-25T18:40:41.938087Z,-0.325045,-0.667403,0.192883
2019-03-25T18:40:42.138087Z,-0.269547,-0.32910900000000004,0.160076
2019-03-25T18:40:42.338087Z,-0.099747,0.194053,0.983403
2019-03-25T18:40:42.538087Z,0.20900100000000002,-0.80735,0.163381
2019-03-25T18:40:42.739087Z,-0.329801,-1.041141,0.5425909999999999
2019-03-25T18:40:42.938087Z,0.139967,-0.532794,0.439643
2019-03-25T18:40:43.139087Z,-0.8812559999999999,-0.5076229999999999,-0.39468000000000003
2019-03-25T18:40:43.339087Z,-1.344407,-0.293468,-0.294979
2019-03-25T18:40:43.539087Z,-0.234972,-0.461463,0.927844
2019-03-25T18:40:43.740087Z,1.606082,-0.750139,0.9550930000000001
2019-03-25T18:40:43.939087Z,1.264637,0.562775,0.39867800000000003
2019-03-25T18:40:44.139087Z,0.064066,0.517008,-0.232377
2019-03-25T18:40:44.339087Z,-0.917293,1.050814,0.21767899999999998
2019-03-25T18:40:44.539087Z,-0.666014,0.075222,-0.068629
2019-03-25T18:40:44.739087Z,-0.44760500000000003,-0.390422,0.187145
2019-03-25T18:40:44.939087Z,-0.686812,0.470788,-0.9370219999999999
2019-03-25T18:40:45.139087Z,-1.621238,0.951384,-0.556117
2019-03-25T18:40:45.339087Z,-0.631005,0.428954,1.099666
2019-03-25T18:40:45.539087Z,0.056840999999999996,-0.675419,-0.7038770000000001
2019-03-25T18:40:45.740087Z,-0.276579,0.259316,-0.492805
2019-03-25T18:40:45.952087Z,-1.422884,1.068202,-0.5244260000000001
2019-03-25T18:40:46.139087Z,-1.321164,0.39778,0.6856869999999999
2019-03-25T18:40:46.339087Z,-0.654963,0.23129899999999998,0.530225
2019-03-25T18:40:46.540087Z,-0.186028,-1.1119450000000002,0.5505979999999999
2019-03-25T18:40:46.740087Z,-1.335888,-1.929398,-0.6258520000000001
2019-03-25T18:40:46.939087Z,-0.398926,-0.778315,-0.684301
2019-03-25T18:40:47.140087Z,-0.313205,-0.43175399999999997,-0.00023500000000000002
2019-03-25T18:40:47.340087Z,-0.645995,-0.764926,-0.8094210000000001
2019-03-25T18:40:47.540087Z,0.651071,-0.017565,0.905594
2019-03-25T18:40:47.740087Z,-0.401196,-0.49179300000000004,0.522778
2019-03-25T18:40:47.940087Z,-0.276352,-1.218449,-0.181269
2019-03-25T18:40:48.140087Z,0.412261,-0.837219,0.082755
2019-03-25T18:40:48.342087Z,0.579328,0.22204400000000002,-0.24542199999999997
2019-03-25T18:40:48.541087Z,0.43825600000000003,0.6400020000000001,0.780602
2019-03-25T18:40:48.741087Z,0.821731,-0.8715629999999999,0.23548899999999998
2019-03-25T18:40:48.941087Z,0.8796879999999999,-0.7623449999999999,-0.10074
2019-03-25T18:40:49.140087Z,0.916855,0.043595999999999996,-0.19196
2019-03-25T18:40:49.341087Z,0.7536970000000001,0.787481,-0.316286
2019-03-25T18:40:49.541087Z,-0.3342,-0.164981,0.368929
2019-03-25T18:40:49.741087Z,-0.91335,-0.593943,0.496175
2019-03-25T18:40:49.941087Z,-0.48196300000000003,0.080062,-0.164762
2019-03-25T18:40:50.140087Z,-1.016669,0.982326,-0.777443
2019-03-25T18:40:50.340087Z,-0.5713560000000001,1.2976729999999999,0.18197
2019-03-25T18:40:50.540087Z,-1.398664,-1.156144,0.8156869999999999
2019-03-25T18:40:50.741087Z,0.7444029999999999,-3.8379480000000004,-0.0708
2019-03-25T18:40:50.941087Z,-0.646528,-2.1511139999999997,1.434128
2019-03-25T18:40:51.169087Z,-0.5239159999999999,-1.254527,0.131924
2019-03-25T18:40:51.342087Z,-0.49828100000000003,-0.382915,0.204428
2019-03-25T18:40:51.541087Z,-1.308474,-2.1638319999999998,1.747498
2019-03-25T18:40:51.741087Z,-1.0067780000000002,-1.462708,0.576825
2019-03-25T18:40:51.941087Z,-1.058186,-0.539674,0.697531
2019-03-25T18:40:52.141087Z,-0.099627,-0.158801,0.118068
2019-03-25T18:40:52.341087Z,0.22337600000000002,-1.14063,1.227157
2019-03-25T18:40:52.541087Z,1.163025,-0.817612,0.043670999999999995
2019-03-25T18:40:52.741087Z,1.554144,0.15396500000000002,-0.365681
2019-03-25T18:40:52.941087Z,1.311269,0.33458899999999997,0.755147
2019-03-25T18:40:53.141087Z,0.440582,-0.8977649999999999,1.43146
2019-03-25T18:40:53.342087Z,0.258783,-1.795991,0.442454
2019-03-25T18:40:53.541087Z,0.912078,-0.171119,0.694651
2019-03-25T18:40:53.741087Z,0.2587,-1.678145,2.437135
2019-03-25T18:40:53.941087Z,0.222385,-3.065976,0.125698
2019-03-25T18:40:54.141087Z,0.062126999999999995,-1.569704,0.067861
2019-03-25T18:40:54.341087Z,0.160396,-1.0027190000000001,0.257825
2019-03-25T18:40:54.541087Z,-1.221731,-0.8989940000000001,2.596967
2019-03-25T18:40:54.741087Z,-2.50273,-2.151177,0.8815540000000001
2019-03-25T18:40:54.941087Z,-1.343674,-1.630166,1.037642
2019-03-25T18:40:55.141087Z,-0.719758,-0.9807170000000001,0.903867
2019-03-25T18:40:55.342087Z,-0.9814780000000001,-2.32082,1.532018
2019-03-25T18:40:55.542087Z,-1.164472,-2.905682,0.788387
2019-03-25T18:40:55.742087Z,0.08947999999999999,-2.009523,0.7530640000000001
2019-03-25T18:40:55.942087Z,0.098107,-2.586969,2.5125509999999998
2019-03-25T18:40:56.141087Z,0.226913,-1.0479040000000002,0.469718
2019-03-25T18:40:56.341087Z,-1.62984,-1.923311,1.802145
2019-03-25T18:40:56.541087Z,-1.6908560000000001,-1.5647,1.24575
2019-03-25T18:40:56.741087Z,-1.689445,-1.829723,0.790658
2019-03-25T18:40:56.941087Z,-1.3224200000000002,-1.5132430000000001,1.144962
2019-03-25T18:40:57.141087Z,-1.016506,-1.38752,0.739058
2019-03-25T18:40:57.341087Z,-1.285467,-1.259239,0.620337
2019-03-25T18:40:57.540087Z,-0.798244,-0.798619,0.8318129999999999
2019-03-25T18:40:57.741087Z,-1.567258,-0.992715,0.184887
2019-03-25T18:40:57.941087Z,-1.55236,-0.6477890000000001,-0.033919
2019-03-25T18:40:58.151087Z,-1.318339,-0.569074,0.342304
2019-03-25T18:40:58.341087Z,-0.682836,-0.265667,-0.28201
2019-03-25T18:40:58.541087Z,1.024817,0.7601979999999999,0.14521199999999998
2019-03-25T18:40:58.741087Z,0.60868,0.287511,-1.896289
2019-03-25T18:40:58.941087Z,-0.303735,-0.5042909999999999,1.1632870000000002
2019-03-25T18:40:59.141087Z,-0.800551,-0.402476,0.270796
2019-03-25T18:40:59.341087Z,-1.133998,-0.224956,-0.069925
2019-03-25T18:40:59.541087Z,-0.7546970000000001,-0.15673499999999999,0.143925
2019-03-25T18:40:59.742087Z,-0.9896950000000001,-0.507603,0.31449499999999997
2019-03-25T18:40:59.940087Z,-0.405902,0.093225,-0.22231700000000001
2019-03-25T18:41:00.140087Z,-0.25895100000000004,-0.170026,-0.26665
2019-03-25T18:41:00.340087Z,-0.372104,-0.023934999999999998,0.700345
2019-03-25T18:41:00.540087Z,0.134854,-0.08889,-0.505217
2019-03-25T18:41:00.740087Z,0.303578,0.755119,0.40471
2019-03-25T18:41:00.940087Z,0.13786600000000002,0.48566400000000004,-0.316629
2019-03-25T18:41:01.140087Z,-0.14818800000000001,0.6763819999999999,0.176083
2019-03-25T18:41:01.340087Z,-1.7421119999999999,-1.6170069999999999,2.52908
2019-03-25T18:41:01.540087Z,-4.274859999999999,-2.3044580000000003,0.639189
2019-03-25T18:41:01.740087Z,-3.717965,-1.6140510000000001,2.095785
2019-03-25T18:41:01.940087Z,-3.294793,-0.218302,-0.41856499999999996
2019-03-25T18:41:02.139087Z,-2.412619,1.0927870000000002,0.41079499999999997
2019-03-25T18:41:02.340087Z,-1.1124450000000001,4.4378720000000005,-0.526575
2019-03-25T18:41:02.539087Z,-1.148126,0.26308899999999996,1.379197
2019-03-25T18:41:02.740087Z,-0.212556,-0.258577,1.160854
2019-03-25T18:41:02.939087Z,1.231638,1.0741610000000001,0.16283499999999998
2019-03-25T18:41:03.139087Z,2.226178,1.300722,-0.74935
2019-03-25T18:41:03.339087Z,2.663997,1.297347,-0.104251
2019-03-25T18:41:03.539087Z,0.881719,0.9094899999999999,-0.519568
2019-03-25T18:41:03.739087Z,0.523105,1.423049,0.225848
2019-03-25T18:41:03.939087Z,0.8316479999999999,1.326781,-0.428857
2019-03-25T18:41:04.139087Z,1.753348,1.722264,-0.728245
2019-03-25T18:41:04.339087Z,1.337909,2.355439,-0.102835
2019-03-25T18:41:04.539087Z,1.295562,2.5843130000000003,-0.015698
2019-03-25T18:41:04.739087Z,0.32702,0.074132,-0.856634
2019-03-25T18:41:04.939087Z,-1.300835,-0.5780569999999999,0.62954
2019-03-25T18:41:05.139087Z,-0.215548,-0.7239439999999999,0.8531549999999999
2019-03-25T18:41:05.339087Z,1.414741,-1.151899,0.733102
2019-03-25T18:41:05.539087Z,2.645356,-1.5520639999999999,-0.327878
2019-03-25T18:41:05.739087Z,2.5104599999999997,-0.952822,-1.5234020000000001
2019-03-25T18:41:05.938087Z,0.9536110000000001,0.472875,0.79327
2019-03-25T18:41:06.138087Z,0.44814799999999994,0.611274,0.745587
2019-03-25T18:41:06.338087Z,0.57987,-0.035577,0.27810100000000004
2019-03-25T18:41:06.538087Z,0.500663,-0.587333,0.1663
2019-03-25T18:41:06.739087Z,0.818234,-0.9299700000000001,0.024390000000000002
2019-03-25T18:41:06.938087Z,-0.151147,0.096228,0.46239399999999997
2019-03-25T18:41:07.138087Z,-0.45416899999999993,0.81057,0.06303099999999999
2019-03-25T18:41:07.338087Z,-0.539524,0.118551,0.47205
2019-03-25T18:41:07.538087Z,0.228059,-0.10591700000000001,0.158384
2019-03-25T18:41:07.739087Z,-0.139347,-0.284569,-0.07065199999999999
2019-03-25T18:41:07.938087Z,-0.1746,-0.682871,-0.168577
2019-03-25T18:41:08.138087Z,-0.091847,-0.088933,-0.14281300000000002
2019-03-25T18:41:08.338087Z,0.301281,-0.00477,0.184543
2019-03-25T18:41:08.538087Z,0.5194310000000001,0.43843000000000004,0.375039
2019-03-25T18:41:08.738087Z,0.612699,0.001215,0.438747
2019-03-25T18:41:08.938087Z,0.07595700000000001,-0.238932,-0.172008
2019-03-25T18:41:09.138087Z,0.78018,-0.7162310000000001,0.056184000000000005
2019-03-25T18:41:09.338087Z,0.6651199999999999,-0.885289,-0.29075700000000004
2019-03-25T18:41:09.537087Z,0.658408,-0.787495,-0.10835399999999999
2019-03-25T18:41:09.738087Z,-0.331281,-0.0015660000000000001,-0.253975
2019-03-25T18:41:09.938087Z,-0.348666,-0.34248,-0.400928
2019-03-25T18:41:10.137087Z,-0.017299000000000002,-1.0851959999999998,0.006938
2019-03-25T18:41:10.337087Z,0.07850599999999999,-1.233324,-0.332278
2019-03-25T18:41:10.537087Z,-0.610297,-1.4164860000000001,-0.477731
2019-03-25T18:41:10.737087Z,-0.501309,-0.45175600000000005,0.697824
2019-03-25T18:41:10.937087Z,0.539782,0.315902,-0.21531
2019-03-25T18:41:11.137087Z,0.526142,-0.002516,-0.15779
2019-03-25T18:41:11.337087Z,0.743742,-0.7107060000000001,0.077123
2019-03-25T18:41:11.537087Z,0.593237,-1.0778290000000001,-0.30541
2019-03-25T18:41:11.738087Z,0.37007399999999996,-0.180384,0.391131
2019-03-25T18:41:11.938087Z,0.23630900000000002,-0.048679,0.36756
2019-03-25T18:41:12.138087Z,-0.788411,-0.271244,0.022507
2019-03-25T18:41:12.340087Z,-0.47872600000000004,-0.618052,0.172906
2019-03-25T18:41:12.538087Z,-0.07531900000000001,-0.582214,-0.27429699999999996
2019-03-25T18:41:12.738087Z,-0.811413,-0.631504,0.025186
2019-03-25T18:41:12.937087Z,-0.286629,-1.086178,-0.045998000000000004
2019-03-25T18:41:13.137087Z,0.363721,-1.3038290000000001,-0.179447
2019-03-25T18:41:13.338087Z,-0.629306,-1.439355,0.026724
2019-03-25T18:41:13.537087Z,-0.197419,-1.115041,-0.012859
2019-03-25T18:41:13.738087Z,0.443713,-0.439043,0.635781
2019-03-25T18:41:13.937087Z,-1.011978,0.006455,-0.076183
2019-03-25T18:41:14.151087Z,-1.258316,-0.27865700000000004,0.25555300000000003
2019-03-25T18:41:14.347087Z,-1.432213,0.022468000000000002,1.0911549999999999
2019-03-25T18:41:14.537087Z,-1.227277,-0.144449,-0.09386
2019-03-25T18:41:14.737087Z,-1.291692,-0.029591000000000003,0.030307
2019-03-25T18:41:14.937087Z,-1.47922,0.06655,-0.26444
2019-03-25T18:41:15.136087Z,-1.198713,-0.180358,-0.107769
2019-03-25T18:41:15.337087Z,-1.119129,-0.088585,0.171245
2019-03-25T18:41:15.537087Z,-0.909076,0.191328,0.298205
2019-03-25T18:41:15.737087Z,-0.5931810000000001,-0.102368,-0.38863200000000003
2019-03-25T18:41:15.956087Z,-0.26915,-0.687888,0.043391000000000006
2019-03-25T18:41:16.136087Z,-0.064342,-0.714389,-0.44615200000000005
2019-03-25T18:41:16.336087Z,-0.348011,-0.475142,-0.045554000000000004
2019-03-25T18:41:16.536087Z,-0.28413299999999997,-0.530201,-0.121152
2019-03-25T18:41:16.736087Z,0.141915,-0.5318930000000001,-0.19156700000000002
2019-03-25T18:41:16.935087Z,-0.058188,-0.177262,0.031127999999999996
2019-03-25T18:41:17.135087Z,0.373796,-0.48112200000000005,-0.170272
2019-03-25T18:41:17.335087Z,0.618644,0.056725,-0.077017
2019-03-25T18:41:17.535087Z,1.9304259999999998,1.727066,0.219998
2019-03-25T18:41:17.735087Z,1.707006,1.3226209999999998,1.182621
2019-03-25T18:41:17.935087Z,2.280509,1.456556,0.464913
2019-03-25T18:41:18.135087Z,1.654479,1.7286849999999998,0.45799399999999996
2019-03-25T18:41:18.334087Z,0.801964,1.421002,0.727587
2019-03-25T18:41:18.535087Z,1.30786,0.873143,0.438436
2019-03-25T18:41:18.735087Z,1.508625,0.72952,0.499022
2019-03-25T18:41:18.934087Z,1.4116739999999999,1.156137,0.351067
2019-03-25T18:41:19.134087Z,1.7228279999999998,0.7829119999999999,0.800281
2019-03-25T18:41:19.334087Z,2.406835,0.338302,-0.644835
2019-03-25T18:41:19.534087Z,2.1878729999999997,0.46403199999999994,0.543247
2019-03-25T18:41:19.735087Z,2.421375,0.557118,0.187475
2019-03-25T18:41:19.934087Z,1.9200700000000002,1.18747,1.092655
2019-03-25T18:41:20.134087Z,1.629145,0.652227,0.838304
2019-03-25T18:41:20.334087Z,-0.395009,2.13004,-0.277181
2019-03-25T18:41:20.534087Z,-2.912793,3.273803,1.9390020000000001
2019-03-25T18:41:20.735087Z,-3.91051,1.7890279999999998,-0.170995
2019-03-25T18:41:20.934087Z,-4.500063,2.451988,1.764532
2019-03-25T18:41:21.134087Z,-4.687444999999999,1.919703,2.471994
2019-03-25T18:41:21.334087Z,-4.236319,1.895289,1.339831
2019-03-25T18:41:21.534087Z,-3.9594440000000004,1.748189,1.745679
2019-03-25T18:41:21.734087Z,-3.9730779999999997,1.6416419999999998,1.4175520000000001
2019-03-25T18:41:21.934087Z,-3.6196620000000004,1.765216,1.532346
2019-03-25T18:41:22.133087Z,-2.487987,1.039049,1.059983
2019-03-25T18:41:22.333087Z,-1.654032,0.743627,0.376136
2019-03-25T18:41:22.533087Z,-1.576819,0.7073229999999999,-0.160581
2019-03-25T18:41:22.733087Z,-1.497157,0.865308,1.099666
2019-03-25T18:41:22.933087Z,-1.482591,1.6811459999999998,0.6205470000000001
2019-03-25T18:41:23.133087Z,-1.011611,0.915633,0.5881149999999999
2019-03-25T18:41:23.333087Z,-1.299944,2.149924,1.335314
2019-03-25T18:41:23.533087Z,-0.508977,2.4814439999999998,1.2070290000000001
2019-03-25T18:41:23.733087Z,-0.806792,1.470906,1.481171
2019-03-25T18:41:23.932087Z,-1.208018,0.73493,0.5276310000000001
2019-03-25T18:41:24.132087Z,-0.785555,0.262898,0.7496520000000001
2019-03-25T18:41:24.332087Z,-0.449107,0.17189400000000002,1.156643
2019-03-25T18:41:24.532087Z,-1.249526,1.053605,1.467971
2019-03-25T18:41:24.733087Z,-1.379356,0.7847569999999999,0.7556069999999999
2019-03-25T18:41:24.932087Z,-0.92706,0.768447,1.117291
2019-03-25T18:41:25.133087Z,-0.679125,0.359716,0.5215029999999999
2019-03-25T18:41:25.331087Z,-0.639314,0.062638,0.560792
2019-03-25T18:41:25.531087Z,-0.102504,-0.160133,0.538878
2019-03-25T18:41:25.731087Z,0.41684499999999997,-0.34665,-0.522413
2019-03-25T18:41:25.931087Z,0.560335,-0.904543,0.268052
2019-03-25T18:41:26.131087Z,-1.417358,-0.471941,1.07405
2019-03-25T18:41:26.332087Z,-1.621947,-0.675383,0.256432
2019-03-25T18:41:26.531087Z,-0.322998,-1.617098,-0.233627
2019-03-25T18:41:26.731087Z,-0.149808,-1.6949580000000002,-0.31856100000000004
2019-03-25T18:41:26.931087Z,-0.176333,-0.429497,0.45763100000000007
2019-03-25T18:41:27.130087Z,-1.127807,0.363874,0.674452
2019-03-25T18:41:27.330087Z,-0.278054,-0.40517800000000004,0.421005
2019-03-25T18:41:27.530087Z,0.652946,-1.520155,-0.26953
2019-03-25T18:41:27.730087Z,1.192868,-1.915591,-0.30194099999999996
2019-03-25T18:41:27.944087Z,0.9557379999999999,-0.804634,1.017914
2019-03-25T18:41:28.130087Z,0.35302100000000003,0.3041,-0.38192600000000004
2019-03-25T18:41:28.330087Z,0.392284,-1.026459,-1.034102
2019-03-25T18:41:28.529087Z,0.624119,-1.931057,-0.672388
2019-03-25T18:41:28.730087Z,0.6670659999999999,-0.705195,1.073584
2019-03-25T18:41:28.929087Z,0.7257060000000001,0.36071,-0.227741
2019-03-25T18:41:29.129087Z,1.01537,-0.08505,-0.653734
2019-03-25T18:41:29.329087Z,0.9742799999999999,-0.751152,-0.083221
2019-03-25T18:41:29.529087Z,0.746872,0.116324,1.220745
2019-03-25T18:41:29.729087Z,-0.137389,0.900049,-0.167507
2019-03-25T18:41:29.929087Z,0.443363,0.166151,-0.059377
2019-03-25T18:41:30.129087Z,1.0693059999999999,-0.683053,0.2701
2019-03-25T18:41:30.328087Z,1.2691370000000002,0.346671,1.2618040000000001
2019-03-25T18:41:30.528087Z,1.399054,1.370322,0.570807
2019-03-25T18:41:30.728087Z,0.6842590000000001,1.344054,-0.581196
2019-03-25T18:41:30.927087Z,0.80958,0.126712,0.568055
2019-03-25T18:41:31.127087Z,0.5821430000000001,-0.093441,0.364935
2019-03-25T18:41:31.327087Z,0.515405,0.539558,0.403913
2019-03-25T18:41:31.527087Z,-0.554912,0.164043,0.22434099999999998
2019-03-25T18:41:31.727087Z,-0.170605,1.084878,0.504858
2019-03-25T18:41:31.927087Z,-0.385862,0.76084,0.082629
2019-03-25T18:41:32.126087Z,0.301299,1.0718,0.533328
2019-03-25T18:41:32.326087Z,0.6230939999999999,0.46075699999999997,-0.082246
2019-03-25T18:41:32.526087Z,0.373729,-1.423484,-0.102494
2019-03-25T18:41:32.726087Z,-0.837958,-2.101259,0.076144
2019-03-25T18:41:32.926087Z,0.567344,1.4251559999999999,0.307738
2019-03-25T18:41:33.126087Z,1.041778,0.5401,0.16680999999999999
2019-03-25T18:41:33.326087Z,-0.39313200000000004,0.21824000000000002,0.06942000000000001
2019-03-25T18:41:33.525087Z,-0.356863,-0.349643,-0.5982970000000001
2019-03-25T18:41:33.725087Z,-0.020058000000000003,-0.32964299999999996,-0.373461
2019-03-25T18:41:33.925087Z,-0.474504,-0.474725,-0.029412999999999998
2019-03-25T18:41:34.125087Z,-0.843317,-0.411945,0.13329100000000002
2019-03-25T18:41:34.325087Z,-1.487136,-0.236548,0.191583
2019-03-25T18:41:34.525087Z,-0.394021,-0.19758900000000001,0.201599
2019-03-25T18:41:34.725087Z,-0.57148,0.494943,-0.098912
2019-03-25T18:41:34.925087Z,-0.602414,0.284279,0.405042
2019-03-25T18:41:35.125087Z,-0.776403,0.286551,0.067937
2019-03-25T18:41:35.325087Z,-0.509421,0.31285100000000005,0.13809100000000002
2019-03-25T18:41:35.552087Z,-1.30624,-0.26682100000000003,0.112778
2019-03-25T18:41:35.750087Z,-0.600259,-0.371845,-0.103005
2019-03-25T18:41:35.952087Z,0.627618,-0.689929,-0.08643300000000001
2019-03-25T18:41:36.159087Z,1.6059700000000001,-1.044159,-0.35529
2019-03-25T18:41:36.339087Z,1.53255,-0.902485,-0.573256
2019-03-25T18:41:36.523087Z,-1.162883,-0.049052,0.720663
2019-03-25T18:41:36.723087Z,-0.543976,0.23214,0.076157
2019-03-25T18:41:36.923087Z,-0.060744000000000006,-0.056226,-0.687557
2019-03-25T18:41:37.122087Z,0.399086,-0.19123199999999999,0.738876
2019-03-25T18:41:37.322087Z,-0.23563299999999998,1.633446,0.870122
2019-03-25T18:41:37.522087Z,0.943506,1.936612,-0.16602
2019-03-25T18:41:37.722087Z,0.961432,1.3252950000000001,0.708697
2019-03-25T18:41:37.922087Z,1.083048,0.68428,1.242266
2019-03-25T18:41:38.122087Z,1.081815,1.373175,1.245004
2019-03-25T18:41:38.322087Z,-0.46841800000000006,2.373927,0.759884
2019-03-25T18:41:38.522087Z,-0.492779,2.79439,1.200984
2019-03-25T18:41:38.721087Z,-1.3095700000000001,2.504931,1.903454
2019-03-25T18:41:38.921087Z,-0.976621,2.0540220000000002,0.817472
2019-03-25T18:41:39.121087Z,-1.43184,1.2932629999999998,1.229952
2019-03-25T18:41:39.321087Z,-1.192923,1.380503,2.393528
2019-03-25T18:41:39.520087Z,0.136427,3.072028,1.734837
2019-03-25T18:41:39.721087Z,0.022472,2.5490619999999997,1.4953100000000001
2019-03-25T18:41:39.921087Z,-1.031766,1.588752,1.769098
2019-03-25T18:41:40.121087Z,-1.310964,0.551025,1.49215
2019-03-25T18:41:40.320087Z,-0.8337700000000001,1.1661270000000001,1.764573
2019-03-25T18:41:40.520087Z,-1.482153,2.252732,1.203719
2019-03-25T18:41:40.720087Z,-1.461011,1.531057,0.311842
2019-03-25T18:41:40.919087Z,-2.1221959999999997,0.670557,0.655879
2019-03-25T18:41:41.119087Z,-0.971618,0.661031,1.765957
2019-03-25T18:41:41.319087Z,0.037783,2.5430189999999997,0.768676
2019-03-25T18:41:41.518087Z,0.52987,2.305843,0.987908
2019-03-25T18:41:41.719087Z,0.246141,0.868449,0.945142
2019-03-25T18:41:41.919087Z,0.07396,0.7416689999999999,1.519691
2019-03-25T18:41:42.132087Z,-0.7566149999999999,2.207843,1.263323
2019-03-25T18:41:42.318087Z,-1.124159,1.7352919999999998,-0.309567
2019-03-25T18:41:42.518087Z,-0.508901,0.661276,0.39399
2019-03-25T18:41:42.734087Z,-0.774496,-0.013241999999999999,-1.30824
2019-03-25T18:41:42.918087Z,-0.661529,-0.6242989999999999,-1.124931
2019-03-25T18:41:43.117087Z,0.161961,0.550121,1.204584
2019-03-25T18:41:43.317087Z,1.262363,1.1799549999999999,0.48001099999999997
2019-03-25T18:41:43.517087Z,0.828607,0.65074,0.8490489999999999
2019-03-25T18:41:43.717087Z,-0.12146099999999999,0.190039,0.19400799999999999
2019-03-25T18:41:43.917087Z,-0.284968,-0.12626300000000001,-0.416959
2019-03-25T18:41:44.117087Z,-0.08300199999999999,-0.464193,0.6100369999999999
2019-03-25T18:41:44.316087Z,0.45418500000000006,-0.267909,-0.28046
2019-03-25T18:41:44.516087Z,-0.294541,-1.592891,-0.394692
2019-03-25T18:41:44.717087Z,-0.275865,-2.5312509999999997,-0.031320999999999995
2019-03-25T18:41:44.916087Z,-0.977146,-2.446133,-0.081971
2019-03-25T18:41:45.116087Z,-1.5447799999999998,-2.14898,-0.044641
2019-03-25T18:41:45.316087Z,-0.368705,-0.12265899999999999,-0.007226000000000001
2019-03-25T18:41:45.515087Z,0.190691,0.200415,0.11328699999999998
2019-03-25T18:41:45.715087Z,-0.318535,-1.199624,-1.171418
2019-03-25T18:41:45.915087Z,0.515783,-2.18698,-0.090003
2019-03-25T18:41:46.115087Z,1.082255,-1.605048,0.468689
2019-03-25T18:41:46.315087Z,0.753718,-0.460653,0.24660300000000002
2019-03-25T18:41:46.514087Z,-0.923741,-0.8660950000000001,-0.386447
2019-03-25T18:41:46.715087Z,-1.0691950000000001,-1.433394,-0.401952
2019-03-25T18:41:46.914087Z,-0.764054,-1.460499,-0.475555
2019-03-25T18:41:47.114087Z,-0.8064819999999999,-0.534356,-0.08972100000000001
2019-03-25T18:41:47.314087Z,-0.7660100000000001,0.159655,-0.027416000000000003
2019-03-25T18:41:47.513087Z,-0.606193,-0.37152399999999997,-0.10210599999999999
2019-03-25T18:41:47.714087Z,-0.17969100000000002,-0.743629,-0.042086
2019-03-25T18:41:47.913087Z,-0.201157,-0.391492,0.372606
2019-03-25T18:41:48.113087Z,-0.576942,-0.694,0.16578299999999999
2019-03-25T18:41:48.313087Z,-0.79875,-1.79993,-0.86008
2019-03-25T18:41:48.512087Z,-0.882339,-3.316267,-0.095997
2019-03-25T18:41:48.713087Z,-0.818663,-2.651361,-0.787251
2019-03-25T18:41:48.912087Z,0.09149600000000001,-2.287818,0.656626
2019-03-25T18:41:49.112087Z,0.13073900000000002,-1.737442,-0.909587
2019-03-25T18:41:49.311087Z,-0.129601,-2.038948,0.07093300000000001
2019-03-25T18:41:49.512087Z,0.590567,-2.580126,-0.548581
2019-03-25T18:41:49.712087Z,0.446406,-2.4573650000000002,0.37989
2019-03-25T18:41:49.911087Z,0.875015,-0.721058,1.050308
2019-03-25T18:41:50.111087Z,0.44459399999999993,-0.280039,-0.338109
2019-03-25T18:41:50.311087Z,0.381364,-1.6802740000000003,-0.9690280000000001
2019-03-25T18:41:50.510087Z,0.30294099999999996,-2.039195,-0.923059
2019-03-25T18:41:50.711087Z,0.711707,-2.5212470000000002,1.328532
2019-03-25T18:41:50.911087Z,1.204844,-1.715266,-0.9183040000000001
2019-03-25T18:41:51.110087Z,1.481644,-1.569179,-0.005922
2019-03-25T18:41:51.310087Z,0.6634329999999999,-2.183468,-0.378298
2019-03-25T18:41:51.509087Z,0.859137,-2.368953,-0.05293
2019-03-25T18:41:51.713087Z,-0.037344,-1.811718,0.226213
2019-03-25T18:41:51.909087Z,0.466967,-2.165851,-1.170561
2019-03-25T18:41:52.109087Z,0.5803520000000001,-2.296618,-0.296159
2019-03-25T18:41:52.309087Z,0.9599260000000001,-2.205845,-0.233541
2019-03-25T18:41:52.509087Z,0.6632,-2.134239,0.10901199999999998
2019-03-25T18:41:52.709087Z,0.656697,-2.306539,-0.452676
2019-03-25T18:41:52.908087Z,0.794784,-2.523586,-0.14239100000000002
2019-03-25T18:41:53.108087Z,0.9303620000000001,-2.686368,0.05368200000000001
2019-03-25T18:41:53.308087Z,0.668916,-1.388447,0.32455500000000004
2019-03-25T18:41:53.508087Z,0.140189,-0.258942,0.153416
2019-03-25T18:41:53.708087Z,-0.47514399999999996,-1.4795909999999999,-0.13737
2019-03-25T18:41:53.907087Z,-1.010497,-1.742009,-0.091042
2019-03-25T18:41:54.108087Z,-1.432049,-1.079841,0.169593
2019-03-25T18:41:54.307087Z,-1.084079,0.504267,0.12484
2019-03-25T18:41:54.506087Z,-0.580802,-0.050845999999999995,0.092201
2019-03-25T18:41:54.708087Z,-1.046873,0.129805,0.055577999999999995
2019-03-25T18:41:54.906087Z,-1.154042,0.480516,0.592226
2019-03-25T18:41:55.106087Z,-0.580703,0.735816,0.243756
2019-03-25T18:41:55.306087Z,-1.479048,-0.375275,0.53301
2019-03-25T18:41:55.506087Z,-1.909143,0.975266,0.5166390000000001
2019-03-25T18:41:55.706087Z,-1.252156,1.512319,0.5977060000000001
2019-03-25T18:41:55.905087Z,-2.09008,0.387429,0.803863
2019-03-25T18:41:56.105087Z,-1.853318,0.751735,0.566617
2019-03-25T18:41:56.305087Z,-1.6714259999999999,0.42148500000000005,0.405869
2019-03-25T18:41:56.505087Z,-1.8716849999999998,0.664658,1.599799
2019-03-25T18:41:56.705087Z,-2.477352,2.13235,0.6323409999999999
2019-03-25T18:41:56.904087Z,-2.433224,1.7262540000000002,0.552459
2019-03-25T18:41:57.104087Z,-2.178446,1.0159,0.377645
2019-03-25T18:41:57.304087Z,-1.687122,0.364796,0.51448
2019-03-25T18:41:57.503087Z,-0.8619950000000001,1.1242530000000002,1.0160879999999999
2019-03-25T18:41:57.703087Z,0.122821,1.931686,0.491192
2019-03-25T18:41:57.903087Z,-0.049661000000000004,1.741181,0.530502
2019-03-25T18:41:58.103087Z,-1.1605459999999999,0.6456529999999999,1.257945
2019-03-25T18:41:58.302087Z,-1.373358,0.903016,0.187501
2019-03-25T18:41:58.502087Z,-2.140832,0.43523599999999996,0.615962
2019-03-25T18:41:58.702087Z,-2.438376,0.714204,-0.372843
2019-03-25T18:41:58.903087Z,-3.532087,0.932249,1.932714
2019-03-25T18:41:59.103087Z,-3.336622,1.0835620000000001,0.9944629999999999
2019-03-25T18:41:59.302087Z,-2.247234,1.322986,-0.129432
2019-03-25T18:41:59.502087Z,-0.933681,0.730632,0.168152
2019-03-25T18:41:59.702087Z,-1.618528,0.042641000000000005,0.479263
2019-03-25T18:41:59.915087Z,-1.378179,0.025307,0.758233
2019-03-25T18:42:00.101087Z,0.288179,0.691321,-0.50245
2019-03-25T18:42:00.301087Z,0.645392,0.793519,1.217832
2019-03-25T18:42:00.514087Z,1.713732,0.376399,-0.811241
2019-03-25T18:42:00.701087Z,-0.608055,-0.49811700000000003,0.276345
2019-03-25T18:42:00.900087Z,-0.24084899999999998,-0.749491,-0.180334
2019-03-25T18:42:01.100087Z,0.29386,-1.481525,-2.159425
2019-03-25T18:42:01.299087Z,0.506037,-2.206904,0.347377
2019-03-25T18:42:01.499087Z,1.836325,-2.3529880000000003,-0.205042
2019-03-25T18:42:01.699087Z,2.514032,-2.6088080000000002,1.480815
2019-03-25T18:42:01.898087Z,2.557385,-2.569943,-0.346107
2019-03-25T18:42:02.098087Z,1.776575,-1.611366,0.23860100000000004
2019-03-25T18:42:02.297087Z,1.433041,-2.454152,-0.716381
2019-03-25T18:42:02.498087Z,0.51666,-3.26702,-0.23923699999999998
2019-03-25T18:42:02.698087Z,0.22285300000000002,-2.4723,0.7827649999999999
2019-03-25T18:42:02.897087Z,0.472391,-3.156536,-0.42661000000000004
2019-03-25T18:42:03.097087Z,0.40738,-3.1571130000000003,-0.566971
2019-03-25T18:42:03.298087Z,-0.105262,-3.2097130000000003,0.353995
2019-03-25T18:42:03.496087Z,0.5911029999999999,-1.6429330000000002,1.29787
2019-03-25T18:42:03.697087Z,1.452931,0.14157999999999998,0.514347
2019-03-25T18:42:03.896087Z,0.139512,0.07958,0.09516000000000001
2019-03-25T18:42:04.096087Z,0.274971,-0.46373000000000003,0.41323699999999997
2019-03-25T18:42:04.295087Z,0.299079,-0.9622940000000001,0.074377
2019-03-25T18:42:04.495087Z,0.444121,-0.9788399999999999,-0.25035799999999997
2019-03-25T18:42:04.696087Z,0.158225,-0.854892,-0.09435
2019-03-25T18:42:04.897087Z,0.543072,-0.650055,0.032764
2019-03-25T18:42:05.095087Z,-0.034386,-0.435438,0.048444
2019-03-25T18:42:05.294087Z,-0.034694,-0.37902399999999997,0.023175
2019-03-25T18:42:05.494087Z,-0.103747,-0.192491,0.049986
2019-03-25T18:42:05.694087Z,-0.11291099999999998,-0.27365100000000003,-0.05896900000000001
2019-03-25T18:42:05.894087Z,-0.005775,-0.284508,-0.053835
2019-03-25T18:42:06.093087Z,0.139656,-0.153305,0.030622000000000003
2019-03-25T18:42:06.293087Z,0.0694,0.214141,-0.102338
2019-03-25T18:42:06.493087Z,-0.7858310000000001,-0.54491,-0.192768
2019-03-25T18:42:06.693087Z,-1.323216,-1.1030739999999999,-0.5112909999999999
2019-03-25T18:42:06.893087Z,-1.223133,-1.169864,0.09763200000000001
2019-03-25T18:42:07.092087Z,-0.146782,-0.05068,0.434095
2019-03-25T18:42:07.292087Z,0.057130999999999994,0.42875100000000005,-0.14221
2019-03-25T18:42:07.491087Z,-0.210272,-0.5871390000000001,-0.340855
2019-03-25T18:42:07.692087Z,0.027744,-1.7694159999999999,-0.47958100000000004
2019-03-25T18:42:07.891087Z,0.178079,-0.8396959999999999,0.351563
2019-03-25T18:42:08.091087Z,0.39976100000000003,0.599358,0.155005
2019-03-25T18:42:08.290087Z,0.42360600000000004,-0.251714,-0.378303
2019-03-25T18:42:08.490087Z,0.41503599999999996,-0.651459,-0.159372
2019-03-25T18:42:08.690087Z,0.5310090000000001,-0.37150500000000003,0.008653000000000001
2019-03-25T18:42:08.890087Z,-0.14185699999999998,-0.056829,-0.085131
2019-03-25T18:42:09.089087Z,-0.267894,-0.34481999999999996,-0.051820000000000005
2019-03-25T18:42:09.289087Z,0.068,-0.298794,0.173689
2019-03-25T18:42:09.489087Z,0.8909809999999999,1.191108,0.9911110000000001
2019-03-25T18:42:09.689087Z,2.009892,1.764055,0.37853000000000003
2019-03-25T18:42:09.889087Z,1.692798,0.982783,0.073528
2019-03-25T18:42:10.088087Z,1.223415,-0.13913299999999998,-0.050735
2019-03-25T18:42:10.288087Z,1.289185,-0.670151,0.280039
2019-03-25T18:42:10.488087Z,1.464513,0.817079,1.537406
2019-03-25T18:42:10.688087Z,1.529555,2.049027,1.182113
2019-03-25T18:42:10.887087Z,1.091107,1.043031,0.33321999999999996
2019-03-25T18:42:11.087087Z,0.596388,0.230406,-0.016697
2019-03-25T18:42:11.287087Z,1.393737,0.675755,1.443368
2019-03-25T18:42:11.495087Z,2.125757,1.49949,0.8626309999999999
2019-03-25T18:42:11.687087Z,1.999742,2.024353,0.825411
2019-03-25T18:42:11.886087Z,1.5482790000000002,1.230322,1.416718
2019-03-25T18:42:12.085087Z,2.0099,0.893524,0.443276
2019-03-25T18:42:12.285087Z,1.9203270000000001,-0.030023,0.573862
2019-03-25T18:42:12.485087Z,1.374393,-0.22123099999999998,-0.305697
2019-03-25T18:42:12.685087Z,1.746056,-0.7402529999999999,0.050533999999999996
2019-03-25T18:42:12.915087Z,2.017083,-1.830976,-0.194036
2019-03-25T18:42:13.084087Z,2.048578,0.939325,1.9248290000000001
2019-03-25T18:42:13.284087Z,1.952351,1.498265,0.40415700000000004
2019-03-25T18:42:13.484087Z,2.330838,-0.143042,-0.553639
2019-03-25T18:42:13.684087Z,1.9293,-0.8266629999999999,0.363923
2019-03-25T18:42:13.883087Z,0.445136,0.11556199999999998,-0.403251
2019-03-25T18:42:14.083087Z,1.0354290000000002,-1.194736,-0.070247
2019-03-25T18:42:14.282087Z,0.9598530000000001,-1.152407,0.182115
2019-03-25T18:42:14.482087Z,0.364658,-2.102343,-0.149817
2019-03-25T18:42:14.682087Z,-1.110753,-1.068641,0.982244
2019-03-25T18:42:14.882087Z,-2.056876,0.190642,0.257289
2019-03-25T18:42:15.082087Z,-1.0123879999999998,-0.8348479999999999,-0.507153
2019-03-25T18:42:15.281087Z,-0.588307,-1.363017,-0.627788
2019-03-25T18:42:15.481087Z,-0.455186,-3.006654,-0.861519
2019-03-25T18:42:15.681087Z,0.671697,-0.8737459999999999,2.369377
2019-03-25T18:42:15.880087Z,-1.522345,0.48886999999999997,-0.260448
2019-03-25T18:42:16.080087Z,0.226727,-1.672775,-0.776512
2019-03-25T18:42:16.280087Z,1.195486,-2.422177,-0.135036
2019-03-25T18:42:16.479087Z,1.299069,-2.0434229999999998,0.612092
2019-03-25T18:42:16.679087Z,-0.41633000000000003,-0.66351,-0.48123299999999997
2019-03-25T18:42:16.879087Z,-0.44730699999999995,-1.712123,-0.424088
2019-03-25T18:42:17.078087Z,-0.504141,-2.655959,-0.8543959999999999
2019-03-25T18:42:17.278087Z,-0.156397,-3.536519,-0.300061
2019-03-25T18:42:17.478087Z,-0.304919,-1.8715709999999999,1.62317
2019-03-25T18:42:17.695087Z,0.355698,-0.197469,0.05452100000000001
2019-03-25T18:42:17.877087Z,-0.347087,-1.013321,-0.885134
2019-03-25T18:42:18.077087Z,0.147849,-2.371571,-0.400729
2019-03-25T18:42:18.277087Z,1.0801610000000001,-2.164761,-0.04916
2019-03-25T18:42:18.476087Z,0.709634,-1.5882969999999998,-0.24912600000000001
2019-03-25T18:42:18.677087Z,0.308679,-1.375208,-0.46461199999999997
2019-03-25T18:42:18.877087Z,0.702381,-2.24782,-0.257467
2019-03-25T18:42:19.076087Z,1.490385,-1.810987,-0.22262600000000002
2019-03-25T18:42:19.276087Z,0.9292,-1.2903040000000001,0.125414
2019-03-25T18:42:19.475087Z,0.536505,-0.495692,-0.44682299999999997
2019-03-25T18:42:19.676087Z,1.529058,-0.653142,-0.004828
2019-03-25T18:42:19.875087Z,1.2626760000000001,-1.367635,-0.526062
2019-03-25T18:42:20.074087Z,1.403348,-1.693964,-0.037064
2019-03-25T18:42:20.274087Z,0.355006,-0.070316,1.318141
2019-03-25T18:42:20.474087Z,0.396447,1.404284,-0.094148
2019-03-25T18:42:20.674087Z,0.24846500000000002,-0.008921,-0.566761
2019-03-25T18:42:20.873087Z,0.6801550000000001,-0.620522,0.199787
2019-03-25T18:42:21.097087Z,1.1179290000000002,0.76107,0.24425500000000003
2019-03-25T18:42:21.274087Z,1.158421,1.375269,0.293171
2019-03-25T18:42:21.473087Z,0.559135,0.49343000000000004,0.380011
2019-03-25T18:42:21.673087Z,0.688565,0.161821,0.619391
2019-03-25T18:42:21.872087Z,0.159987,0.537763,0.394097
2019-03-25T18:42:22.072087Z,-0.9241030000000001,0.088291,-0.219428
2019-03-25T18:42:22.271087Z,-0.27108899999999997,-0.801707,-0.489141
2019-03-25T18:42:22.471087Z,0.169439,-1.0111299999999999,0.32556799999999997
2019-03-25T18:42:22.671087Z,0.23828600000000003,0.42623900000000003,0.293338
2019-03-25T18:42:22.871087Z,0.21043,0.41116400000000003,0.07297999999999999
2019-03-25T18:42:23.083087Z,0.5561,-0.792183,-0.433184
2019-03-25T18:42:23.271087Z,0.839673,-1.5985530000000001,-0.300637
2019-03-25T18:42:23.470087Z,0.746268,-0.360835,-0.10497999999999999
2019-03-25T18:42:23.670087Z,0.712179,-0.83896,-0.45789300000000005
2019-03-25T18:42:23.869087Z,0.459697,-1.2981639999999999,-0.366147
2019-03-25T18:42:24.069087Z,0.9991040000000001,-0.7384609999999999,0.258268
2019-03-25T18:42:24.270087Z,0.525029,0.6546930000000001,-0.197765
2019-03-25T18:42:24.487087Z,2.459592,0.078391,0.388019
2019-03-25T18:42:24.670087Z,1.814512,0.158435,-0.430299
2019-03-25T18:42:24.888087Z,1.910565,0.287494,0.622977
2019-03-25T18:42:25.067087Z,1.070214,1.756032,1.3607129999999998
2019-03-25T18:42:25.268087Z,-0.584384,1.231233,0.836714
2019-03-25T18:42:25.467087Z,1.267256,-0.724776,-0.6336510000000001
2019-03-25T18:42:25.667087Z,1.514131,-1.0857780000000001,-0.858856
2019-03-25T18:42:25.866087Z,1.570375,-1.167378,-1.097312
2019-03-25T18:42:26.082087Z,1.082873,-1.088727,0.640098
2019-03-25T18:42:26.266087Z,1.46625,0.501104,0.209389
2019-03-25T18:42:26.466087Z,0.9386680000000001,0.063951,-0.027025
2019-03-25T18:42:26.681087Z,1.945038,-0.182384,-0.454583
2019-03-25T18:42:26.865087Z,1.507519,0.269204,0.27427399999999996
2019-03-25T18:42:27.065087Z,0.794833,1.207497,0.603445
2019-03-25T18:42:27.265087Z,0.334729,1.45038,0.761683
2019-03-25T18:42:27.464087Z,0.469316,1.321882,0.58609
2019-03-25T18:42:27.664087Z,0.26490199999999997,0.96945,0.32021
2019-03-25T18:42:27.864087Z,-0.267056,0.273854,0.5391699999999999
2019-03-25T18:42:28.063087Z,0.153427,0.020151,0.216083
2019-03-25T18:42:28.263087Z,-0.006899,-0.32737,-0.039351
2019-03-25T18:42:28.463087Z,-0.769732,-0.381751,-0.444188
2019-03-25T18:42:28.662087Z,-0.548403,-0.794619,-0.095057
2019-03-25T18:42:28.862087Z,-0.167648,0.06498,1.340547
2019-03-25T18:42:29.063087Z,0.09099299999999999,1.6760389999999998,0.625757
2019-03-25T18:42:29.262087Z,-0.335515,2.204134,0.496375
2019-03-25T18:42:29.461087Z,-0.410224,0.8466040000000001,0.232564
2019-03-25T18:42:29.662087Z,0.556762,-0.227383,-0.012657
2019-03-25T18:42:29.860087Z,0.8603799999999999,0.040566000000000005,0.447762
2019-03-25T18:42:30.060087Z,0.051483,0.763259,0.515975
2019-03-25T18:42:30.260087Z,-0.8259559999999999,1.295909,0.308139
2019-03-25T18:42:30.460087Z,-0.9271530000000001,0.9038940000000001,0.731874
2019-03-25T18:42:30.660087Z,0.064792,0.081736,-0.061788
2019-03-25T18:42:30.859087Z,0.222239,-0.251206,-0.243439
2019-03-25T18:42:31.087087Z,0.888684,-0.9003459999999999,0.075616
2019-03-25T18:42:31.258087Z,-0.041398000000000004,0.369762,0.621045
2019-03-25T18:42:31.458087Z,0.11920599999999999,0.705996,0.478284
2019-03-25T18:42:31.658087Z,0.091188,0.278787,0.131167
2019-03-25T18:42:31.857087Z,0.5713689999999999,-0.451664,-0.182116
2019-03-25T18:42:32.057087Z,0.557383,-0.6768649999999999,-0.789351
2019-03-25T18:42:32.257087Z,1.392432,-1.011601,-0.581545
2019-03-25T18:42:32.456087Z,1.149548,-0.263868,0.399009
2019-03-25T18:42:32.656087Z,-0.197786,0.879914,0.097197
2019-03-25T18:42:32.856087Z,0.08832999999999999,0.76949,0.211189
2019-03-25T18:42:33.056087Z,0.665046,-0.09449600000000001,-0.019999
2019-03-25T18:42:33.255087Z,0.002514,-0.638211,-0.460977
2019-03-25T18:42:33.455087Z,0.07629,-1.017936,0.094764
2019-03-25T18:42:33.655087Z,-0.30969,-0.230893,0.344055
2019-03-25T18:42:33.854087Z,-0.6026199999999999,0.10532799999999999,-0.304282
2019-03-25T18:42:34.054087Z,-1.055769,0.178891,0.002529
2019-03-25T18:42:34.254087Z,-0.450292,-0.47416099999999994,-0.385276
2019-03-25T18:42:34.453087Z,-0.09210499999999999,-0.401516,0.061286
2019-03-25T18:42:34.653087Z,-0.240535,-0.8608709999999999,0.586255
2019-03-25T18:42:34.853087Z,-0.258569,-0.5223270000000001,0.077708
2019-03-25T18:42:35.052087Z,-1.38277,-0.674248,0.662352
2019-03-25T18:42:35.252087Z,-2.161457,-0.10215700000000001,0.311714
2019-03-25T18:42:35.453087Z,-1.803063,-0.34043,-0.32173
2019-03-25T18:42:35.653087Z,-1.521372,-0.8440979999999999,-1.0694190000000001
2019-03-25T18:42:35.874087Z,-0.8309040000000001,-2.165614,-0.699604
2019-03-25T18:42:36.052087Z,-1.317973,-1.728423,0.462811
2019-03-25T18:42:36.251087Z,-0.637196,-0.35368499999999997,-0.27779
2019-03-25T18:42:36.452087Z,0.6844520000000001,0.30291399999999996,0.705044
2019-03-25T18:42:36.652087Z,-1.47371,-1.782988,-0.729817
2019-03-25T18:42:36.850087Z,-2.929743,-1.240205,2.189731
2019-03-25T18:42:37.049087Z,-2.902812,-0.577986,2.153209
2019-03-25T18:42:37.249087Z,-0.397969,-6.0757010000000005,0.407909
2019-03-25T18:42:37.449087Z,-0.374053,-4.460932,1.270624
2019-03-25T18:42:37.649087Z,1.428626,-6.764477,1.096357
2019-03-25T18:42:37.848087Z,-0.168072,-4.309279,2.414283
2019-03-25T18:42:38.048087Z,-0.841292,-3.968813,3.4753300000000005
2019-03-25T18:42:38.248087Z,-1.5010780000000001,-4.465758999999999,3.190917
2019-03-25T18:42:38.447087Z,-1.394598,-3.276901,2.771887
2019-03-25T18:42:38.647087Z,-0.421914,-4.169494,4.918446
2019-03-25T18:42:38.847087Z,-1.1761030000000001,-3.16701,1.799563
2019-03-25T18:42:39.046087Z,-1.6724990000000002,-2.414986,1.690333
2019-03-25T18:42:39.246087Z,-1.906511,-1.6890919999999998,2.885601
2019-03-25T18:42:39.446087Z,-0.843916,-2.504828,3.134362
2019-03-25T18:42:39.646087Z,-0.411554,-3.500796,1.571366
2019-03-25T18:42:39.845087Z,-0.567541,-2.3894509999999998,2.0573360000000003
2019-03-25T18:42:40.045087Z,-1.022764,-2.186356,1.721841
2019-03-25T18:42:40.245087Z,-0.8081649999999999,-2.520603,2.498723
2019-03-25T18:42:40.445087Z,-0.429414,-2.567399,1.31331
2019-03-25T18:42:40.645087Z,-0.630677,-1.80322,2.690051
2019-03-25T18:42:40.844087Z,-0.144054,-1.58538,3.178518
2019-03-25T18:42:41.058087Z,0.5705210000000001,-2.303991,0.955181
2019-03-25T18:42:41.244087Z,-1.067238,-2.275209,0.845625
2019-03-25T18:42:41.443087Z,-0.819098,-1.230721,2.23505
2019-03-25T18:42:41.644087Z,-1.147517,-2.014932,1.6063379999999998
2019-03-25T18:42:41.843087Z,-1.218348,-2.107279,0.46961400000000003
2019-03-25T18:42:42.042087Z,-1.7018259999999998,-0.45114,0.139766
2019-03-25T18:42:42.242087Z,-1.4722870000000001,0.015016,1.5456219999999998
2019-03-25T18:42:42.442087Z,-0.898286,-1.086709,2.490742
2019-03-25T18:42:42.642087Z,-0.653225,0.095924,-1.016103
2019-03-25T18:42:42.866087Z,-0.250813,1.264605,-0.28244400000000003
2019-03-25T18:42:43.041087Z,-0.378683,0.268329,1.372141
2019-03-25T18:42:43.241087Z,0.504393,-1.278369,1.084968
2019-03-25T18:42:43.441087Z,-0.060368,-0.750796,-0.509169
2019-03-25T18:42:43.640087Z,-0.658365,0.9172889999999999,0.777778
2019-03-25T18:42:43.840087Z,-0.567246,0.7810699999999999,0.818453
2019-03-25T18:42:44.040087Z,1.13989,-0.169845,0.49416800000000005
2019-03-25T18:42:44.240087Z,0.342177,-0.636775,-0.562161
2019-03-25T18:42:44.439087Z,0.015053,0.656906,-1.0100639999999999
2019-03-25T18:42:44.639087Z,-1.518497,0.5694859999999999,0.621346
2019-03-25T18:42:44.839087Z,-1.3169899999999999,-1.021175,0.41257200000000005
2019-03-25T18:42:45.038087Z,-1.299216,-0.841498,0.593334
2019-03-25T18:42:45.238087Z,-1.680853,-0.07851,0.19356199999999998
2019-03-25T18:42:45.438087Z,-1.686023,0.830282,-0.29470999999999997
2019-03-25T18:42:45.638087Z,-1.259008,0.01699,1.881461
2019-03-25T18:42:45.837087Z,-0.616799,-1.298239,0.19203399999999998
2019-03-25T18:42:46.037087Z,-0.824525,0.367755,-0.086902
2019-03-25T18:42:46.237087Z,-2.7824880000000003,1.020525,-1.311331
2019-03-25T18:42:46.453087Z,-3.128432,-0.159999,1.035487
2019-03-25T18:42:46.636087Z,-2.176542,-0.193658,-0.756743
2019-03-25T18:42:46.836087Z,-2.918756,-0.220675,-0.08966
2019-03-25T18:42:47.035087Z,-1.831416,-0.392072,0.365129
2019-03-25T18:42:47.235087Z,-0.85249,-0.777255,1.062783
2019-03-25T18:42:47.435087Z,-0.47907700000000003,-1.0636510000000001,1.4429450000000001
2019-03-25T18:42:47.635087Z,0.14091800000000002,-0.900066,-1.204957
2019-03-25T18:42:47.835087Z,-0.250199,0.23941300000000001,0.172299
2019-03-25T18:42:48.034087Z,-0.027466,0.42804,-0.607598
2019-03-25T18:42:48.260087Z,-0.127917,1.7676310000000002,0.274998
2019-03-25T18:42:48.434087Z,-1.250808,0.139475,0.273928
2019-03-25T18:42:48.634087Z,-1.753312,0.7575890000000001,0.028214999999999997
2019-03-25T18:42:48.833087Z,-0.9550129999999999,0.718513,0.37008
2019-03-25T18:42:49.033087Z,-0.595821,-0.24175700000000003,-0.145513
2019-03-25T18:42:49.232087Z,-1.2177879999999999,0.321227,0.71822
2019-03-25T18:42:49.432087Z,1.212587,0.289917,0.067473
2019-03-25T18:42:49.632087Z,1.338282,0.832211,-0.261729
2019-03-25T18:42:49.831087Z,0.957778,1.497111,-0.023033
2019-03-25T18:42:50.031087Z,-0.255752,1.8413540000000002,-0.92761
2019-03-25T18:42:50.231087Z,-0.459376,1.837248,-0.2049
2019-03-25T18:42:50.430087Z,-1.221079,0.570829,0.7865270000000001
2019-03-25T18:42:50.649087Z,-0.308374,1.330055,-0.583635
2019-03-25T18:42:50.829087Z,-0.178702,0.523124,0.072007
2019-03-25T18:42:51.029087Z,0.198792,0.902092,0.774157
2019-03-25T18:42:51.229087Z,0.9732790000000001,0.6521979999999999,-0.27528
2019-03-25T18:42:51.451087Z,-0.11715999999999999,1.607512,-1.206377
2019-03-25T18:42:51.629087Z,-0.8016310000000001,2.695578,-1.331503
2019-03-25T18:42:51.829087Z,-0.27358499999999997,2.429773,0.10844300000000001
2019-03-25T18:42:52.028087Z,-0.307054,1.108773,-0.400227
2019-03-25T18:42:52.227087Z,0.10144600000000001,-0.408868,0.476391
2019-03-25T18:42:52.427087Z,-0.388888,1.098857,-0.613609
2019-03-25T18:42:52.627087Z,-1.156568,1.930971,0.136598
2019-03-25T18:42:52.826087Z,-1.9280099999999998,1.496805,-0.507919
2019-03-25T18:42:53.026087Z,-1.052742,0.371394,0.22835500000000003
2019-03-25T18:42:53.225087Z,-0.9945950000000001,0.47734399999999994,-0.6457189999999999
2019-03-25T18:42:53.425087Z,-1.526878,1.3634709999999999,-1.207383
2019-03-25T18:42:53.625087Z,-0.9930629999999999,2.355581,-0.256977
2019-03-25T18:42:53.825087Z,-0.046635,0.6651520000000001,0.101391
2019-03-25T18:42:54.025087Z,-0.078611,0.201777,-0.023042
2019-03-25T18:42:54.224087Z,-0.645966,1.2184979999999999,-0.146066
2019-03-25T18:42:54.423087Z,-1.308029,1.979338,-0.357157
2019-03-25T18:42:54.623087Z,-0.595386,0.286698,0.995547
2019-03-25T18:42:54.823087Z,-0.632909,-0.21411100000000002,-1.365501
2019-03-25T18:42:55.022087Z,-1.2559850000000001,0.091473,-0.667809
2019-03-25T18:42:55.222087Z,-1.081004,0.578453,0.088827
2019-03-25T18:42:55.422087Z,0.6300819999999999,-0.5023479999999999,0.305983
2019-03-25T18:42:55.622087Z,0.059974,-1.069973,-0.254824
2019-03-25T18:42:55.821087Z,1.404591,-0.037551999999999995,0.743635
2019-03-25T18:42:56.021087Z,0.8205,-0.176514,0.673144
2019-03-25T18:42:56.220087Z,1.104522,0.817917,-0.087912
2019-03-25T18:42:56.420087Z,0.376137,0.707436,-0.9155049999999999
2019-03-25T18:42:56.620087Z,-1.251382,0.024481,-0.14741400000000002
2019-03-25T18:42:56.819087Z,0.273527,2.1166009999999997,-0.663921
2019-03-25T18:42:57.019087Z,-1.178117,0.716907,1.495565
2019-03-25T18:42:57.218087Z,-1.7586689999999998,-0.3559,-0.6884239999999999
2019-03-25T18:42:57.418087Z,-1.520145,0.689615,0.116211
2019-03-25T18:42:57.619087Z,-2.081539,1.74347,-1.462064
2019-03-25T18:42:57.835087Z,-1.2459930000000001,0.642054,0.367384
2019-03-25T18:42:58.017087Z,-1.236078,-0.992808,0.191553
2019-03-25T18:42:58.217087Z,-1.268481,-0.052904,0.16608900000000001
2019-03-25T18:42:58.416087Z,-0.723981,0.940557,-0.14049
2019-03-25T18:42:58.616087Z,-0.6448010000000001,-0.415584,2.253941
2019-03-25T18:42:58.816087Z,0.519537,-1.4315360000000001,-1.025781
2019-03-25T18:42:59.015087Z,-0.75721,-0.44647200000000004,-0.59918
2019-03-25T18:42:59.215087Z,0.119057,0.801121,0.033813
2019-03-25T18:42:59.415087Z,-0.35023699999999997,0.068987,0.640733
2019-03-25T18:42:59.615087Z,0.9049649999999999,-1.8890200000000001,0.9725729999999999
2019-03-25T18:42:59.814087Z,0.8114359999999999,-0.6451439999999999,-0.18282400000000001
2019-03-25T18:43:00.013087Z,0.229379,-0.5612020000000001,0.494575
2019-03-25T18:43:00.213087Z,-0.26174200000000003,-1.046974,0.978917
2019-03-25T18:43:00.413087Z,-0.7251529999999999,-1.00631,0.08216699999999999
2019-03-25T18:43:00.613087Z,-0.187541,-1.099816,0.488724
2019-03-25T18:43:00.812087Z,0.410218,-0.710897,0.5724229999999999
2019-03-25T18:43:01.012087Z,0.38811599999999996,-1.313533,2.4396169999999997
2019-03-25T18:43:01.211087Z,-0.290704,-2.757398,0.102773
2019-03-25T18:43:01.411087Z,-0.5063439999999999,-1.573517,1.339828
2019-03-25T18:43:01.611087Z,-0.10765899999999999,-1.082254,0.487505
2019-03-25T18:43:01.810087Z,0.45327799999999996,-0.598804,1.121782
2019-03-25T18:43:02.010087Z,-0.09589099999999999,-2.492016,0.6925979999999999
2019-03-25T18:43:02.209087Z,-0.132363,-2.713366,0.43515
2019-03-25T18:43:02.409087Z,0.233754,-1.5000229999999999,1.9371599999999998
2019-03-25T18:43:02.609087Z,0.773726,-1.5752709999999999,1.343679
2019-03-25T18:43:02.808087Z,0.015590000000000001,-1.083224,0.16618
2019-03-25T18:43:03.008087Z,-1.304143,0.44345500000000004,-0.343954
2019-03-25T18:43:03.207087Z,-1.114414,-1.419226,1.7347380000000001
2019-03-25T18:43:03.407087Z,-0.5459970000000001,-2.665922,0.8628809999999999
2019-03-25T18:43:03.607087Z,-0.625508,-1.606766,0.286837
2019-03-25T18:43:03.807087Z,-0.39169499999999996,0.150377,-0.18703599999999998
2019-03-25T18:43:04.006087Z,0.116069,-0.9337559999999999,2.536377
2019-03-25T18:43:04.206087Z,-0.0274,-2.357859,0.6562859999999999
2019-03-25T18:43:04.405087Z,-0.684991,-0.9170149999999999,-0.820219
2019-03-25T18:43:04.638087Z,-0.49376899999999996,-0.7927489999999999,1.9545299999999999
2019-03-25T18:43:04.804087Z,-0.48998100000000006,-0.470549,-0.52354
2019-03-25T18:43:05.004087Z,-0.37335100000000004,0.032753,0.6529739999999999
2019-03-25T18:43:05.204087Z,0.339,-0.256352,-0.0363
2019-03-25T18:43:05.404087Z,1.0510190000000001,0.8407290000000001,0.239992
2019-03-25T18:43:05.603087Z,1.039772,1.074668,-0.8137479999999999
2019-03-25T18:43:05.803087Z,0.919324,0.383581,-0.299256
2019-03-25T18:43:06.002087Z,1.235511,-0.7683810000000001,0.863188
2019-03-25T18:43:06.202087Z,1.992863,-0.128158,0.074155
2019-03-25T18:43:06.401087Z,0.152789,1.080559,-0.334167
2019-03-25T18:43:06.602087Z,-0.5794090000000001,1.555696,-0.022174
2019-03-25T18:43:06.800087Z,0.27470500000000003,1.8209790000000001,-0.515205
2019-03-25T18:43:07.001087Z,0.9228290000000001,2.084864,0.149646
2019-03-25T18:43:07.200087Z,1.057873,1.070255,-0.8102229999999999
2019-03-25T18:43:07.399087Z,0.920143,0.340574,0.8765629999999999
2019-03-25T18:43:07.599087Z,-0.008381999999999999,1.29492,-1.105489
2019-03-25T18:43:07.799087Z,0.44155900000000003,2.033292,0.272999
2019-03-25T18:43:07.998087Z,-0.41003,1.86323,-0.278174
2019-03-25T18:43:08.198087Z,0.295654,1.47575,0.663009
2019-03-25T18:43:08.397087Z,-0.562925,-0.027485000000000002,-0.205894
2019-03-25T18:43:08.653087Z,-0.9690719999999999,0.5018199999999999,-0.331572
2019-03-25T18:43:08.798087Z,-0.449254,0.6943699999999999,-0.695785
2019-03-25T18:43:08.998087Z,0.103149,1.378608,-0.017113999999999997
2019-03-25T18:43:09.197087Z,0.236592,1.86517,-0.219007
2019-03-25T18:43:09.395087Z,-0.9291799999999999,-0.20223,1.941369
2019-03-25T18:43:09.595087Z,0.168971,-0.729841,-0.6152449999999999
2019-03-25T18:43:09.795087Z,-0.13783,0.688828,-0.759727
2019-03-25T18:43:09.994087Z,-0.890416,0.8885149999999999,-0.027395
2019-03-25T18:43:10.194087Z,-1.5157479999999999,-0.191455,0.191124
2019-03-25T18:43:10.393087Z,-2.536191,-0.8607889999999999,-0.381994
2019-03-25T18:43:10.593087Z,-2.027225,0.373,0.49122
2019-03-25T18:43:10.815087Z,-1.557527,0.47237399999999996,0.7083229999999999
2019-03-25T18:43:10.992087Z,-1.3272389999999998,-0.355608,0.8527040000000001
2019-03-25T18:43:11.192087Z,-1.946927,-0.7821670000000001,-0.24948299999999998
2019-03-25T18:43:11.392087Z,-1.35112,0.937106,-0.240015
2019-03-25T18:43:11.591087Z,-0.939541,1.210177,0.34515999999999997
2019-03-25T18:43:11.790087Z,-0.5153300000000001,0.756296,0.35877
2019-03-25T18:43:11.990087Z,-1.2664870000000001,-0.19421,-0.100746
2019-03-25T18:43:12.190087Z,-1.7739029999999998,-0.024707,0.047718
2019-03-25T18:43:12.390087Z,-1.341377,1.064843,-0.031762
2019-03-25T18:43:12.589087Z,-1.3558379999999999,1.042841,0.495065
2019-03-25T18:43:12.788087Z,-0.398029,0.326052,0.130583
2019-03-25T18:43:12.988087Z,-1.130198,0.613171,-0.647532
2019-03-25T18:43:13.188087Z,-1.073632,1.4352690000000001,0.18366300000000002
2019-03-25T18:43:13.388087Z,-0.099469,0.8722549999999999,0.636849
2019-03-25T18:43:13.587087Z,0.383796,0.548411,0.300136
2019-03-25T18:43:13.787087Z,0.033654,0.806426,-0.362529
2019-03-25T18:43:13.986087Z,-0.24225100000000002,1.042725,0.019109
2019-03-25T18:43:14.186087Z,1.384139,0.920191,-0.22292199999999998
2019-03-25T18:43:14.399087Z,1.072785,0.47243599999999997,0.23177899999999999
2019-03-25T18:43:14.586087Z,-0.051455999999999995,0.593973,0.070246
2019-03-25T18:43:14.785087Z,0.942728,-0.142756,-0.702379
2019-03-25T18:43:14.985087Z,1.226704,0.48831199999999997,-0.256902
2019-03-25T18:43:15.184087Z,0.7003,0.9095850000000001,-0.230831
2019-03-25T18:43:15.384087Z,1.738678,1.279541,-0.639666
2019-03-25T18:43:15.584087Z,0.6626310000000001,1.228332,-0.480662
2019-03-25T18:43:15.783087Z,0.488079,0.10085,0.560459
2019-03-25T18:43:15.983087Z,-0.165765,-0.9524389999999999,0.22550100000000003
2019-03-25T18:43:16.183087Z,-0.218192,0.165692,-0.515131
2019-03-25T18:43:16.382087Z,-0.107001,0.402565,0.060707000000000004
2019-03-25T18:43:16.582087Z,0.178152,-0.36949,0.914352
2019-03-25T18:43:16.782087Z,0.7475350000000001,-1.220896,-0.281395
2019-03-25T18:43:16.982087Z,0.191833,-0.352466,0.011769
2019-03-25T18:43:17.181087Z,0.093808,0.21947600000000003,-0.46604700000000004
2019-03-25T18:43:17.380087Z,-0.510726,0.534563,0.309651
2019-03-25T18:43:17.580087Z,-0.865015,0.57016,0.133338
2019-03-25T18:43:17.780087Z,-0.530816,0.81721,-0.40057800000000005
2019-03-25T18:43:17.979087Z,0.013694,0.661024,-0.26424699999999995
2019-03-25T18:43:18.179087Z,0.55371,1.693988,-1.19607
2019-03-25T18:43:18.379087Z,-0.124779,-0.023021,0.393364
2019-03-25T18:43:18.579087Z,0.6648649999999999,-0.22435500000000003,-0.682148
2019-03-25T18:43:18.778087Z,-0.241206,-0.423043,0.056712
2019-03-25T18:43:18.977087Z,-0.115309,1.01485,0.382646
2019-03-25T18:43:19.177087Z,-0.37567399999999995,1.241514,0.05342
2019-03-25T18:43:19.377087Z,-0.23078800000000002,1.1633879999999999,0.473491
2019-03-25T18:43:19.577087Z,0.784339,-0.708464,-0.543454
2019-03-25T18:43:19.776087Z,0.093974,-0.37805,-0.309581
2019-03-25T18:43:19.975087Z,-0.395257,0.40023600000000004,-0.331096
2019-03-25T18:43:20.199087Z,-0.129493,0.765868,-0.7395109999999999
2019-03-25T18:43:20.375087Z,1.6398259999999998,1.605572,-1.382142
2019-03-25T18:43:20.575087Z,1.728737,-1.011707,0.9402889999999999
2019-03-25T18:43:20.774087Z,-0.043102999999999995,-0.725143,0.157471
2019-03-25T18:43:20.974087Z,0.379004,0.27129200000000003,-0.829686
2019-03-25T18:43:21.173087Z,-0.24856399999999998,0.703008,0.279325
2019-03-25T18:43:21.373087Z,0.1386,1.2000309999999998,0.484829
2019-03-25T18:43:21.573087Z,-0.103323,0.9959600000000001,0.034601
2019-03-25T18:43:21.772087Z,0.99466,-0.453363,0.317812
2019-03-25T18:43:21.971087Z,1.5761370000000001,-0.705388,0.650361
2019-03-25T18:43:22.185087Z,0.524806,0.363806,-0.7142689999999999
2019-03-25T18:43:22.383087Z,0.386873,0.150097,0.41181899999999994
2019-03-25T18:43:22.571087Z,0.69395,-0.9822190000000001,-0.243344
2019-03-25T18:43:22.770087Z,-0.006792,-0.587863,0.589893
2019-03-25T18:43:22.970087Z,0.043011,-0.59778,0.157884
2019-03-25T18:43:23.169087Z,0.415454,-1.0010270000000001,0.492943
2019-03-25T18:43:23.369087Z,0.952089,-0.626251,0.351063
2019-03-25T18:43:23.569087Z,0.6697930000000001,-0.40954,-0.06724
2019-03-25T18:43:23.768087Z,0.7197,-0.40019,0.47798599999999997
2019-03-25T18:43:23.968087Z,1.452795,-1.003252,0.388638
2019-03-25T18:43:24.167087Z,1.5091299999999999,-1.283463,0.155887
2019-03-25T18:43:24.367087Z,0.796825,-0.12064200000000001,0.091712
2019-03-25T18:43:24.567087Z,0.8358110000000001,0.041993,0.033862
2019-03-25T18:43:24.766087Z,0.801165,0.5325979999999999,0.152481
2019-03-25T18:43:24.983087Z,0.658522,-0.36598800000000004,1.769384
2019-03-25T18:43:25.165087Z,0.29983000000000004,-1.25931,-0.5865640000000001
2019-03-25T18:43:25.365087Z,0.5879409999999999,-0.684257,-0.029008999999999997
2019-03-25T18:43:25.565087Z,0.076115,0.605753,0.11088800000000001
2019-03-25T18:43:25.764087Z,-0.861699,0.8247530000000001,0.306229
2019-03-25T18:43:25.964087Z,0.42399499999999996,-0.8416030000000001,1.231867
2019-03-25T18:43:26.163087Z,0.703371,-1.308211,-0.17572100000000002
2019-03-25T18:43:26.362087Z,0.100094,-0.10771199999999999,-0.690878
2019-03-25T18:43:26.563087Z,0.49806000000000006,0.681114,-0.262937
2019-03-25T18:43:26.762087Z,0.40989899999999996,0.041583999999999996,1.52831
2019-03-25T18:43:26.961087Z,-0.575969,-1.491134,-0.081477
2019-03-25T18:43:27.161087Z,-1.013867,-0.430996,-0.22519899999999998
2019-03-25T18:43:27.361087Z,-0.6368020000000001,0.53303,0.08866
2019-03-25T18:43:27.560087Z,-1.028086,-0.088379,0.822615
