Datetime,accx,accy,accz
2018-11-01T20:00:46.823101Z,-0.605957,2.7677,-0.989685
2018-11-01T20:00:47.025101Z,0.018311,-0.310303,0.045959
2018-11-01T20:00:47.225101Z,-0.074402,-0.21814,0.303101
2018-11-01T20:00:47.429101Z,-0.105957,-0.26178,0.25415
2018-11-01T20:00:47.631101Z,0.21722399999999997,-0.138855,-0.105957
2018-11-01T20:00:47.825101Z,-0.049072000000000005,-0.067139,-0.204102
2018-11-01T20:00:48.027101Z,-0.172729,-0.12371800000000001,-0.627319
2018-11-01T20:00:48.424101Z,-0.7854,-0.027770999999999997,0.383789
2018-11-01T20:00:48.630101Z,-0.39379899999999995,0.086243,-0.644043
2018-11-01T20:00:48.827101Z,-1.4995120000000002,-0.048827999999999996,-0.410095
2018-11-01T20:00:49.029101Z,-1.551453,-0.28125,-0.619263
2018-11-01T20:00:49.224101Z,0.584839,0.993469,0.017456
2018-11-01T20:00:49.424101Z,-0.592896,-0.153442,1.293213
2018-11-01T20:00:49.626101Z,-0.8221440000000001,-0.751221,-1.6838990000000003
2018-11-01T20:00:49.829101Z,0.10540799999999999,-0.024536000000000002,0.151917
2018-11-01T20:00:50.021101Z,-0.99115,-0.324463,0.644165
2018-11-01T20:00:50.226101Z,-0.342224,-0.6663819999999999,0.8425290000000001
2018-11-01T20:00:50.427101Z,-0.975342,-0.265991,-2.2212520000000002
2018-11-01T20:00:50.624101Z,-1.0482790000000002,0.352051,0.191467
2018-11-01T20:00:50.835101Z,-0.9722290000000001,-0.782532,1.842224
2018-11-01T20:00:51.029101Z,-1.438477,-0.788574,-0.467529
2018-11-01T20:00:51.232101Z,-0.802917,-0.5170899999999999,-0.936768
2018-11-01T20:00:51.431101Z,-0.43512,0.24939,0.08374
2018-11-01T20:00:51.629101Z,-0.407959,-0.964355,1.48938
2018-11-01T20:00:51.824101Z,-2.087036,-2.183777,-0.510864
2018-11-01T20:00:52.029101Z,-0.95752,-0.432251,0.613892
2018-11-01T20:00:52.226101Z,-0.266602,-0.088806,0.026855
2018-11-01T20:00:52.435101Z,-0.476929,0.000793,-0.565491
2018-11-01T20:00:52.624101Z,-0.46002200000000004,-0.696533,-0.10681199999999999
2018-11-01T20:00:52.821101Z,0.261353,-0.414307,-0.065857
2018-11-01T20:00:53.026101Z,0.169006,-0.354004,0.812195
2018-11-01T20:00:53.238101Z,0.564148,-0.41497799999999996,-0.314087
2018-11-01T20:00:53.423101Z,1.2360229999999999,-0.184265,-0.677795
2018-11-01T20:00:53.628101Z,1.0185549999999999,0.8947139999999999,-0.490356
2018-11-01T20:00:53.832101Z,0.358215,0.7592770000000001,-0.046508999999999995
2018-11-01T20:00:54.022101Z,-1.304932,-1.310608,-0.270813
2018-11-01T20:00:54.226101Z,-1.545898,-0.5033569999999999,-0.968201
2018-11-01T20:00:54.424101Z,-0.653137,0.297668,0.674133
2018-11-01T20:00:54.673101Z,1.69458,-0.405396,1.338684
2018-11-01T20:00:54.826101Z,-0.21099899999999996,0.127747,-1.647949
2018-11-01T20:00:55.027101Z,-1.8846439999999998,0.714233,1.038147
2018-11-01T20:00:55.226101Z,-3.2510380000000003,-1.727783,-0.604797
2018-11-01T20:00:55.428101Z,-1.426636,-1.0477290000000001,-0.055054
2018-11-01T20:00:55.622101Z,-1.202515,-0.071777,1.1399540000000001
2018-11-01T20:00:55.825101Z,-0.24780300000000002,-0.8444209999999999,1.392395
2018-11-01T20:00:56.024101Z,-1.287354,-0.445496,-1.6920169999999999
2018-11-01T20:00:56.228101Z,-1.1156620000000002,0.243774,-0.478699
2018-11-01T20:00:56.422101Z,-1.819641,0.8353879999999999,0.21826199999999998
2018-11-01T20:00:56.633101Z,-2.45929,-1.664368,-0.572327
2018-11-01T20:00:56.826101Z,-5.7347410000000005,-1.5552979999999998,1.3600459999999999
2018-11-01T20:00:57.025101Z,-2.771301,-0.49316400000000005,0.9877319999999999
2018-11-01T20:00:57.225101Z,-1.741699,1.143982,0.772583
2018-11-01T20:00:57.426101Z,-0.769592,0.5346069999999999,-0.090393
2018-11-01T20:00:57.625101Z,-1.5358889999999998,0.725464,-0.510864
2018-11-01T20:00:57.845101Z,-0.90802,1.561768,-1.6793209999999998
2018-11-01T20:00:58.044101Z,-0.593567,1.298889,-0.6426390000000001
2018-11-01T20:00:58.231101Z,0.603943,-1.371033,0.581909
2018-11-01T20:00:58.430101Z,-0.567688,-0.985474,-0.288696
2018-11-01T20:00:58.625101Z,-1.169556,-0.6469729999999999,0.694763
2018-11-01T20:00:58.827101Z,-2.445679,-0.9149780000000001,0.643921
2018-11-01T20:00:59.025101Z,-1.582581,0.137878,-1.329895
2018-11-01T20:00:59.224101Z,-1.159302,1.857666,0.052673000000000005
2018-11-01T20:00:59.424101Z,-1.244629,-0.961975,2.240967
2018-11-01T20:00:59.624101Z,-1.839905,-1.273682,0.0038450000000000003
2018-11-01T20:00:59.831101Z,-1.848511,-0.68103,-1.089844
2018-11-01T20:01:00.032101Z,-0.8705440000000001,0.04071,0.5515140000000001
2018-11-01T20:01:00.224101Z,-1.3969120000000002,-1.072083,-1.0379639999999999
2018-11-01T20:01:00.628101Z,-1.962646,-0.07989500000000001,-0.7186279999999999
2018-11-01T20:01:00.829101Z,-2.146301,-0.51593,-0.243652
2018-11-01T20:01:01.028101Z,-3.308533,-1.8862919999999999,-1.357849
2018-11-01T20:01:01.224101Z,-3.056396,-0.782166,-0.359619
2018-11-01T20:01:01.434101Z,-1.9537349999999998,0.21698,0.7421260000000001
2018-11-01T20:01:01.625101Z,-0.8537600000000001,0.210815,-0.07525599999999999
2018-11-01T20:01:01.824101Z,-1.086365,-0.5271,-0.5859989999999999
2018-11-01T20:01:02.021101Z,-1.343384,0.41882299999999995,-0.72522
2018-11-01T20:01:02.229101Z,-0.19934100000000002,0.989441,-0.406921
2018-11-01T20:01:02.429101Z,-0.21331799999999998,1.426453,-0.76825
2018-11-01T20:01:02.631101Z,-2.007263,-0.185669,3.00415
2018-11-01T20:01:02.824101Z,-1.405518,-1.620911,-0.887085
2018-11-01T20:01:03.025101Z,0.684204,0.797852,-0.594788
2018-11-01T20:01:04.439101Z,-0.493042,1.819641,1.612
2018-11-01T20:01:04.445101Z,-1.47406,-1.9642330000000001,-0.10321
2018-11-01T20:01:04.451101Z,-0.631897,0.242065,-1.3276370000000002
2018-11-01T20:01:04.458101Z,-0.602661,0.8447879999999999,0.171509
2018-11-01T20:01:04.464101Z,-1.581116,-1.1121219999999998,1.4366459999999999
2018-11-01T20:01:04.470101Z,-0.49115,-1.4934690000000002,-1.609192
2018-11-01T20:01:04.476101Z,-0.622925,-0.896912,0.416321
2018-11-01T20:01:04.623101Z,-1.421448,0.132996,0.035828
2018-11-01T20:01:04.835101Z,-0.575073,-0.98761,-0.755981
2018-11-01T20:01:05.029101Z,0.156921,-1.44458,-0.654724
2018-11-01T20:01:05.227101Z,-0.422241,-0.584595,-0.7299800000000001
2018-11-01T20:01:05.428101Z,-0.29699699999999996,0.159058,-0.259338
2018-11-01T20:01:05.624101Z,0.406982,0.224915,-0.223816
2018-11-01T20:01:05.825101Z,0.039124,0.8461299999999999,-0.5801390000000001
2018-11-01T20:01:06.024101Z,0.274902,0.681946,-0.99884
2018-11-01T20:01:06.224101Z,-0.14416500000000002,1.698059,-0.691833
2018-11-01T20:01:06.424101Z,-1.005554,-0.038269,2.148621
2018-11-01T20:01:06.638101Z,-0.239502,-2.068604,-0.092224
2018-11-01T20:01:06.912101Z,-0.456604,-0.466736,-1.552734
2018-11-01T20:01:07.026101Z,0.08557100000000001,0.696716,-1.606934
2018-11-01T20:01:07.246101Z,0.750793,-0.22338899999999998,-1.0896
2018-11-01T20:01:07.430101Z,1.516235,-0.265869,-0.9458620000000001
2018-11-01T20:01:07.625101Z,1.084167,0.244446,-0.7733760000000001
2018-11-01T20:01:07.825101Z,0.921997,1.274658,0.036621
2018-11-01T20:01:08.035101Z,1.0298459999999998,1.890625,-0.933716
2018-11-01T20:01:08.225101Z,0.27124000000000004,1.7208860000000001,-1.9502560000000002
2018-11-01T20:01:08.426101Z,0.58429,1.252319,0.609192
2018-11-01T20:01:08.624101Z,-0.336304,-0.60321,0.7673949999999999
2018-11-01T20:01:08.832101Z,0.357666,0.6828,-1.6466060000000002
2018-11-01T20:01:09.055101Z,1.016724,1.61731,-0.901001
2018-11-01T20:01:09.224101Z,-0.560181,1.676086,-0.142029
2018-11-01T20:01:09.433101Z,-0.23083499999999998,-0.02301,-0.323669
2018-11-01T20:01:09.625101Z,0.145874,0.988892,-2.867859
2018-11-01T20:01:09.824101Z,-0.524475,2.663696,-1.051758
2018-11-01T20:01:10.026101Z,-1.442505,0.8120729999999999,4.436401
2018-11-01T20:01:10.225101Z,-0.23608400000000002,-1.521362,-0.875916
2018-11-01T20:01:10.426101Z,-0.004333,0.033202999999999996,-1.49469
2018-11-01T20:01:10.624101Z,-0.235413,1.9838259999999999,-1.0648799999999998
2018-11-01T20:01:10.824101Z,-0.9611209999999999,0.9488530000000001,1.9880369999999998
2018-11-01T20:01:11.024101Z,-0.596924,0.45996099999999995,-1.596252
2018-11-01T20:01:11.227101Z,0.01123,0.533691,-0.292603
2018-11-01T20:01:11.427101Z,0.26550300000000004,1.39386,-0.064941
2018-11-01T20:01:11.625101Z,-0.589478,-0.710022,0.861084
2018-11-01T20:01:11.825101Z,-0.20861799999999997,-0.293579,-1.5540770000000002
2018-11-01T20:01:12.031101Z,0.154175,0.923218,-2.4352419999999997
2018-11-01T20:01:12.229101Z,1.254333,0.5726319999999999,-0.335388
2018-11-01T20:01:12.421101Z,0.147644,-0.49017299999999997,0.33844
2018-11-01T20:01:12.624101Z,-0.626953,1.430664,-0.995972
2018-11-01T20:01:12.825101Z,-0.21514899999999998,1.037415,-0.02887
2018-11-01T20:01:13.026101Z,-0.689575,-0.275513,1.497559
2018-11-01T20:01:13.267101Z,-0.869202,-1.273621,-1.538879
2018-11-01T20:01:13.425101Z,-0.975037,-0.021240000000000002,0.11651600000000001
2018-11-01T20:01:13.624101Z,-0.724121,0.890015,0.022583000000000002
2018-11-01T20:01:13.825101Z,-1.8078,0.26532,1.494324
2018-11-01T20:01:14.042101Z,-1.213074,0.079468,-0.319458
2018-11-01T20:01:14.222101Z,-0.9104,-0.15094000000000002,-0.071594
2018-11-01T20:01:14.426101Z,-0.790466,-0.033875,0.897766
2018-11-01T20:01:14.625101Z,0.238159,-0.21209699999999998,-0.161804
2018-11-01T20:01:14.824101Z,-1.6644290000000002,-1.075867,1.696045
2018-11-01T20:01:15.024101Z,-1.706421,0.161743,-0.739807
2018-11-01T20:01:15.225101Z,-0.20361300000000002,0.848877,0.443176
2018-11-01T20:01:15.425101Z,-1.482422,-0.66687,2.541016
2018-11-01T20:01:15.627101Z,-0.517944,-0.246216,-1.6079709999999998
2018-11-01T20:01:15.828101Z,-1.377502,0.318787,0.244019
2018-11-01T20:01:16.026101Z,-0.983215,1.062195,1.005249
2018-11-01T20:01:16.226101Z,-2.372314,-0.678528,1.8161619999999998
2018-11-01T20:01:16.430101Z,-2.473694,-1.437866,-1.155457
2018-11-01T20:01:16.821101Z,-2.697266,0.1828,-0.119019
2018-11-01T20:01:17.025101Z,-2.212463,0.369324,0.342896
2018-11-01T20:01:17.224101Z,-1.689819,0.339111,-0.33374000000000004
2018-11-01T20:01:17.425101Z,-0.823792,0.429504,0.170715
2018-11-01T20:01:17.636101Z,-0.069458,-0.16650399999999999,0.60907
2018-11-01T20:01:17.824101Z,-0.918335,-0.2099,-2.215881
2018-11-01T20:01:18.033101Z,-1.118408,-0.302185,0.26745599999999997
2018-11-01T20:01:18.258101Z,-0.318176,-0.157471,-1.094177
2018-11-01T20:01:18.428101Z,0.275208,0.902344,-0.430725
2018-11-01T20:01:18.626101Z,-0.5014649999999999,-0.40679899999999997,-0.698425
2018-11-01T20:01:18.826101Z,-1.672852,-1.542419,-2.1222529999999997
2018-11-01T20:01:19.025101Z,0.847168,1.2540280000000001,1.2360229999999999
2018-11-01T20:01:19.224101Z,-0.010803,0.850769,0.832886
2018-11-01T20:01:19.424101Z,-2.176941,-1.7390139999999998,1.1828
2018-11-01T20:01:19.624101Z,-1.003906,-0.081238,-1.586853
2018-11-01T20:01:19.825101Z,-0.467529,1.5597530000000002,-0.827026
2018-11-01T20:01:20.024101Z,-1.5485229999999999,0.008667,3.916931
2018-11-01T20:01:20.223101Z,0.444641,-1.565125,1.035583
2018-11-01T20:01:20.425101Z,-0.316162,-1.074951,-0.586548
2018-11-01T20:01:20.651101Z,0.10931400000000001,-0.175537,-0.9248049999999999
2018-11-01T20:01:20.828101Z,-0.110046,-0.101379,0.051086
2018-11-01T20:01:21.026101Z,-1.354492,-1.4089969999999998,1.336182
2018-11-01T20:01:21.225101Z,-0.525146,-0.716858,1.97345
2018-11-01T20:01:21.434101Z,1.459717,-0.472473,-0.142456
2018-11-01T20:01:21.625101Z,-0.161926,0.761475,-0.316895
2018-11-01T20:01:21.823101Z,-0.345947,1.5268549999999999,-0.8730469999999999
2018-11-01T20:01:22.023101Z,-0.117676,1.351135,-0.144043
2018-11-01T20:01:22.226101Z,1.386292,0.740051,-0.168152
2018-11-01T20:01:22.426101Z,-1.411926,-0.796509,-1.1651
2018-11-01T20:01:22.632101Z,-0.862671,0.613525,0.39770500000000003
2018-11-01T20:01:22.822101Z,-0.597839,1.824341,0.085327
2018-11-01T20:01:23.030101Z,0.016235,0.07666,-0.676086
2018-11-01T20:01:23.225101Z,0.267761,-0.35675,0.119629
2018-11-01T20:01:23.430101Z,-0.177734,1.11792,-1.0153809999999999
2018-11-01T20:01:23.624101Z,-0.08190900000000001,0.854187,-0.5256350000000001
2018-11-01T20:01:23.841101Z,0.015625,0.406921,0.49853500000000006
2018-11-01T20:01:24.025101Z,-0.8027340000000001,-0.8993530000000001,-0.377136
2018-11-01T20:01:24.215101Z,-1.419983,-1.187805,-0.404114
2018-11-01T20:01:24.429101Z,-1.7498169999999997,-0.049683,0.16430699999999998
2018-11-01T20:01:24.625101Z,-0.9212040000000001,-0.238281,-0.9577030000000001
2018-11-01T20:01:24.826101Z,-1.831421,-0.157227,-0.35498
2018-11-01T20:01:25.025101Z,-0.43847700000000006,0.591003,0.12646500000000002
2018-11-01T20:01:25.226101Z,-1.8466799999999999,-0.125854,-0.233337
2018-11-01T20:01:25.425101Z,-1.4332280000000002,-0.694275,0.870117
2018-11-01T20:01:25.629101Z,-0.206604,-0.382019,-0.307068
2018-11-01T20:01:25.824101Z,-0.313354,0.179504,0.21209699999999998
2018-11-01T20:01:26.031101Z,0.196472,0.5761109999999999,-0.243225
2018-11-01T20:01:26.231101Z,-0.654724,-0.480103,0.79187
2018-11-01T20:01:26.426101Z,-1.598206,-1.3391110000000002,0.052124000000000004
2018-11-01T20:01:26.625101Z,-0.871338,0.20971700000000001,0.194153
2018-11-01T20:01:26.822101Z,-1.1304319999999999,1.144226,0.0043950000000000005
2018-11-01T20:01:27.025101Z,-0.752258,1.0035399999999999,0.400208
2018-11-01T20:01:27.225101Z,0.269531,-1.648621,0.134399
2018-11-01T20:01:27.425101Z,-0.735901,0.243042,-0.80304
2018-11-01T20:01:27.624101Z,-1.4400629999999999,0.749817,0.731079
2018-11-01T20:01:27.830101Z,-1.617004,-0.182617,0.9006350000000001
2018-11-01T20:01:28.031101Z,-1.8610229999999999,-0.86261,0.526184
2018-11-01T20:01:28.240101Z,-0.8781129999999999,-0.11260999999999999,0.129456
2018-11-01T20:01:28.425101Z,-1.034729,0.076721,1.247803
2018-11-01T20:01:28.625101Z,-0.792053,-1.246094,0.672241
2018-11-01T20:01:28.831101Z,-0.875244,-1.534973,0.35430900000000004
2018-11-01T20:01:29.023101Z,-0.624451,-0.817322,-0.7030029999999999
2018-11-01T20:01:29.231101Z,0.13684100000000002,-0.718811,-0.45636000000000004
2018-11-01T20:01:29.430101Z,2.385681,-1.600342,0.280762
2018-11-01T20:01:29.824101Z,1.584351,-1.969238,0.434204
2018-11-01T20:01:30.025101Z,-0.5858760000000001,-1.855957,1.079346
2018-11-01T20:01:30.224101Z,-2.810059,-0.164856,1.2838129999999999
2018-11-01T20:01:30.425101Z,-0.41943400000000003,-0.660339,-0.243225
2018-11-01T20:01:30.625101Z,-1.215942,0.584717,-0.27355999999999997
2018-11-01T20:01:30.824101Z,0.322449,0.9210209999999999,0.21844499999999997
2018-11-01T20:01:31.030101Z,1.348206,-0.48535200000000006,1.386841
2018-11-01T20:01:31.234101Z,0.761536,0.24841300000000002,-0.916565
2018-11-01T20:01:31.426101Z,0.47088599999999997,0.7867430000000001,0.23162800000000003
2018-11-01T20:01:31.641101Z,0.326721,-1.47345,2.024292
2018-11-01T20:01:31.846101Z,1.8392939999999998,-1.563599,-0.403564
2018-11-01T20:01:32.032101Z,0.42749,-0.630371,0.289429
2018-11-01T20:01:32.251101Z,-0.004211,-1.285767,-0.43603500000000006
2018-11-01T20:01:32.426101Z,-0.145081,0.440125,0.084351
2018-11-01T20:01:32.626101Z,-0.7546390000000001,2.179443,-0.730591
2018-11-01T20:01:32.824101Z,-0.552246,2.836121,-0.44836400000000004
2018-11-01T20:01:33.024101Z,0.285706,1.259155,-0.800659
2018-11-01T20:01:33.225101Z,-0.7070310000000001,-0.700745,-0.034119
2018-11-01T20:01:33.424101Z,-0.122742,0.47924799999999995,-0.9917600000000001
2018-11-01T20:01:33.637101Z,-0.13037100000000001,1.251953,-1.138367
2018-11-01T20:01:33.822101Z,-0.196106,0.482422,2.14624
2018-11-01T20:01:34.027101Z,0.6599119999999999,0.24560500000000002,-1.261169
2018-11-01T20:01:34.225101Z,-0.22869899999999999,0.999634,-0.600708
2018-11-01T20:01:34.439101Z,-0.17114300000000002,2.007629,-0.74585
2018-11-01T20:01:34.627101Z,-1.277954,-0.11731,1.947815
2018-11-01T20:01:35.122101Z,-1.186401,0.044189,-0.162659
2018-11-01T20:01:35.569101Z,-1.315979,0.814392,0.128052
2018-11-01T20:01:35.587101Z,-0.10553,1.255981,-0.069458
2018-11-01T20:01:35.593101Z,-0.43456999999999996,0.150146,0.023193000000000002
2018-11-01T20:01:35.683101Z,-0.49749799999999994,0.23754899999999998,0.187744
2018-11-01T20:01:35.825101Z,0.637146,0.472046,-0.00592
2018-11-01T20:01:36.026101Z,0.69989,1.150452,0.036438
2018-11-01T20:01:36.226101Z,-0.070923,-0.03302,0.6323850000000001
2018-11-01T20:01:36.427101Z,0.210327,-0.763245,1.932495
2018-11-01T20:01:36.624101Z,0.19812000000000002,-0.588013,-0.09643600000000001
2018-11-01T20:01:36.900101Z,-0.552917,0.16571,-1.17218
2018-11-01T20:01:37.024101Z,-0.23199499999999998,0.191162,-0.618958
2018-11-01T20:01:37.226101Z,-0.330627,0.470703,-0.338074
2018-11-01T20:01:37.424101Z,-0.12658699999999998,0.6369020000000001,-0.42163100000000003
2018-11-01T20:01:37.624101Z,-0.9189450000000001,0.9782709999999999,-0.347107
2018-11-01T20:01:37.824101Z,-1.011719,1.9306029999999998,0.37561
2018-11-01T20:01:38.024101Z,0.476562,1.701416,1.293884
2018-11-01T20:01:38.226101Z,0.492065,-1.00885,-1.068176
2018-11-01T20:01:38.424101Z,0.001526,0.47351099999999996,-0.6267699999999999
2018-11-01T20:01:38.624101Z,-0.12322999999999999,0.535522,0.602661
2018-11-01T20:01:38.842101Z,1.05481,-0.38500999999999996,-1.522461
2018-11-01T20:01:39.028101Z,-1.603577,-0.071655,0.8670040000000001
2018-11-01T20:01:39.227101Z,-1.9976200000000002,-0.056946000000000004,-0.16314700000000001
2018-11-01T20:01:39.428101Z,-1.026062,0.456909,-0.378845
2018-11-01T20:01:39.616101Z,-1.036194,1.01532,-0.341003
2018-11-01T20:01:39.826101Z,-1.121338,-0.257812,-0.116638
2018-11-01T20:01:40.026101Z,-0.32922399999999996,-0.164246,-0.248047
2018-11-01T20:01:40.226101Z,-0.017943999999999998,0.509216,0.018738
2018-11-01T20:01:40.424101Z,-0.372375,0.863525,-0.034424
2018-11-01T20:01:40.624101Z,-0.638123,-0.828308,-0.039185000000000005
2018-11-01T20:01:40.828101Z,-1.830444,-0.082275,-0.25354
2018-11-01T20:01:41.043101Z,-0.600037,0.720825,-0.815247
2018-11-01T20:01:41.230101Z,-1.8857419999999998,-1.059509,0.689026
2018-11-01T20:01:41.437101Z,-0.8690190000000001,0.31543000000000004,-1.892334
2018-11-01T20:01:41.622101Z,-1.99353,0.18212899999999999,-1.324402
2018-11-01T20:01:41.835101Z,-0.8472290000000001,-0.322083,-0.812012
2018-11-01T20:01:42.029101Z,-3.097839,-1.158752,-0.9814450000000001
2018-11-01T20:01:42.229101Z,-3.18335,-0.031799,-0.2854
2018-11-01T20:01:42.425101Z,-2.503967,0.44928,-0.078186
2018-11-01T20:01:42.627101Z,-0.686646,1.2642209999999998,-0.43878199999999995
2018-11-01T20:01:42.827101Z,-1.4978639999999999,0.094604,0.6525880000000001
2018-11-01T20:01:43.029101Z,-0.91748,0.050598000000000004,-1.489258
2018-11-01T20:01:43.227101Z,-0.372742,0.846008,-0.19708299999999998
2018-11-01T20:01:43.428101Z,-0.814453,1.541931,-0.498474
2018-11-01T20:01:43.631101Z,-2.090881,0.148865,1.240479
2018-11-01T20:01:43.825101Z,-1.220581,0.42230200000000007,0.7702640000000001
2018-11-01T20:01:44.035101Z,-1.382874,1.235352,-1.282166
2018-11-01T20:01:44.224101Z,0.029053,0.414734,-0.8739620000000001
2018-11-01T20:01:44.421101Z,0.021851,-1.062805,-0.382812
2018-11-01T20:01:44.624101Z,-0.612244,0.877502,-0.44732700000000003
2018-11-01T20:01:44.825101Z,-0.604309,1.395386,-0.318298
2018-11-01T20:01:45.090101Z,-0.999634,-1.1495360000000001,-0.063599
2018-11-01T20:01:45.231101Z,-0.799988,-1.0204469999999999,-1.419861
2018-11-01T20:01:45.636101Z,-0.942749,0.368469,-0.665222
2018-11-01T20:01:45.825101Z,-0.542786,0.277954,0.312195
2018-11-01T20:01:46.034101Z,-0.266907,-1.6333010000000001,-1.08429
2018-11-01T20:01:46.225101Z,-0.5973510000000001,0.569153,-0.6134029999999999
2018-11-01T20:01:46.426101Z,-1.047607,1.605042,0.294128
2018-11-01T20:01:46.627101Z,-0.80304,0.44049099999999997,2.3794560000000002
2018-11-01T20:01:46.824101Z,-0.9908450000000001,-1.756104,-0.263428
2018-11-01T20:01:47.042101Z,-0.740479,-0.437866,-1.005798
2018-11-01T20:01:47.226101Z,0.056396,0.584167,-0.541931
2018-11-01T20:01:47.428101Z,-0.22729499999999997,-0.919861,0.980591
2018-11-01T20:01:47.631101Z,0.031799,-0.37988299999999997,-1.636658
2018-11-01T20:01:47.825101Z,-0.5977779999999999,0.516968,-0.138184
2018-11-01T20:01:48.025101Z,-0.168579,0.126709,0.067383
2018-11-01T20:01:48.224101Z,-0.302063,-2.0383299999999998,0.21417199999999997
2018-11-01T20:01:48.432101Z,-0.612305,-1.284546,-1.3237299999999999
2018-11-01T20:01:48.684101Z,-0.454651,-0.07666,0.156067
2018-11-01T20:01:48.835101Z,0.890808,0.065063,1.177368
2018-11-01T20:01:49.024101Z,0.250854,-1.553955,0.279175
2018-11-01T20:01:49.226101Z,0.702576,-0.502747,-1.140991
2018-11-01T20:01:49.435101Z,0.387939,0.783447,-0.589417
2018-11-01T20:01:49.636101Z,1.1958010000000001,0.8551639999999999,0.310913
2018-11-01T20:01:49.826101Z,0.38500999999999996,-1.608765,-0.9328
2018-11-01T20:01:50.025101Z,-0.068726,-0.282715,-1.405457
2018-11-01T20:01:50.225101Z,0.268921,0.477783,-0.729919
2018-11-01T20:01:50.424101Z,0.801941,-0.587463,1.117126
2018-11-01T20:01:50.686101Z,0.19128399999999998,-0.248962,-1.628784
2018-11-01T20:01:50.829101Z,0.656555,0.729797,0.6682739999999999
2018-11-01T20:01:51.031101Z,1.114258,0.486572,-0.01178
2018-11-01T20:01:51.241101Z,1.857849,-1.220093,0.458679
2018-11-01T20:01:51.424101Z,1.303894,-0.817261,-0.9116209999999999
2018-11-01T20:01:51.628101Z,0.8775629999999999,0.53125,0.47168000000000004
2018-11-01T20:01:51.826101Z,-0.606995,0.8829959999999999,0.067932
2018-11-01T20:01:52.025101Z,-0.136047,0.470459,0.258789
2018-11-01T20:01:52.225101Z,-0.337769,1.336182,-0.8505860000000001
2018-11-01T20:01:52.425101Z,-0.133484,2.375427,-0.787048
2018-11-01T20:01:52.628101Z,-0.187744,2.1821900000000003,-0.460266
2018-11-01T20:01:52.831101Z,-0.070007,0.39550799999999997,-0.294617
2018-11-01T20:01:53.032101Z,0.12951700000000002,0.7013550000000001,-0.594788
2018-11-01T20:01:53.225101Z,-0.398438,1.332703,-0.614929
2018-11-01T20:01:53.430101Z,1.245667,0.886597,-0.30438200000000004
2018-11-01T20:01:53.625101Z,1.363586,0.43273900000000004,0.5119020000000001
2018-11-01T20:01:53.815101Z,-1.003479,1.205811,-0.6286010000000001
2018-11-01T20:01:54.030101Z,-0.759338,1.061707,0.140503
2018-11-01T20:01:54.223101Z,-0.665466,-0.16003399999999998,1.149292
2018-11-01T20:01:54.424101Z,-1.3851930000000001,-1.0422360000000002,0.749695
2018-11-01T20:01:54.625101Z,-0.43518100000000004,-0.24548299999999998,0.102234
2018-11-01T20:01:54.828101Z,1.325623,0.151611,0.348511
2018-11-01T20:01:55.029101Z,0.716553,-1.152161,0.170837
2018-11-01T20:01:55.221101Z,-0.31958000000000003,0.254822,-0.034424
2018-11-01T20:01:55.437101Z,-0.095581,0.8583370000000001,0.33605999999999997
2018-11-01T20:01:55.632101Z,-0.624451,-1.1578979999999999,0.871704
2018-11-01T20:01:55.830101Z,-0.530701,-1.016418,-0.024841
2018-11-01T20:01:56.053101Z,-0.389221,0.34631300000000004,0.059448
2018-11-01T20:01:56.232101Z,-0.042297,0.680481,0.506775
2018-11-01T20:01:56.425101Z,-0.21966599999999997,-1.159363,0.602173
2018-11-01T20:01:56.636101Z,1.007385,-0.080444,-1.7584229999999998
2018-11-01T20:01:56.833101Z,0.118408,1.088013,0.710327
2018-11-01T20:01:57.024101Z,-0.333984,0.007751000000000001,0.683655
2018-11-01T20:01:57.225101Z,-1.31311,-1.515991,0.930359
2018-11-01T20:01:57.425101Z,-0.983093,-0.42858900000000005,-0.744812
2018-11-01T20:01:57.624101Z,-0.7692260000000001,0.33825700000000003,0.577332
2018-11-01T20:01:57.844101Z,-0.299622,-0.6053470000000001,1.564758
2018-11-01T20:01:58.026101Z,1.177246,0.168823,-0.09399400000000001
2018-11-01T20:01:58.229101Z,-0.181213,0.690979,-0.319641
2018-11-01T20:01:58.630101Z,0.203125,-0.037598,0.137024
2018-11-01T20:01:58.824101Z,-0.340881,-1.372986,0.36749299999999996
2018-11-01T20:01:59.025101Z,-0.600647,-0.6152340000000001,-0.187317
2018-11-01T20:01:59.228101Z,-0.123352,0.55365,0.468445
2018-11-01T20:01:59.428101Z,0.615112,-1.3218379999999998,0.41485600000000006
2018-11-01T20:01:59.632101Z,-0.385803,-0.063171,-0.63562
2018-11-01T20:01:59.825101Z,-1.0447389999999999,0.672852,-0.45611599999999997
2018-11-01T20:02:00.025101Z,-0.6157229999999999,-0.603577,1.54126
2018-11-01T20:02:00.269101Z,-1.622742,-1.725159,-0.864563
2018-11-01T20:02:00.435101Z,-1.2216799999999999,-0.16308599999999998,-0.572754
2018-11-01T20:02:00.633101Z,-0.8295899999999999,-0.17395,-0.298279
2018-11-01T20:02:00.825101Z,-2.7019040000000003,-1.3012700000000001,1.4752809999999998
2018-11-01T20:02:01.025101Z,-2.4841919999999997,-1.231689,-0.415649
2018-11-01T20:02:01.225101Z,-1.637329,-0.7246090000000001,-0.17749
2018-11-01T20:02:01.424101Z,-2.1105959999999997,-0.221558,0.9862059999999999
2018-11-01T20:02:01.624101Z,-2.493713,-2.087708,1.3278809999999999
2018-11-01T20:02:01.824101Z,-1.39917,-0.43396,-0.844482
2018-11-01T20:02:02.038101Z,-1.6475830000000002,0.516479,1.719177
2018-11-01T20:02:02.225101Z,-2.040161,0.967041,-2.4845580000000003
2018-11-01T20:02:02.426101Z,-2.558777,0.782471,-0.767517
2018-11-01T20:02:02.628101Z,-2.5979,0.019897,0.49365200000000004
2018-11-01T20:02:02.825101Z,-3.094177,-0.307068,0.9750979999999999
2018-11-01T20:02:03.021101Z,-0.955994,1.3084719999999999,-1.456116
2018-11-01T20:02:03.227101Z,-0.19409200000000001,0.8287959999999999,0.274109
2018-11-01T20:02:03.425101Z,-1.055237,0.579346,-1.006409
2018-11-01T20:02:03.625101Z,-1.6256709999999999,1.1781620000000002,-0.567627
2018-11-01T20:02:03.821101Z,-0.456665,1.0953979999999999,-0.483704
2018-11-01T20:02:04.025101Z,-1.296753,0.340942,-1.572876
2018-11-01T20:02:04.229101Z,-2.025696,0.5101319999999999,-2.150513
2018-11-01T20:02:04.432101Z,-1.322144,1.473694,-0.284912
2018-11-01T20:02:04.627101Z,-0.8573,0.838623,0.946594
2018-11-01T20:02:04.830101Z,-1.361572,-0.30896,-0.14221199999999998
2018-11-01T20:02:05.029101Z,-1.263367,0.35626199999999997,-0.516785
2018-11-01T20:02:05.228101Z,-0.651367,1.5738530000000002,-0.34021
2018-11-01T20:02:05.429101Z,-0.13610799999999998,1.28595,-1.3911129999999998
2018-11-01T20:02:05.633101Z,-1.150085,0.6129760000000001,-2.3296509999999997
2018-11-01T20:02:05.825101Z,-1.502319,1.426086,-1.6422729999999999
2018-11-01T20:02:06.025101Z,0.801575,1.0112299999999999,0.097229
2018-11-01T20:02:06.227101Z,1.377991,-0.889709,-1.138916
2018-11-01T20:02:06.415101Z,-0.763123,1.2163700000000002,-0.08001699999999999
2018-11-01T20:02:06.631101Z,-0.9486690000000001,1.246948,0.12475599999999999
2018-11-01T20:02:06.823101Z,-0.596313,-0.038574000000000004,0.002502
2018-11-01T20:02:07.027101Z,-0.22027600000000003,0.674194,-1.973572
2018-11-01T20:02:07.225101Z,0.72467,-0.043823,-0.572205
2018-11-01T20:02:07.431101Z,-0.253845,0.010803,0.18829300000000002
2018-11-01T20:02:07.631101Z,-0.9246219999999999,0.6130369999999999,-0.212952
2018-11-01T20:02:07.838101Z,-0.721619,0.6111449999999999,0.044495
2018-11-01T20:02:08.031101Z,-0.645386,0.125854,-0.986511
2018-11-01T20:02:08.229101Z,-0.9984129999999999,0.606506,-1.197876
2018-11-01T20:02:08.431101Z,-0.362671,1.3946530000000001,-1.116638
2018-11-01T20:02:08.630101Z,-0.50531,0.87561,-0.296692
2018-11-01T20:02:08.825101Z,-0.236816,-0.767944,0.820068
2018-11-01T20:02:09.024101Z,-0.61261,0.469788,0.250183
2018-11-01T20:02:09.224101Z,-0.939392,0.526794,-0.674255
2018-11-01T20:02:09.431101Z,0.311218,0.22216799999999998,-0.45800799999999997
2018-11-01T20:02:09.631101Z,-0.967651,-0.681824,-0.289673
2018-11-01T20:02:09.825101Z,-0.9412229999999999,-0.058960000000000005,-1.1597899999999999
2018-11-01T20:02:10.025101Z,-0.585083,0.165649,0.18365499999999998
2018-11-01T20:02:10.223101Z,-0.391357,-0.486328,1.623108
2018-11-01T20:02:10.428101Z,-1.185242,-0.12262,-0.887207
2018-11-01T20:02:10.626101Z,-0.7009890000000001,0.304321,0.511353
2018-11-01T20:02:10.825101Z,-0.006592,0.510071,-0.159607
2018-11-01T20:02:11.100101Z,0.8087770000000001,-0.251648,-0.765442
2018-11-01T20:02:11.427101Z,-1.109741,-0.11944600000000001,-0.350586
2018-11-01T20:02:11.629101Z,-0.640625,0.518921,0.4245
2018-11-01T20:02:11.828101Z,-0.554688,-0.413818,0.369019
2018-11-01T20:02:12.023101Z,-0.207092,0.256592,-0.455078
2018-11-01T20:02:12.224101Z,0.354614,0.795715,-0.18249500000000002
2018-11-01T20:02:12.425101Z,0.0025629999999999997,1.394592,0.791443
2018-11-01T20:02:12.625101Z,-0.771423,0.18335,2.4715580000000004
2018-11-01T20:02:12.833101Z,-1.438843,-1.789612,0.626831
2018-11-01T20:02:13.064101Z,-0.637878,-0.251648,-0.200195
2018-11-01T20:02:13.518101Z,0.875732,-0.334351,-0.099121
2018-11-01T20:02:13.759101Z,1.978577,-1.418884,1.281189
2018-11-01T20:02:13.766101Z,0.602417,0.377075,-0.179871
2018-11-01T20:02:13.845101Z,-0.538879,0.672424,-0.306396
2018-11-01T20:02:14.025101Z,-0.13269,-0.911499,-0.9699709999999999
2018-11-01T20:02:14.225101Z,-0.398376,-0.71228,0.11260999999999999
2018-11-01T20:02:14.427101Z,-0.5938720000000001,-0.410583,0.204346
2018-11-01T20:02:14.629101Z,-0.24054,-0.523804,-0.71521
2018-11-01T20:02:14.822101Z,0.9006959999999999,0.42333999999999994,-0.174377
2018-11-01T20:02:15.021101Z,0.267517,0.9729,-0.045531999999999996
2018-11-01T20:02:15.224101Z,-0.9039309999999999,-0.31243899999999997,0.79895
2018-11-01T20:02:15.424101Z,-1.131409,-1.440491,0.298279
2018-11-01T20:02:15.624101Z,-0.581177,0.252075,-0.196899
2018-11-01T20:02:15.827101Z,0.9349370000000001,0.683411,2.454285
2018-11-01T20:02:16.026101Z,0.380432,-1.411011,-0.199097
2018-11-01T20:02:16.230101Z,-0.526123,-0.33813499999999996,-0.43041999999999997
2018-11-01T20:02:16.425101Z,-0.625183,0.9396969999999999,-0.026611000000000003
2018-11-01T20:02:16.624101Z,-2.448608,-0.211792,3.650635
2018-11-01T20:02:16.827101Z,-0.694702,-1.059021,-0.935425
2018-11-01T20:02:17.025101Z,-0.666687,-0.020752,1.115417
2018-11-01T20:02:17.231101Z,-0.15631099999999998,-0.87323,1.4418950000000001
2018-11-01T20:02:17.424101Z,-1.741638,-0.13037100000000001,-1.321899
2018-11-01T20:02:17.640101Z,-0.665588,0.762817,0.42767299999999997
2018-11-01T20:02:17.831101Z,-3.9971309999999995,-1.310791,-0.500183
2018-11-01T20:02:18.027101Z,-3.0910029999999997,-1.1239620000000001,0.73407
2018-11-01T20:02:18.224101Z,-1.407471,-0.026672,0.194458
2018-11-01T20:02:18.442101Z,-1.730347,0.143921,0.950623
2018-11-01T20:02:18.627101Z,-1.083862,-0.81311,1.349609
2018-11-01T20:02:18.824101Z,-1.348633,0.165222,0.567749
2018-11-01T20:02:19.031101Z,-1.2213129999999999,0.887634,1.03186
2018-11-01T20:02:19.227101Z,-1.39978,-0.677124,-1.5582280000000002
2018-11-01T20:02:19.415101Z,-1.741211,0.016541,0.45776400000000006
2018-11-01T20:02:19.626101Z,-2.33075,0.523987,-0.451721
2018-11-01T20:02:19.827101Z,-1.771973,-0.001648,0.653931
2018-11-01T20:02:20.033101Z,-1.4089969999999998,0.379761,-1.6020510000000001
2018-11-01T20:02:20.236101Z,-2.640991,0.9746090000000001,-0.348938
2018-11-01T20:02:20.427101Z,-2.030457,0.518127,1.163208
2018-11-01T20:02:20.625101Z,-2.481995,-0.600891,-0.19280999999999998
2018-11-01T20:02:20.824101Z,-2.039429,0.785034,-0.334106
2018-11-01T20:02:21.027101Z,-0.226135,0.45007299999999995,-0.316711
2018-11-01T20:02:21.226101Z,-1.539856,-0.483154,-0.828918
2018-11-01T20:02:21.428101Z,-1.959595,1.392944,-0.10394300000000001
2018-11-01T20:02:21.625101Z,-2.227661,1.4145510000000001,-0.59314
2018-11-01T20:02:21.824101Z,-2.186584,-0.20959499999999998,-0.598511
2018-11-01T20:02:22.028101Z,-0.758484,0.5014649999999999,-2.052429
2018-11-01T20:02:22.243101Z,0.031494,0.266541,-0.14361600000000002
2018-11-01T20:02:22.425101Z,-1.8748779999999998,0.07733200000000001,0.37554899999999997
2018-11-01T20:02:22.625101Z,-1.518677,1.211487,-1.077759
2018-11-01T20:02:22.826101Z,-1.2090450000000001,1.105286,0.055420000000000004
2018-11-01T20:02:23.024101Z,-1.583008,0.130188,-0.9509280000000001
2018-11-01T20:02:23.239101Z,-0.8962399999999999,1.167908,0.024109000000000002
2018-11-01T20:02:23.457101Z,0.46106,1.155029,-0.270935
2018-11-01T20:02:23.630101Z,0.165222,-0.41467299999999996,-0.778992
2018-11-01T20:02:23.831101Z,-1.3637700000000001,1.6285399999999999,-0.285461
2018-11-01T20:02:24.036101Z,-1.493774,1.4172360000000002,0.129456
2018-11-01T20:02:24.225101Z,-1.3965450000000001,-0.351074,0.20751999999999998
2018-11-01T20:02:24.425101Z,-1.256042,0.8989870000000001,-2.076294
2018-11-01T20:02:24.666101Z,-0.216736,1.626526,0.040649
2018-11-01T20:02:24.823101Z,-0.790283,-0.218323,0.505798
2018-11-01T20:02:25.044101Z,-1.4198,0.492004,-1.6449580000000001
2018-11-01T20:02:26.701101Z,-0.46936000000000005,1.90155,-1.304138
2018-11-01T20:02:26.708101Z,-1.57135,-0.109375,1.443481
2018-11-01T20:02:26.714101Z,-1.7049560000000001,-0.7932130000000001,-0.470825
2018-11-01T20:02:26.720101Z,-1.509644,0.993713,-0.9774780000000001
2018-11-01T20:02:26.726101Z,-0.344116,1.9892580000000002,-0.251404
2018-11-01T20:02:26.734101Z,-1.9617919999999998,0.05499299999999999,1.08844
2018-11-01T20:02:26.740101Z,-0.024902,0.948608,-2.696899
2018-11-01T20:02:26.821101Z,-1.652161,1.72937,-0.131165
2018-11-01T20:02:27.026101Z,-1.461731,0.404846,-0.047852
2018-11-01T20:02:27.225101Z,-1.1553959999999999,-0.622375,-0.600952
2018-11-01T20:02:27.424101Z,-1.0460209999999999,0.277893,-1.3118290000000001
2018-11-01T20:02:27.626101Z,-1.0448,1.028809,-0.716797
2018-11-01T20:02:27.824101Z,-0.801392,-0.154297,0.610352
2018-11-01T20:02:28.026101Z,-0.708679,0.384155,-0.8808590000000001
2018-11-01T20:02:28.224101Z,-1.179993,-0.129333,0.964233
2018-11-01T20:02:28.424101Z,-0.621582,-0.828857,-0.705566
2018-11-01T20:02:28.626101Z,-1.233765,-0.512451,0.405579
2018-11-01T20:02:28.830101Z,-0.9245,0.568787,0.122314
2018-11-01T20:02:29.024101Z,-0.951843,0.512085,0.275391
2018-11-01T20:02:29.230101Z,-0.37200900000000003,0.460449,-0.331665
2018-11-01T20:02:29.423101Z,-0.449585,0.282532,-1.110962
2018-11-01T20:02:29.630101Z,0.45800799999999997,0.298157,-0.505554
2018-11-01T20:02:29.823101Z,0.817871,1.764893,-1.400757
2018-11-01T20:02:30.022101Z,-1.51355,2.3545529999999997,-0.897034
2018-11-01T20:02:30.222101Z,-1.856628,-1.349731,-0.580566
2018-11-01T20:02:30.428101Z,-0.022827,-2.147034,0.29431199999999996
2018-11-01T20:02:30.644101Z,-0.6561279999999999,-0.41931199999999996,0.435974
2018-11-01T20:02:30.824101Z,-0.459229,0.570801,-1.793823
2018-11-01T20:02:31.025101Z,-1.079224,2.4315189999999998,-1.308899
2018-11-01T20:02:31.227101Z,0.09082,0.311768,-0.905518
2018-11-01T20:02:31.425101Z,-1.004211,-0.7453,-0.003052
2018-11-01T20:02:31.646101Z,-1.783508,-0.414062,3.086609
2018-11-01T20:02:31.832101Z,-0.124146,0.474792,-0.09668
2018-11-01T20:02:32.026101Z,-0.32605,0.51947,0.5390010000000001
2018-11-01T20:02:32.229101Z,0.067078,-0.874207,-0.569946
2018-11-01T20:02:32.425101Z,0.139587,0.43237299999999995,-0.313416
2018-11-01T20:02:32.626101Z,-1.452393,2.306396,-0.714172
2018-11-01T20:02:32.824101Z,-0.79303,0.221985,2.697083
2018-11-01T20:02:33.024101Z,-0.9462280000000001,-1.04303,1.0709229999999998
2018-11-01T20:02:33.224101Z,-0.685669,0.229675,-1.25116
2018-11-01T20:02:33.488101Z,-1.213745,0.940369,-1.971313
2018-11-01T20:02:33.619101Z,0.408569,0.029968,0.492126
2018-11-01T20:02:33.823101Z,0.323914,-1.549683,1.345337
2018-11-01T20:02:34.043101Z,0.584534,-0.719055,0.357056
2018-11-01T20:02:34.225101Z,-0.021912,0.556458,-0.9104
2018-11-01T20:02:34.434101Z,0.662659,1.7146,-0.48413100000000003
2018-11-01T20:02:34.627101Z,0.879517,1.068726,0.058776999999999996
2018-11-01T20:02:34.829101Z,-0.607483,-0.46521,0.701721
2018-11-01T20:02:35.025101Z,-1.28949,-0.8950809999999999,-0.011597
2018-11-01T20:02:35.226101Z,-0.48724399999999995,0.608582,-1.1222530000000002
2018-11-01T20:02:35.425101Z,0.7849119999999999,-0.328918,-0.47857700000000003
2018-11-01T20:02:35.630101Z,0.262573,0.000244,-0.325623
2018-11-01T20:02:35.830101Z,-0.276978,0.7658689999999999,-0.212646
2018-11-01T20:02:36.037101Z,-0.443542,0.44213900000000006,-0.508911
2018-11-01T20:02:36.237101Z,-1.4520870000000001,0.08905,1.1177979999999998
2018-11-01T20:02:36.442101Z,-2.380249,-0.866699,-0.38116500000000003
2018-11-01T20:02:36.625101Z,-1.6091309999999999,-0.011475,0.23345900000000003
2018-11-01T20:02:36.822101Z,0.042358,0.39831500000000003,0.53241
2018-11-01T20:02:37.027101Z,-1.611694,0.30493200000000004,1.021729
2018-11-01T20:02:37.225101Z,-0.394897,0.127686,-0.631287
2018-11-01T20:02:37.421101Z,-0.023438,0.330811,-0.20165999999999998
2018-11-01T20:02:37.628101Z,-0.907166,0.350342,0.687317
2018-11-01T20:02:37.828101Z,-2.269348,-1.539368,0.6757810000000001
2018-11-01T20:02:38.031101Z,-2.43103,-0.8648680000000001,0.358948
2018-11-01T20:02:38.227101Z,-1.396973,-0.19635,0.58136
2018-11-01T20:02:38.428101Z,-1.68396,-0.660217,0.400452
2018-11-01T20:02:38.627101Z,-1.6465450000000001,-0.29888899999999996,-0.977417
2018-11-01T20:02:38.825101Z,-1.268677,0.342529,-0.21643099999999998
2018-11-01T20:02:39.020101Z,-2.188416,0.099854,-0.48547399999999996
2018-11-01T20:02:39.424101Z,-2.8571169999999997,0.63562,-0.47186300000000003
2018-11-01T20:02:39.630101Z,-2.007507,1.105408,-0.084656
2018-11-01T20:02:39.822101Z,-0.512756,0.831787,0.144287
2018-11-01T20:02:40.025101Z,-0.6056520000000001,-0.9183959999999999,-0.01001
2018-11-01T20:02:40.224101Z,-0.987366,1.1576540000000002,-0.386414
2018-11-01T20:02:40.424101Z,-1.009827,1.746643,-0.050903
2018-11-01T20:02:40.626101Z,-2.932373,0.509644,-0.067871
2018-11-01T20:02:40.879101Z,-2.636597,0.26617399999999997,-1.253296
2018-11-01T20:02:41.027101Z,-1.538086,1.370667,0.626709
2018-11-01T20:02:41.227101Z,-1.13324,0.553711,2.1384279999999998
2018-11-01T20:02:41.427101Z,-1.73938,0.26672399999999996,-1.631165
2018-11-01T20:02:41.621101Z,-2.521057,1.735657,-0.127563
2018-11-01T20:02:41.831101Z,-2.485779,1.5221559999999998,3.183411
2018-11-01T20:02:42.025101Z,-2.138489,-0.072021,-0.9793700000000001
2018-11-01T20:02:42.223101Z,-1.593445,1.055237,-0.78241
2018-11-01T20:02:42.423101Z,-1.063293,0.562561,1.670837
2018-11-01T20:02:42.624101Z,-0.626038,0.847717,-1.598999
2018-11-01T20:02:42.832101Z,-1.420105,1.9017330000000001,0.38745100000000005
2018-11-01T20:02:43.026101Z,-2.268982,0.841309,-0.878784
2018-11-01T20:02:43.225101Z,-1.6698,0.6740109999999999,-2.048218
2018-11-01T20:02:43.426101Z,-1.165771,0.9901120000000001,1.483582
2018-11-01T20:02:43.625101Z,0.43066400000000005,-0.16534400000000002,-1.672852
2018-11-01T20:02:43.827101Z,-1.504944,1.244324,-2.134216
2018-11-01T20:02:44.027101Z,-1.414795,1.083679,1.866516
2018-11-01T20:02:44.238101Z,-1.361633,-0.370544,-0.13159200000000001
2018-11-01T20:02:44.435101Z,-1.613953,0.27771,-1.403809
2018-11-01T20:02:44.633101Z,-0.146423,0.277283,1.4495850000000001
2018-11-01T20:02:44.825101Z,-0.49523900000000004,0.061707000000000005,-2.2230830000000004
2018-11-01T20:02:45.024101Z,-1.564392,1.022644,-0.046082
2018-11-01T20:02:45.227101Z,-3.2164919999999997,0.7323609999999999,3.4397580000000003
2018-11-01T20:02:45.425101Z,-1.473938,-0.624634,-1.247498
2018-11-01T20:02:45.624101Z,-0.62439,0.596436,-1.053467
2018-11-01T20:02:45.824101Z,0.9408569999999999,-0.340393,1.9476930000000001
2018-11-01T20:02:46.056101Z,-1.9042970000000001,-0.345886,-1.056824
2018-11-01T20:02:46.231101Z,-1.112061,0.18798800000000002,-0.423767
2018-11-01T20:02:46.431101Z,-1.7388919999999999,-0.5349729999999999,0.554016
2018-11-01T20:02:46.626101Z,-0.178284,0.00116,-2.165833
2018-11-01T20:02:46.821101Z,-1.306824,0.272339,0.130859
2018-11-01T20:02:47.026101Z,-0.9584959999999999,-0.63147,2.351562
2018-11-01T20:02:47.225101Z,-0.059814,0.117065,-1.4771729999999998
2018-11-01T20:02:47.426101Z,0.277161,0.5428470000000001,-0.473206
2018-11-01T20:02:47.635101Z,-1.486145,-0.161072,2.365112
2018-11-01T20:02:47.836101Z,-1.7273560000000001,-1.00647,-1.092163
2018-11-01T20:02:48.030101Z,-0.992859,0.578796,0.20751999999999998
2018-11-01T20:02:48.230101Z,-0.07489,-0.27002,0.23492399999999997
2018-11-01T20:02:48.423101Z,0.22790500000000002,-0.8284299999999999,-0.316711
2018-11-01T20:02:48.625101Z,-0.138916,0.277893,-0.516968
2018-11-01T20:02:48.825101Z,-1.024231,0.8319700000000001,0.458313
2018-11-01T20:02:49.111101Z,-1.448364,-0.380188,0.275024
2018-11-01T20:02:49.222101Z,-0.660706,-0.26367199999999996,-2.180359
2018-11-01T20:02:49.432101Z,-0.541443,0.467041,-0.319092
2018-11-01T20:02:49.630101Z,-1.729797,-0.38879400000000003,0.963867
2018-11-01T20:02:49.832101Z,-0.476562,-0.225769,-0.40515100000000004
2018-11-01T20:02:50.022101Z,-0.218994,0.71405,0.226868
2018-11-01T20:02:50.226101Z,-1.9326169999999998,-0.645813,2.99646
2018-11-01T20:02:50.428101Z,-1.336182,-0.570496,-1.4164430000000001
2018-11-01T20:02:50.627101Z,-0.465942,1.193481,-0.19622799999999999
2018-11-01T20:02:50.828101Z,-0.739807,-0.890991,2.587952
2018-11-01T20:02:51.034101Z,-0.949707,-0.11444100000000001,-2.162292
2018-11-01T20:02:51.221101Z,-0.5237430000000001,0.47216800000000003,1.17395
2018-11-01T20:02:51.429101Z,-2.40918,-0.227661,2.291443
2018-11-01T20:02:51.640101Z,-1.9305419999999998,-1.243652,-0.540405
2018-11-01T20:02:51.825101Z,-0.913025,0.633667,-0.370605
2018-11-01T20:02:52.025101Z,0.990051,-0.129578,0.886963
2018-11-01T20:02:52.225101Z,0.38678,-0.624939,-0.8500979999999999
2018-11-01T20:02:52.426101Z,-0.588806,0.733887,0.32495100000000005
2018-11-01T20:02:52.624101Z,-0.526123,0.27624499999999996,0.747375
2018-11-01T20:02:52.824101Z,-1.3520510000000001,-1.134827,0.613831
2018-11-01T20:02:53.025101Z,-1.4229129999999999,-0.270935,-0.154114
2018-11-01T20:02:53.226101Z,-0.597961,0.45385699999999995,1.531189
2018-11-01T20:02:53.424101Z,-1.214417,-1.1474,1.593445
2018-11-01T20:02:53.822101Z,-0.6931149999999999,-0.572937,-0.347351
2018-11-01T20:02:54.026101Z,-0.073181,0.8188479999999999,-0.544495
2018-11-01T20:02:54.227101Z,-1.535217,-0.358154,2.3080439999999998
2018-11-01T20:02:54.426101Z,-1.852966,-0.9238280000000001,-0.0578
2018-11-01T20:02:54.627101Z,-0.5275880000000001,0.29834,-1.2260739999999999
2018-11-01T20:02:54.821101Z,0.256897,-0.028687,0.985291
2018-11-01T20:02:55.024101Z,-0.670349,-0.850525,-0.074158
2018-11-01T20:02:55.239101Z,-0.9183959999999999,-0.018799,-0.23712199999999997
2018-11-01T20:02:55.425101Z,-0.161499,0.036743,-0.147339
2018-11-01T20:02:55.629101Z,-0.187134,-1.355164,-0.35693400000000003
2018-11-01T20:02:55.833101Z,-0.952393,-0.629333,-0.921082
2018-11-01T20:02:56.025101Z,-0.318359,0.536926,0.047302
2018-11-01T20:02:56.224101Z,-0.225769,-1.278015,1.003052
2018-11-01T20:02:56.424101Z,-0.604797,-0.200745,-1.9747919999999999
2018-11-01T20:02:56.624101Z,-0.39379899999999995,1.105469,-0.567444
2018-11-01T20:02:56.824101Z,-1.8474119999999998,-1.0512700000000001,2.309814
2018-11-01T20:02:57.024101Z,-1.035339,-1.348511,-0.62561
2018-11-01T20:02:57.227101Z,0.826965,-0.352539,-0.165222
2018-11-01T20:02:57.425101Z,0.629456,-0.37561,1.349609
2018-11-01T20:02:57.627101Z,-1.9406130000000001,-1.140076,-0.34619099999999997
2018-11-01T20:02:57.825101Z,-1.397278,0.50708,-1.0840450000000001
2018-11-01T20:02:58.026101Z,-0.849426,0.140198,1.236145
2018-11-01T20:02:58.225101Z,-0.851318,-1.885498,-0.167664
2018-11-01T20:02:58.434101Z,-0.9244379999999999,-0.443665,-1.173584
2018-11-01T20:02:58.638101Z,-0.637939,0.358093,0.791992
2018-11-01T20:02:58.824101Z,-0.330383,-1.508057,0.795654
2018-11-01T20:02:59.028101Z,-0.9370120000000001,-0.22210700000000003,-0.8823850000000001
2018-11-01T20:02:59.226101Z,-1.670654,0.5250239999999999,1.1277469999999998
2018-11-01T20:02:59.435101Z,-1.617004,-1.347656,1.144043
2018-11-01T20:02:59.632101Z,-1.802429,-0.9131469999999999,-1.176331
2018-11-01T20:02:59.824101Z,-1.636047,-0.269409,0.0271
2018-11-01T20:03:00.026101Z,-3.048828,-0.26074200000000003,0.810608
2018-11-01T20:03:00.231101Z,-2.905823,-0.096313,-1.437561
2018-11-01T20:03:00.425101Z,-2.232788,0.52417,0.8769530000000001
2018-11-01T20:03:00.625101Z,-2.05896,-0.826111,0.14868199999999998
2018-11-01T20:03:00.825101Z,-1.452332,-0.724915,-1.570007
2018-11-01T20:03:01.025101Z,-1.235962,0.7539060000000001,-0.8845209999999999
2018-11-01T20:03:01.231101Z,-1.391174,1.572937,1.272034
2018-11-01T20:03:01.421101Z,-1.179016,-0.507141,0.048096
2018-11-01T20:03:01.630101Z,-0.504944,-0.93634,-0.50647
2018-11-01T20:03:01.844101Z,-0.44238299999999997,0.25811799999999996,0.102905
2018-11-01T20:03:02.022101Z,-2.045288,-0.48364300000000005,0.8193969999999999
2018-11-01T20:03:02.225101Z,-1.206299,-0.759338,-1.426453
2018-11-01T20:03:02.426101Z,-1.7182009999999999,0.260925,0.330811
2018-11-01T20:03:02.615101Z,-0.251282,-0.43707299999999993,1.486267
2018-11-01T20:03:02.824101Z,-0.337952,-0.816772,0.533936
2018-11-01T20:03:03.063101Z,-0.371704,0.29388400000000003,-0.8161619999999999
2018-11-01T20:03:03.224101Z,0.551941,0.993347,-0.137878
2018-11-01T20:03:03.427101Z,-1.232849,-0.44238299999999997,1.02478
2018-11-01T20:03:03.627101Z,-2.1945189999999997,-0.44824200000000003,-0.8308110000000001
2018-11-01T20:03:03.824101Z,-1.739136,0.653564,-0.267883
2018-11-01T20:03:04.025101Z,0.662048,-0.096558,0.295715
2018-11-01T20:03:04.224101Z,0.312744,-1.8146970000000002,-0.073547
2018-11-01T20:03:04.422101Z,-0.528015,0.002136,-0.50708
2018-11-01T20:03:04.625101Z,-0.29931599999999997,0.8474729999999999,0.070618
2018-11-01T20:03:04.823101Z,-0.14819300000000002,-0.48748800000000003,3.0131229999999998
2018-11-01T20:03:05.032101Z,-1.172607,-1.231873,-0.213928
2018-11-01T20:03:05.231101Z,-1.2303469999999999,0.37554899999999997,0.013672
2018-11-01T20:03:05.433101Z,-0.121216,-0.39306599999999997,-0.25769000000000003
2018-11-01T20:03:05.633101Z,-0.8837889999999999,-1.1085209999999999,1.4927979999999998
2018-11-01T20:03:05.830101Z,-0.623779,0.646179,-1.080566
2018-11-01T20:03:06.022101Z,-0.062134,1.015503,0.499878
2018-11-01T20:03:06.225101Z,-2.062256,-0.792175,-0.200378
2018-11-01T20:03:06.424101Z,-0.57489,-0.350647,-1.306519
2018-11-01T20:03:06.658101Z,-0.226318,0.204407,0.9238280000000001
2018-11-01T20:03:06.826101Z,-0.46032700000000004,-1.188782,0.672546
2018-11-01T20:03:07.231101Z,-0.635681,-0.095764,-1.235474
2018-11-01T20:03:07.441101Z,-0.335327,0.694336,-0.221558
2018-11-01T20:03:07.633101Z,-1.2104489999999999,-0.40124499999999996,2.350586
2018-11-01T20:03:07.828101Z,-1.220093,-0.954895,-0.723938
2018-11-01T20:03:08.026101Z,-0.526123,0.059753,-0.031188999999999998
2018-11-01T20:03:08.225101Z,-0.5469970000000001,-0.663208,2.821777
2018-11-01T20:03:08.492101Z,0.257019,-0.8285520000000001,-0.867676
2018-11-01T20:03:08.632101Z,0.314575,-0.633362,1.608398
2018-11-01T20:03:08.836101Z,0.16571,-0.187805,1.566162
2018-11-01T20:03:09.029101Z,0.38555900000000004,-2.496826,2.291382
2018-11-01T20:03:09.225101Z,0.296265,-0.5390010000000001,-0.104065
2018-11-01T20:03:09.427101Z,0.412292,0.9545290000000001,0.508606
2018-11-01T20:03:09.625101Z,0.320984,-1.443359,1.453857
2018-11-01T20:03:09.824101Z,1.052612,0.337097,-2.203003
2018-11-01T20:03:10.024101Z,-0.154358,2.4853520000000002,-0.175171
2018-11-01T20:03:10.225101Z,-1.08429,0.23962399999999998,0.495911
2018-11-01T20:03:10.432101Z,-0.139771,0.17108199999999998,-1.394714
2018-11-01T20:03:10.624101Z,0.365906,1.467407,-0.309143
2018-11-01T20:03:10.832101Z,1.398499,0.129944,1.326416
2018-11-01T20:03:11.038101Z,0.6896359999999999,0.811951,-1.143921
2018-11-01T20:03:11.225101Z,0.12579300000000002,2.0128169999999996,0.802856
2018-11-01T20:03:11.431101Z,-0.626038,1.072021,1.28186
2018-11-01T20:03:11.624101Z,-0.276733,-0.223877,-0.635376
2018-11-01T20:03:11.825101Z,0.117676,0.897644,-1.783997
2018-11-01T20:03:12.032101Z,0.44281000000000004,2.102051,-0.047119
2018-11-01T20:03:12.237101Z,-0.5054930000000001,-0.258972,-0.63446
2018-11-01T20:03:12.426101Z,0.165649,1.179504,-1.6943970000000002
2018-11-01T20:03:12.625101Z,0.420959,1.907166,0.053711
2018-11-01T20:03:12.825101Z,-0.370728,-0.6952510000000001,1.136536
2018-11-01T20:03:13.024101Z,0.047791,-0.015503,-1.9219970000000002
2018-11-01T20:03:13.226101Z,0.112061,0.923157,-0.86377
2018-11-01T20:03:13.436101Z,1.100586,-0.032349,0.804688
2018-11-01T20:03:13.643101Z,-1.1389770000000001,-0.23590100000000003,-1.23468
2018-11-01T20:03:13.831101Z,0.139771,0.495911,-1.4468379999999998
2018-11-01T20:03:14.032101Z,0.9628909999999999,0.750183,-0.18066400000000002
2018-11-01T20:03:14.231101Z,0.496094,-0.594666,-0.0224
2018-11-01T20:03:14.425101Z,0.24853499999999998,0.437866,-1.374207
2018-11-01T20:03:14.643101Z,1.8267209999999998,0.099976,0.459229
2018-11-01T20:03:14.831101Z,1.1333010000000001,-0.654175,-0.285828
2018-11-01T20:03:15.025101Z,0.16534400000000002,1.0565799999999999,-0.4729
2018-11-01T20:03:15.226101Z,0.9390870000000001,0.689819,0.995667
2018-11-01T20:03:15.432101Z,0.509216,-0.8127439999999999,0.791504
2018-11-01T20:03:15.634101Z,-0.06854199999999999,-0.059204,-1.4153440000000002
2018-11-01T20:03:15.831101Z,-0.034789999999999995,0.826233,0.01178
2018-11-01T20:03:16.026101Z,-0.515625,-0.549927,1.116455
2018-11-01T20:03:16.230101Z,0.14209000000000002,0.655334,-1.149292
2018-11-01T20:03:16.423101Z,0.10675,1.423035,0.473938
2018-11-01T20:03:16.628101Z,-1.0134889999999999,-0.538513,0.752563
2018-11-01T20:03:16.825101Z,0.153381,0.064636,-2.064514
2018-11-01T20:03:17.024101Z,0.07757599999999999,0.34021,1.0142209999999998
2018-11-01T20:03:17.224101Z,-0.002502,-0.8081050000000001,1.266235
2018-11-01T20:03:17.454101Z,0.391785,-0.416626,-1.5285030000000002
2018-11-01T20:03:17.626101Z,0.40313699999999997,0.919006,-0.338074
2018-11-01T20:03:17.829101Z,-0.932617,-1.591553,3.100708
2018-11-01T20:03:18.030101Z,1.700684,-1.614441,-0.49108900000000005
2018-11-01T20:03:18.224101Z,-0.31066900000000003,-1.164001,0.43652299999999994
2018-11-01T20:03:18.425101Z,0.16802999999999998,0.637451,0.13562000000000002
2018-11-01T20:03:18.642101Z,-0.182739,-0.057373,1.079712
2018-11-01T20:03:18.827101Z,0.513794,0.180847,-0.046508999999999995
2018-11-01T20:03:19.025101Z,0.49902299999999994,1.220581,-0.695984
2018-11-01T20:03:19.225101Z,-0.945801,2.226379,-0.33313000000000004
2018-11-01T20:03:19.425101Z,-0.14599600000000001,1.020935,-0.301514
2018-11-01T20:03:19.825101Z,-0.518433,0.149475,-0.6410520000000001
2018-11-01T20:03:20.078101Z,-0.270996,0.7773439999999999,-0.585083
2018-11-01T20:03:20.231101Z,-0.052124000000000004,1.406616,0.456665
2018-11-01T20:03:20.431101Z,-0.16381800000000002,0.781799,-0.8244020000000001
2018-11-01T20:03:20.625101Z,-0.910583,0.380554,-0.164246
2018-11-01T20:03:20.824101Z,-1.221008,0.41937299999999994,0.339844
2018-11-01T20:03:21.026101Z,-1.16803,0.076782,0.9716799999999999
2018-11-01T20:03:21.224101Z,-0.9431149999999999,-0.13409400000000002,0.590515
2018-11-01T20:03:21.424101Z,0.47338900000000006,0.49542200000000003,-0.126892
2018-11-01T20:03:21.624101Z,0.67395,0.24951199999999998,0.690613
2018-11-01T20:03:21.825101Z,1.299683,-1.460876,0.259521
2018-11-01T20:03:22.037101Z,0.55481,0.373596,0.17938199999999999
2018-11-01T20:03:22.228101Z,0.294128,1.424133,-0.8662719999999999
2018-11-01T20:03:22.430101Z,-0.7105100000000001,-0.303284,3.0657349999999997
2018-11-01T20:03:22.626101Z,-0.48205600000000004,-2.0322880000000003,0.270203
2018-11-01T20:03:22.831101Z,0.350952,-0.405518,-0.69989
2018-11-01T20:03:23.024101Z,1.3378299999999999,0.198975,1.059692
2018-11-01T20:03:23.234101Z,-1.173706,-2.116821,1.9593509999999998
2018-11-01T20:03:23.432101Z,1.3208010000000001,-0.963623,-1.397705
2018-11-01T20:03:23.625101Z,-0.10919200000000001,0.444458,-1.35614
2018-11-01T20:03:23.824101Z,-0.558716,2.529846,1.646423
2018-11-01T20:03:24.025101Z,-0.235413,-0.14416500000000002,0.75238
2018-11-01T20:03:24.225101Z,0.755554,-0.277832,-0.34375
2018-11-01T20:03:24.424101Z,0.134705,0.776123,-0.76178
2018-11-01T20:03:24.624101Z,0.790405,1.159973,-0.25116
2018-11-01T20:03:24.825101Z,1.324707,0.342468,0.19628900000000002
2018-11-01T20:03:25.026101Z,-1.7821040000000001,0.351929,0.16375699999999999
2018-11-01T20:03:25.227101Z,-1.694092,0.663086,0.45214799999999994
2018-11-01T20:03:25.443101Z,0.476318,0.490356,0.374329
2018-11-01T20:03:25.624101Z,1.7053220000000002,-0.6641239999999999,-0.7226560000000001
2018-11-01T20:03:25.825101Z,1.3995360000000001,-0.031921,-0.9050290000000001
2018-11-01T20:03:26.025101Z,0.5922850000000001,0.519958,-1.135925
2018-11-01T20:03:26.228101Z,1.294861,1.045044,0.983826
2018-11-01T20:03:26.433101Z,0.789551,1.407227,-1.040894
2018-11-01T20:03:26.624101Z,-0.010254000000000001,0.634583,-0.7363890000000001
2018-11-01T20:03:26.825101Z,-0.000305,0.22729499999999997,-1.53302
2018-11-01T20:03:27.024101Z,-1.552368,0.608154,-0.403381
2018-11-01T20:03:27.224101Z,-1.619995,0.022156,0.21099899999999996
2018-11-01T20:03:27.425101Z,0.831421,2.0,0.559204
2018-11-01T20:03:27.624101Z,-0.141052,1.8764040000000002,-0.725403
2018-11-01T20:03:27.824101Z,0.16449,1.191223,-0.129028
2018-11-01T20:03:28.024101Z,0.355713,0.53241,-0.641418
2018-11-01T20:03:28.224101Z,0.246155,0.222656,-1.2886959999999998
2018-11-01T20:03:28.431101Z,-0.463318,0.022705,-0.757263
2018-11-01T20:03:28.625101Z,-1.374939,1.918335,-2.1696169999999997
2018-11-01T20:03:28.826101Z,0.262329,1.607849,0.7280270000000001
2018-11-01T20:03:29.025101Z,-0.358582,1.536804,-0.9562379999999999
2018-11-01T20:03:29.225101Z,-2.083618,0.879028,0.100586
2018-11-01T20:03:29.425101Z,-1.0074459999999998,0.8411870000000001,3.124756
2018-11-01T20:03:29.616101Z,-0.12701400000000002,1.0595700000000001,-0.302673
2018-11-01T20:03:29.824101Z,0.412659,0.897705,-0.577209
2018-11-01T20:03:30.026101Z,0.200745,1.24292,-1.166504
2018-11-01T20:03:30.224101Z,1.240173,0.18249500000000002,-1.395935
2018-11-01T20:03:30.449101Z,0.174744,-0.092041,0.350403
2018-11-01T20:03:30.630101Z,-1.066467,-0.429138,0.41900600000000005
2018-11-01T20:03:30.825101Z,-1.3097530000000002,0.10919200000000001,-0.560669
2018-11-01T20:03:31.027101Z,-1.28064,0.64856,-0.493835
2018-11-01T20:03:31.225101Z,-3.020996,1.9403080000000001,1.284546
2018-11-01T20:03:31.433101Z,1.411743,1.274109,-1.371826
2018-11-01T20:03:31.624101Z,-0.216736,0.647827,-0.665955
2018-11-01T20:03:31.828101Z,-0.367554,1.431274,-0.464417
2018-11-01T20:03:32.024101Z,0.070374,2.028076,-1.014893
2018-11-01T20:03:32.435101Z,-0.283875,1.416931,-0.291321
2018-11-01T20:03:32.639101Z,-1.2807620000000002,-0.5933229999999999,-0.848267
2018-11-01T20:03:32.825101Z,-1.645935,-0.316895,-1.61554
2018-11-01T20:03:33.033101Z,-0.39563000000000004,1.001953,-0.510254
2018-11-01T20:03:33.230101Z,-0.6089479999999999,-0.60083,0.30444299999999996
2018-11-01T20:03:33.426101Z,-0.682678,-0.1427,-1.842285
2018-11-01T20:03:33.625101Z,-1.683289,1.804504,0.220642
2018-11-01T20:03:33.826101Z,-1.8829349999999998,0.562439,1.268799
2018-11-01T20:03:34.024101Z,-2.2946779999999998,-0.883179,0.058166999999999996
2018-11-01T20:03:34.224101Z,-1.4780879999999998,0.112793,-0.5747680000000001
2018-11-01T20:03:34.425101Z,-0.09979199999999999,0.265015,0.138062
2018-11-01T20:03:34.638101Z,-0.863403,0.07757599999999999,2.3815310000000003
2018-11-01T20:03:35.724101Z,-1.1674799999999999,1.09845,-0.451599
2018-11-01T20:03:35.730101Z,-1.980835,0.280823,-0.956909
2018-11-01T20:03:35.736101Z,-2.3190310000000003,-1.1629639999999999,1.140442
2018-11-01T20:03:35.742101Z,-1.110901,0.328979,-1.402466
2018-11-01T20:03:35.749101Z,-1.371521,0.42126499999999995,0.362854
2018-11-01T20:03:35.837101Z,-0.476257,-0.223206,0.18829300000000002
2018-11-01T20:03:36.025101Z,-0.908508,0.262878,-0.888733
2018-11-01T20:03:36.226101Z,0.140747,0.342773,-1.523254
2018-11-01T20:03:36.432101Z,-0.828735,1.376953,0.806702
2018-11-01T20:03:36.625101Z,-1.0271,0.161865,1.8731080000000002
2018-11-01T20:03:36.827101Z,-2.046143,-0.719238,0.18371600000000002
2018-11-01T20:03:37.043101Z,-1.8013310000000002,-0.21936,-0.437988
2018-11-01T20:03:37.226101Z,-0.976685,0.5858760000000001,0.025818
2018-11-01T20:03:37.427101Z,-1.536621,0.565308,-0.755554
2018-11-01T20:03:37.627101Z,-2.144714,0.638062,-0.58606
2018-11-01T20:03:37.824101Z,-1.593933,0.569519,-0.067566
2018-11-01T20:03:38.026101Z,0.881409,0.11389200000000001,0.25885
2018-11-01T20:03:38.225101Z,-0.140625,-0.5817869999999999,-0.220825
2018-11-01T20:03:38.424101Z,-0.25708000000000003,-0.036194,0.290955
2018-11-01T20:03:38.624101Z,0.10394300000000001,0.606689,-1.05603
2018-11-01T20:03:38.824101Z,0.181274,1.516846,0.747742
2018-11-01T20:03:39.024101Z,-0.909668,0.18512,0.81958
2018-11-01T20:03:39.230101Z,-0.278381,-1.0065309999999998,-0.547424
2018-11-01T20:03:39.430101Z,-0.350037,-1.050781,-0.472229
2018-11-01T20:03:39.626101Z,-1.408264,-0.018555000000000002,0.703491
2018-11-01T20:03:39.824101Z,-0.7445069999999999,0.60968,0.049683
2018-11-01T20:03:40.025101Z,-0.386047,0.301331,-0.484009
2018-11-01T20:03:40.243101Z,-0.023071,0.15863,0.161438
2018-11-01T20:03:40.431101Z,-0.28772,0.271667,0.138428
2018-11-01T20:03:40.625101Z,-0.122925,0.190002,-0.036743
2018-11-01T20:03:40.824101Z,-0.067017,0.172485,-0.11914100000000001
2018-11-01T20:03:41.031101Z,-0.020630000000000003,0.221985,-0.14978
2018-11-01T20:03:41.232101Z,0.08001699999999999,0.062988,0.185669
2018-11-01T20:03:41.428101Z,-0.22784400000000002,0.139648,-0.16095
2018-11-01T20:03:41.631101Z,0.13250699999999999,0.350647,-0.180359
2018-11-01T20:03:41.826101Z,0.688293,-0.18670699999999998,-0.977356
2018-11-01T20:03:42.024101Z,0.963989,-0.428162,-0.23663299999999998
2018-11-01T20:03:42.224101Z,1.5509030000000001,0.920227,0.109009
2018-11-01T20:03:42.426101Z,-0.915344,-0.38769499999999996,-0.185364
2018-11-01T20:03:42.627101Z,-0.44751,-0.014221000000000001,0.824829
2018-11-01T20:03:42.824101Z,-1.929138,-0.167786,0.243713
2018-11-01T20:03:43.024101Z,-1.0221559999999998,0.35320999999999997,-0.464417
2018-11-01T20:03:43.230101Z,-0.809448,0.16430699999999998,-0.262024
2018-11-01T20:03:43.431101Z,-0.235046,-0.60675,-0.8377690000000001
2018-11-01T20:03:43.637101Z,0.12243699999999999,0.07055700000000001,-0.805481
