Datetime,accx,accy,accz
2018-09-26T22:36:46.780635Z,0.0,0.0,0.0
2018-09-26T22:36:47.142635Z,-0.17593399999999998,0.31255700000000003,-0.255594
2018-09-26T22:36:47.360635Z,0.11776500000000001,0.392943,-0.21768099999999999
2018-09-26T22:36:47.541635Z,0.652091,0.642925,-0.506408
2018-09-26T22:36:47.742635Z,-0.25208400000000003,0.324575,0.358648
2018-09-26T22:36:47.942635Z,0.018278,-0.11294100000000001,-0.628149
2018-09-26T22:36:48.143635Z,-0.35330300000000003,-0.360904,1.440719
2018-09-26T22:36:48.355635Z,-0.777423,-1.227592,0.45874899999999996
2018-09-26T22:36:48.542635Z,-0.098974,0.041048,-0.079462
2018-09-26T22:36:48.743635Z,-0.058692999999999995,-0.191597,0.139535
2018-09-26T22:36:48.942635Z,0.720887,-0.573487,1.331286
2018-09-26T22:36:49.160635Z,1.032161,-1.014369,-0.260421
2018-09-26T22:36:49.346635Z,1.127623,-0.502339,1.09345
2018-09-26T22:36:49.543635Z,0.750388,-1.9940369999999998,0.9297979999999999
2018-09-26T22:36:49.742635Z,0.769185,-1.664769,-0.034804
2018-09-26T22:36:49.946635Z,0.11360899999999999,-0.701616,-0.439535
2018-09-26T22:36:50.143635Z,0.215739,-0.870049,1.243066
2018-09-26T22:36:50.345635Z,0.275602,-1.332555,0.23167100000000002
2018-09-26T22:36:50.545635Z,0.646246,-0.25572,-1.143766
2018-09-26T22:36:50.743635Z,0.979347,0.46638500000000005,0.136164
2018-09-26T22:36:50.944635Z,-0.6063350000000001,-1.740016,0.80523
2018-09-26T22:36:51.144635Z,-0.012217,-1.6849180000000001,-0.515864
2018-09-26T22:36:51.344635Z,-0.191656,-0.869743,-0.09171499999999999
2018-09-26T22:36:51.545635Z,0.101775,0.276742,0.8736280000000001
2018-09-26T22:36:51.745635Z,0.329832,-1.559248,0.24906199999999998
2018-09-26T22:36:51.944635Z,-0.379319,-1.621259,-0.0075769999999999995
2018-09-26T22:36:52.145635Z,-0.37241399999999997,-1.142152,1.045535
2018-09-26T22:36:52.345635Z,0.297358,-0.9635969999999999,0.56313
2018-09-26T22:36:52.545635Z,-0.002718,0.403733,-0.169327
2018-09-26T22:36:52.746635Z,0.5211979999999999,0.064013,0.194987
2018-09-26T22:36:52.947635Z,0.798461,1.1951379999999998,0.08808099999999999
2018-09-26T22:36:53.146635Z,0.551074,0.8797200000000001,0.763016
2018-09-26T22:36:53.346635Z,-1.2905950000000002,-1.0630950000000001,-1.153347
2018-09-26T22:36:53.547635Z,-0.108582,0.061665,-0.139795
2018-09-26T22:36:53.747635Z,-0.249406,0.194929,-0.134625
2018-09-26T22:36:53.956635Z,0.433906,0.501262,1.479134
2018-09-26T22:36:54.216635Z,1.219968,-1.156336,-0.713724
2018-09-26T22:36:54.360635Z,0.953044,-0.082497,-0.217239
2018-09-26T22:36:54.547635Z,0.517454,0.91527,1.072378
2018-09-26T22:36:54.746635Z,0.013833000000000002,-0.705291,0.332057
2018-09-26T22:36:54.947635Z,0.179955,-0.042836,-0.928092
2018-09-26T22:36:55.147635Z,-0.4016,0.783319,0.092533
2018-09-26T22:36:55.348635Z,-0.25964699999999996,1.2012209999999999,0.377884
2018-09-26T22:36:55.546635Z,1.0536,-1.393689,1.6714099999999998
2018-09-26T22:36:55.747635Z,-0.196786,0.157132,0.019877000000000002
2018-09-26T22:36:55.948635Z,-0.5363140000000001,0.551071,0.250408
2018-09-26T22:36:56.159635Z,-1.183677,-0.9852920000000001,-0.021097
2018-09-26T22:36:56.348635Z,0.165113,-1.959496,-0.8952129999999999
2018-09-26T22:36:56.549635Z,-0.618766,0.528982,1.4693459999999998
2018-09-26T22:36:56.749635Z,0.6311260000000001,-1.1629690000000001,0.961517
2018-09-26T22:36:56.967635Z,0.651049,-0.8564579999999999,-1.566343
2018-09-26T22:36:57.150635Z,-0.25454099999999996,0.0954,-0.070677
2018-09-26T22:36:57.349635Z,-0.194702,-0.8455020000000001,0.347729
2018-09-26T22:36:57.550635Z,-0.004877,-0.919049,-0.971057
2018-09-26T22:36:57.749635Z,0.141025,0.382944,0.131166
2018-09-26T22:36:57.949635Z,0.5250100000000001,0.585867,1.404939
2018-09-26T22:36:58.149635Z,0.9557899999999999,-1.079288,-0.453006
2018-09-26T22:36:58.350635Z,0.457013,-0.453326,-0.28873000000000004
2018-09-26T22:36:58.588635Z,0.471591,0.14188900000000002,1.547269
2018-09-26T22:36:58.786635Z,1.397548,-1.509881,1.102753
2018-09-26T22:36:59.001635Z,0.5271020000000001,-0.940615,-0.301939
2018-09-26T22:36:59.149635Z,0.27061799999999997,0.42191599999999996,0.384015
2018-09-26T22:36:59.349635Z,-0.232852,-0.373844,1.009806
2018-09-26T22:36:59.588635Z,0.258764,-1.686434,1.18785
2018-09-26T22:36:59.751635Z,-0.11161700000000001,0.13828,-0.25712399999999996
2018-09-26T22:36:59.952635Z,-0.197158,0.7605430000000001,1.394168
2018-09-26T22:37:00.152635Z,0.017154,-0.607561,0.5739609999999999
2018-09-26T22:37:00.421635Z,0.354607,-1.8258459999999999,-0.319413
2018-09-26T22:37:00.552635Z,0.176236,0.751258,0.362529
2018-09-26T22:37:00.753635Z,0.012722,-0.693186,1.4061489999999999
2018-09-26T22:37:00.951635Z,0.8693299999999999,-1.306224,-0.6259779999999999
2018-09-26T22:37:01.152635Z,0.227958,-1.3632229999999999,-0.49081499999999995
2018-09-26T22:37:01.369635Z,-0.654972,0.729716,1.250802
2018-09-26T22:37:01.567635Z,-0.477214,-0.994524,0.494331
2018-09-26T22:37:01.751635Z,0.12247899999999999,-1.075921,-0.9477969999999999
2018-09-26T22:37:01.953635Z,1.0038790000000002,-0.470772,1.02053
2018-09-26T22:37:02.153635Z,0.210569,-1.121092,0.5850479999999999
2018-09-26T22:37:02.351635Z,0.535592,-0.174837,-1.477331
2018-09-26T22:37:02.553635Z,-0.037091000000000006,0.485335,0.619451
2018-09-26T22:37:02.753635Z,-0.29391300000000004,0.22246999999999997,1.8286169999999997
2018-09-26T22:37:02.954635Z,-0.090686,-0.673554,-1.3951440000000002
2018-09-26T22:37:03.154635Z,-0.003005,0.623467,-0.46887700000000004
2018-09-26T22:37:03.352635Z,0.24313099999999999,0.569117,1.761189
2018-09-26T22:37:03.554635Z,0.579511,-1.980091,0.953307
2018-09-26T22:37:03.755635Z,-0.013613,0.087409,-0.762486
2018-09-26T22:37:04.032635Z,0.07828500000000001,0.52863,0.70587
2018-09-26T22:37:04.154635Z,-0.147242,0.110266,0.696625
2018-09-26T22:37:04.368635Z,-0.081312,-1.1723299999999999,-0.084234
2018-09-26T22:37:04.553635Z,0.368969,0.297246,0.289889
2018-09-26T22:37:04.754635Z,0.65993,-0.484429,1.715873
2018-09-26T22:37:04.955635Z,0.161124,-0.775047,-0.608437
2018-09-26T22:37:05.156635Z,0.48631199999999997,-0.625369,-0.7321479999999999
2018-09-26T22:37:05.357635Z,-0.22098299999999998,-0.29479,1.099538
2018-09-26T22:37:05.562635Z,0.058395,-1.278481,-0.746271
2018-09-26T22:37:05.756635Z,0.847354,-0.607808,-0.432054
2018-09-26T22:37:05.956635Z,1.4721540000000002,-0.457429,0.8563799999999999
2018-09-26T22:37:06.156635Z,2.2919169999999998,-1.528089,0.456446
2018-09-26T22:37:06.356635Z,1.0422719999999999,-1.235884,-0.462987
2018-09-26T22:37:06.557635Z,0.110623,0.152412,0.551814
2018-09-26T22:37:06.756635Z,-0.001632,0.21736599999999998,1.147359
2018-09-26T22:37:06.956635Z,-0.48818500000000004,-1.608709,-0.6953
2018-09-26T22:37:07.157635Z,-0.16831,-0.351533,-0.406744
2018-09-26T22:37:07.358635Z,0.367555,0.179707,0.43641899999999995
2018-09-26T22:37:07.556635Z,0.074657,-0.939651,1.9868830000000002
2018-09-26T22:37:07.756635Z,0.199181,-1.041002,-0.36833
2018-09-26T22:37:07.958635Z,-0.174245,0.571387,0.849875
2018-09-26T22:37:08.157635Z,-0.8431770000000001,-0.35141,1.244807
2018-09-26T22:37:08.363635Z,-0.37096399999999996,-1.583858,-0.740742
2018-09-26T22:37:08.572635Z,-0.46094799999999997,0.441834,0.925703
2018-09-26T22:37:08.772635Z,0.353842,-0.651354,0.9494739999999999
2018-09-26T22:37:08.964635Z,0.9894290000000001,-1.2396209999999999,0.159429
2018-09-26T22:37:09.157635Z,-0.141002,-0.361214,-1.4632120000000002
2018-09-26T22:37:09.375635Z,0.19531199999999999,0.9921610000000001,1.091032
2018-09-26T22:37:09.559635Z,-0.32914,-1.363692,0.68862
2018-09-26T22:37:09.785635Z,0.045232,-1.380002,-0.989574
2018-09-26T22:37:09.972635Z,-0.34731100000000004,-0.62792,-0.359976
2018-09-26T22:37:10.161635Z,0.761242,-0.489559,1.414025
2018-09-26T22:37:10.359635Z,0.856308,-0.729061,-0.376701
2018-09-26T22:37:10.573635Z,0.120779,-0.066133,-1.111317
2018-09-26T22:37:10.759635Z,-0.238715,0.508602,0.05513
2018-09-26T22:37:10.959635Z,-0.42460200000000003,-0.897891,1.30484
2018-09-26T22:37:11.158635Z,0.114166,-1.082418,-0.702362
2018-09-26T22:37:11.386635Z,0.38259299999999996,-0.333433,-1.034965
2018-09-26T22:37:11.561635Z,-0.377772,0.928399,0.332988
2018-09-26T22:37:11.774635Z,0.967407,-1.410061,0.588554
2018-09-26T22:37:11.960635Z,0.023114,-0.83062,-1.12905
2018-09-26T22:37:12.160635Z,0.114897,-0.027964,-0.0862
2018-09-26T22:37:12.359635Z,1.0686639999999998,1.665598,-0.172066
2018-09-26T22:37:12.561635Z,-0.596209,-1.41019,0.203059
2018-09-26T22:37:12.760635Z,-0.131353,-0.544733,-0.8970950000000001
2018-09-26T22:37:12.962635Z,0.37953600000000004,0.432155,0.377139
2018-09-26T22:37:13.162635Z,1.431111,0.5041869999999999,1.2086219999999999
2018-09-26T22:37:13.373635Z,0.328229,-0.9719200000000001,-0.693912
2018-09-26T22:37:13.561635Z,-0.300653,-0.044705,-0.723992
2018-09-26T22:37:13.761635Z,0.11211600000000001,0.384399,1.08651
2018-09-26T22:37:13.961635Z,-0.327585,-0.120474,1.2616889999999998
2018-09-26T22:37:14.174635Z,-0.6179399999999999,-0.727418,-0.271675
2018-09-26T22:37:14.362635Z,-0.5288689999999999,0.39671799999999996,0.031298
2018-09-26T22:37:14.563635Z,-0.5024109999999999,0.8488879999999999,0.8283709999999999
2018-09-26T22:37:14.764635Z,0.535357,-0.640817,1.058363
2018-09-26T22:37:14.964635Z,-0.34434000000000003,-0.055251999999999996,-0.707592
2018-09-26T22:37:15.171635Z,-0.029789999999999997,0.648297,0.352921
2018-09-26T22:37:15.363635Z,-0.6502819999999999,0.644625,0.005185
2018-09-26T22:37:15.563635Z,-0.734316,-0.9812709999999999,0.378807
2018-09-26T22:37:15.762635Z,-0.302163,0.098687,-0.307713
2018-09-26T22:37:15.963635Z,-0.662668,0.553059,0.34731100000000004
2018-09-26T22:37:16.164635Z,0.271183,-0.5433859999999999,1.518508
2018-09-26T22:37:16.365635Z,0.6506310000000001,-0.633687,-0.881675
2018-09-26T22:37:16.566635Z,-0.20483400000000002,0.994554,-0.74144
2018-09-26T22:37:16.784635Z,-0.28683000000000003,0.6945819999999999,0.968987
2018-09-26T22:37:16.976635Z,0.360021,-1.129508,0.358916
2018-09-26T22:37:17.163635Z,0.4918,-1.0538020000000001,-1.091982
2018-09-26T22:37:17.380635Z,0.054536,0.6785359999999999,0.830044
2018-09-26T22:37:17.565635Z,-0.040548,-1.023463,1.025923
2018-09-26T22:37:17.766635Z,-0.067474,-0.335571,-1.0817350000000001
2018-09-26T22:37:17.966635Z,-0.171284,-0.137926,0.17167000000000002
2018-09-26T22:37:18.167635Z,-0.23210799999999998,0.81505,0.7476619999999999
2018-09-26T22:37:18.365635Z,0.170397,-1.0295290000000001,0.633346
2018-09-26T22:37:18.566635Z,0.307053,-0.598294,-0.776925
2018-09-26T22:37:18.766635Z,-0.37043400000000004,0.5225989999999999,-0.6422720000000001
2018-09-26T22:37:18.966635Z,0.18753,-0.268596,0.590396
2018-09-26T22:37:19.220635Z,0.096162,-0.7744270000000001,-0.05825
2018-09-26T22:37:19.367635Z,-0.152057,0.079261,-0.8665649999999999
2018-09-26T22:37:19.613635Z,0.23351599999999997,0.360929,0.196375
2018-09-26T22:37:19.774635Z,-0.540117,-0.653638,0.520493
2018-09-26T22:37:19.970635Z,-0.43025699999999995,-0.524532,-0.937842
2018-09-26T22:37:20.166635Z,-0.42300600000000005,0.045013,-0.37195500000000004
2018-09-26T22:37:20.367635Z,-0.064057,0.275424,0.697379
2018-09-26T22:37:20.568635Z,0.621354,-0.949903,0.441717
2018-09-26T22:37:20.768635Z,-0.401931,-1.111873,-0.9092600000000001
2018-09-26T22:37:20.968635Z,0.265691,0.325496,-0.08543099999999999
2018-09-26T22:37:21.167635Z,0.491672,0.0016510000000000001,1.128947
2018-09-26T22:37:21.367635Z,-0.316728,-0.913092,-0.304323
2018-09-26T22:37:21.579635Z,0.16914300000000002,0.037334,-0.21827600000000003
2018-09-26T22:37:21.766635Z,-0.67,0.33063200000000004,0.182498
2018-09-26T22:37:21.982635Z,-1.351775,0.804245,0.524446
2018-09-26T22:37:22.182635Z,-1.2953629999999998,-0.537269,-0.154023
2018-09-26T22:37:22.369635Z,-0.7652260000000001,0.037781999999999996,-0.348905
2018-09-26T22:37:22.579635Z,-1.184674,0.349962,0.5796
2018-09-26T22:37:22.768635Z,-1.3280370000000001,-0.9880389999999999,1.307576
2018-09-26T22:37:22.970635Z,-0.123714,-0.6847880000000001,-0.19567
2018-09-26T22:37:23.169635Z,0.16103399999999998,0.316746,0.64432
2018-09-26T22:37:23.369635Z,0.755812,0.016006,0.888933
2018-09-26T22:37:23.570635Z,1.166726,-0.340904,0.078807
2018-09-26T22:37:23.768635Z,0.54611,0.62108,0.005494
2018-09-26T22:37:23.969635Z,0.875174,-0.229028,0.9633940000000001
2018-09-26T22:37:24.171635Z,0.882439,-0.18878,-0.24201599999999998
2018-09-26T22:37:24.369635Z,1.111724,-0.159023,-0.206159
2018-09-26T22:37:24.570635Z,2.221438,0.147963,0.9211440000000001
2018-09-26T22:37:24.769635Z,2.919492,-0.8857229999999999,-0.083826
2018-09-26T22:37:24.971635Z,1.488592,-0.696339,-0.118361
2018-09-26T22:37:25.171635Z,0.167623,-0.449558,0.058806
2018-09-26T22:37:25.371635Z,-0.7684770000000001,-0.044648,1.0535940000000001
2018-09-26T22:37:25.571635Z,-0.451887,-1.081533,-0.39561399999999997
2018-09-26T22:37:25.789635Z,-0.385779,-0.340119,-0.406968
2018-09-26T22:37:26.004635Z,-0.6399020000000001,0.379206,0.221966
2018-09-26T22:37:26.171635Z,0.8241360000000001,-1.2742,0.645076
2018-09-26T22:37:26.376635Z,0.632795,-0.742278,-0.662669
2018-09-26T22:37:26.572635Z,-0.292526,-0.12899000000000002,-0.594641
2018-09-26T22:37:26.772635Z,0.21734099999999998,0.222725,1.523903
2018-09-26T22:37:26.973635Z,2.290504,-0.787686,0.910393
2018-09-26T22:37:27.172635Z,1.302729,-1.2248350000000001,-0.080915
2018-09-26T22:37:27.373635Z,-0.402262,-1.193689,0.48626499999999995
2018-09-26T22:37:27.574635Z,-0.598448,0.546859,0.423346
2018-09-26T22:37:27.773635Z,1.607314,-1.91175,0.606971
2018-09-26T22:37:27.972635Z,0.825239,-0.560287,0.12268599999999999
2018-09-26T22:37:28.173635Z,-0.025216,-0.308812,-0.12086500000000001
2018-09-26T22:37:28.374635Z,0.088376,0.136567,0.827738
2018-09-26T22:37:28.630635Z,0.246238,-1.232098,0.133889
2018-09-26T22:37:28.772635Z,0.880116,-0.269295,-0.584689
2018-09-26T22:37:28.992635Z,-0.451999,-0.41634,1.137458
2018-09-26T22:37:29.173635Z,-0.110049,-0.6260640000000001,1.451554
2018-09-26T22:37:29.373635Z,-0.21722800000000003,-0.958542,-0.31018
2018-09-26T22:37:29.573635Z,-0.12833699999999998,-0.061153,-0.299601
2018-09-26T22:37:29.773635Z,-0.319544,0.826923,0.80784
2018-09-26T22:37:29.974635Z,-0.6739539999999999,-0.619251,2.060046
2018-09-26T22:37:30.173635Z,0.29578899999999997,-0.903827,-0.49895900000000004
2018-09-26T22:37:30.373635Z,-0.23869899999999997,-0.108616,-0.44706
2018-09-26T22:37:30.574635Z,-0.12424400000000001,0.688221,1.54588
2018-09-26T22:37:30.784635Z,0.682895,-1.896814,0.215852
2018-09-26T22:37:30.974635Z,-0.11938,0.038908,-0.264754
2018-09-26T22:37:31.175635Z,-0.08706699999999999,0.8738950000000001,0.081103
2018-09-26T22:37:31.377635Z,-0.15936199999999998,-0.293864,1.686522
2018-09-26T22:37:31.576635Z,0.26261100000000004,-1.50509,0.805363
2018-09-26T22:37:31.789635Z,0.32257199999999997,-0.388549,-0.670847
2018-09-26T22:37:32.059635Z,-0.041272,0.784894,0.35365
2018-09-26T22:37:32.175635Z,-0.444511,0.7503770000000001,-0.26288
2018-09-26T22:37:32.400635Z,1.054491,-1.502545,1.227719
2018-09-26T22:37:32.575635Z,0.45852,-0.008449,-0.468949
2018-09-26T22:37:32.776635Z,0.172297,0.43282600000000004,0.290034
2018-09-26T22:37:32.976635Z,-0.005928,0.467883,0.730504
2018-09-26T22:37:33.194635Z,0.381689,-1.151628,-0.031162
2018-09-26T22:37:33.376635Z,0.760698,-0.18274300000000002,-0.09414
2018-09-26T22:37:33.593635Z,0.74903,-0.278387,0.862926
2018-09-26T22:37:33.778635Z,1.1064100000000001,-0.652172,0.30485999999999996
2018-09-26T22:37:33.982635Z,1.139194,-1.180898,0.359074
2018-09-26T22:37:34.176635Z,0.593727,0.0035859999999999998,0.232146
2018-09-26T22:37:34.377635Z,0.5713689999999999,-0.10317899999999999,1.286426
2018-09-26T22:37:34.577635Z,0.591575,-2.011676,0.503467
2018-09-26T22:37:34.777635Z,1.094411,-1.48672,-1.0039200000000001
2018-09-26T22:37:34.977635Z,-0.066708,1.018142,0.699108
2018-09-26T22:37:35.179635Z,0.277493,-0.6444989999999999,1.9392310000000001
2018-09-26T22:37:35.378635Z,0.28616199999999997,-1.979136,0.358508
2018-09-26T22:37:35.585635Z,0.28108,-1.413586,-1.029596
2018-09-26T22:37:35.778635Z,-0.261049,-0.448846,1.092539
2018-09-26T22:37:35.979635Z,-0.48892299999999994,-1.254459,0.5945600000000001
2018-09-26T22:37:36.181635Z,0.056787,-0.9039020000000001,-0.733829
2018-09-26T22:37:36.392635Z,0.003401,-0.63144,-0.278221
2018-09-26T22:37:36.580635Z,0.27174,-0.188162,1.704884
2018-09-26T22:37:36.780635Z,-0.006967,-1.1910379999999998,1.2301440000000001
2018-09-26T22:37:36.998635Z,-0.102862,-0.7751600000000001,-1.17106
2018-09-26T22:37:37.181635Z,0.25956,0.27453,-0.41591999999999996
2018-09-26T22:37:37.382635Z,0.156781,-0.689358,0.981541
2018-09-26T22:37:37.603635Z,0.10325699999999999,-1.220367,-1.1961979999999999
2018-09-26T22:37:37.780635Z,-0.010429,-0.619575,-0.141291
2018-09-26T22:37:37.992635Z,-0.18950899999999998,0.35477800000000004,0.38742
2018-09-26T22:37:38.194635Z,0.929061,-0.9404030000000001,0.13833099999999998
2018-09-26T22:37:38.390635Z,-0.203058,-0.8965129999999999,-0.677353
2018-09-26T22:37:38.582635Z,0.223966,0.536062,-0.8572930000000001
2018-09-26T22:37:38.780635Z,0.06564199999999999,0.48145699999999997,0.968065
2018-09-26T22:37:38.982635Z,-0.026737,-0.97778,-0.696688
2018-09-26T22:37:39.183635Z,0.050223000000000004,-0.781684,-0.579813
2018-09-26T22:37:39.453635Z,0.056637,0.558832,0.279073
2018-09-26T22:37:39.581635Z,0.148989,0.5251319999999999,0.649784
2018-09-26T22:37:39.781635Z,0.074425,-0.396622,-0.9925790000000001
2018-09-26T22:37:39.981635Z,0.091305,0.49956000000000006,-0.15340399999999998
2018-09-26T22:37:40.181635Z,-0.001559,0.864325,0.214714
2018-09-26T22:37:40.381635Z,-0.331935,-0.345565,1.297037
2018-09-26T22:37:40.582635Z,0.034572000000000006,-0.468528,-1.175411
2018-09-26T22:37:40.801635Z,-0.869693,0.471498,0.2634
2018-09-26T22:37:40.983635Z,-0.559334,0.606268,0.842033
2018-09-26T22:37:41.183635Z,0.245031,-0.543879,0.612463
2018-09-26T22:37:41.404635Z,0.034651999999999995,-0.32605700000000004,-0.817179
2018-09-26T22:37:41.583635Z,0.10591099999999999,0.640055,0.012791
2018-09-26T22:37:41.782635Z,0.275493,0.36777600000000005,1.065828
2018-09-26T22:37:41.982635Z,-0.16838499999999998,-0.545744,0.41567
2018-09-26T22:37:42.183635Z,0.029773,0.125468,-0.439478
2018-09-26T22:37:42.383635Z,0.137247,0.739347,1.057796
2018-09-26T22:37:42.585635Z,-0.510865,-0.879718,0.482224
2018-09-26T22:37:42.784635Z,0.602429,-0.902631,-1.022463
2018-09-26T22:37:42.984635Z,0.21070100000000003,0.6951430000000001,0.528053
2018-09-26T22:37:43.184635Z,-0.316776,-0.13305,1.0787209999999998
2018-09-26T22:37:43.411635Z,-0.34975900000000004,-1.238752,-0.47869700000000004
2018-09-26T22:37:43.584635Z,-0.11012899999999999,-0.625926,-0.835303
2018-09-26T22:37:43.785635Z,-0.05087,0.475365,1.113841
2018-09-26T22:37:43.985635Z,0.9298190000000001,-0.952411,0.20051300000000002
2018-09-26T22:37:44.184635Z,1.033491,-0.7268979999999999,-0.787767
2018-09-26T22:37:44.385635Z,0.496539,0.35327600000000003,-1.195326
2018-09-26T22:37:44.585635Z,-0.06816799999999999,-0.116302,1.460501
2018-09-26T22:37:44.787635Z,-0.286933,-1.718741,-0.9581850000000001
2018-09-26T22:37:44.985635Z,0.046699,0.126631,-0.8817020000000001
2018-09-26T22:37:45.187635Z,0.032082,0.6589510000000001,0.347018
2018-09-26T22:37:45.385635Z,0.101846,-0.8049609999999999,-0.079694
2018-09-26T22:37:45.591635Z,0.241927,-0.598046,-1.414195
2018-09-26T22:37:45.801635Z,-0.295848,0.555018,-0.062375
2018-09-26T22:37:45.986635Z,-0.26154499999999997,1.219818,0.24420100000000003
2018-09-26T22:37:46.188635Z,0.946351,-0.8330559999999999,-0.662008
2018-09-26T22:37:46.386635Z,1.08827,-0.100752,-0.6663859999999999
2018-09-26T22:37:46.588635Z,-0.635776,0.5306569999999999,1.288564
2018-09-26T22:37:46.788635Z,-0.025055,0.239885,1.258879
2018-09-26T22:37:46.988635Z,-0.34910399999999997,-0.816347,-0.484354
2018-09-26T22:37:47.187635Z,0.313727,-0.48566800000000004,-0.5833520000000001
2018-09-26T22:37:47.386635Z,-0.66088,0.40807,0.16231800000000002
2018-09-26T22:37:47.587635Z,-1.683254,0.028405,0.9172370000000001
2018-09-26T22:37:47.803635Z,-0.861966,-0.8200350000000001,-0.21504099999999998
2018-09-26T22:37:47.987635Z,-0.37569,0.756516,0.360028
2018-09-26T22:37:48.189635Z,0.026704000000000002,0.285005,1.258604
2018-09-26T22:37:48.388635Z,0.7191270000000001,-1.2674809999999999,0.079141
2018-09-26T22:37:48.595635Z,-0.041873,0.409714,-0.294057
2018-09-26T22:37:48.790635Z,0.053545,0.814673,0.8411770000000001
2018-09-26T22:37:48.988635Z,-0.36845500000000003,-0.630445,0.9356120000000001
2018-09-26T22:37:49.189635Z,-0.173775,-0.996066,-0.614291
2018-09-26T22:37:49.404635Z,-0.03247,0.971994,0.347474
2018-09-26T22:37:49.589635Z,0.549007,-0.075508,1.080789
2018-09-26T22:37:49.790635Z,0.610957,-1.4641520000000001,-0.007
2018-09-26T22:37:49.989635Z,-0.9476610000000001,-0.350715,-0.562125
2018-09-26T22:37:50.210635Z,-1.028033,0.381469,0.334432
2018-09-26T22:37:50.389635Z,-1.276899,-1.144773,1.06966
2018-09-26T22:37:50.589635Z,-0.187912,-1.2964879999999999,-0.447273
2018-09-26T22:37:50.789635Z,1.202867,0.036534,-0.055504
2018-09-26T22:37:50.989635Z,0.45038,1.005276,-0.319814
2018-09-26T22:37:51.191635Z,0.691734,-0.5467390000000001,0.139285
2018-09-26T22:37:51.391635Z,0.042883,0.134847,-0.358609
2018-09-26T22:37:51.591635Z,0.252216,0.79606,-0.534615
2018-09-26T22:37:51.791635Z,-0.24514,-0.395957,0.735111
2018-09-26T22:37:52.008635Z,0.24688800000000002,-0.871128,-0.84601
2018-09-26T22:37:52.191635Z,0.650043,0.259655,-0.800013
2018-09-26T22:37:52.408635Z,-0.052452,0.665089,0.23248000000000002
2018-09-26T22:37:52.591635Z,3.139402,-1.157957,1.1798879999999998
2018-09-26T22:37:52.791635Z,3.572366,-1.7755459999999998,0.086507
2018-09-26T22:37:52.992635Z,2.210193,-2.328566,1.3519700000000001
2018-09-26T22:37:53.211635Z,1.910754,-2.029863,0.7175090000000001
2018-09-26T22:37:53.393635Z,-1.838398,-1.7357069999999999,1.72708
2018-09-26T22:37:53.593635Z,-0.4838,-0.909235,-0.151525
2018-09-26T22:37:53.794635Z,-0.265538,-0.105202,-0.035351
2018-09-26T22:37:53.994635Z,-0.043315,-0.040629000000000005,-0.249604
2018-09-26T22:37:54.193635Z,0.395875,-1.3113110000000001,1.589607
2018-09-26T22:37:54.392635Z,0.545129,-1.313768,-1.7765259999999998
2018-09-26T22:37:54.593635Z,-0.056213,0.26247600000000004,0.146448
2018-09-26T22:37:54.792635Z,-0.411157,0.249214,2.092866
2018-09-26T22:37:54.993635Z,0.358509,-0.223149,-1.386011
2018-09-26T22:37:55.212635Z,0.399593,0.7834949999999999,1.6729509999999999
2018-09-26T22:37:55.442635Z,0.5290560000000001,-1.744113,1.548923
2018-09-26T22:37:55.593635Z,1.019476,-1.153813,-2.700014
2018-09-26T22:37:55.795635Z,0.675053,-1.155709,1.5778530000000002
2018-09-26T22:37:55.996635Z,0.49131899999999995,-1.513191,-0.979439
2018-09-26T22:37:56.195635Z,-0.060075,-0.333572,-0.258474
2018-09-26T22:37:56.395635Z,-0.584923,0.745111,2.8183979999999997
2018-09-26T22:37:56.638635Z,0.09892999999999999,-1.129626,-2.3932729999999998
2018-09-26T22:37:56.794635Z,-0.11068499999999999,1.1294950000000001,2.732216
2018-09-26T22:37:56.995635Z,-0.43495600000000006,-1.4827350000000001,1.381108
2018-09-26T22:37:57.198635Z,0.573063,-1.301744,-1.8088080000000002
2018-09-26T22:37:57.395635Z,0.380211,-0.637259,2.580186
2018-09-26T22:37:57.596635Z,0.646071,-1.33294,-0.14214000000000002
2018-09-26T22:37:57.815635Z,0.290453,-1.151441,-1.208905
2018-09-26T22:37:58.002635Z,1.553679,-0.820909,2.5409610000000002
2018-09-26T22:37:58.196635Z,2.598607,-1.63015,-1.403399
2018-09-26T22:37:58.396635Z,1.078241,-1.608125,-0.087072
2018-09-26T22:37:58.596635Z,0.406961,-0.8748950000000001,1.593308
2018-09-26T22:37:58.797635Z,2.218918,-0.545369,0.111383
2018-09-26T22:37:59.015635Z,-0.297784,0.8608950000000001,1.301476
2018-09-26T22:37:59.195635Z,-0.338789,-0.044877,0.9310450000000001
2018-09-26T22:37:59.395635Z,-0.974975,-1.526776,-0.760536
2018-09-26T22:37:59.595635Z,-0.048016,-1.232927,-0.473983
2018-09-26T22:37:59.797635Z,0.43862399999999996,-1.073109,0.25308600000000003
2018-09-26T22:38:00.058635Z,0.891166,-1.140367,-1.213403
2018-09-26T22:38:00.197635Z,0.153263,0.417861,0.398138
2018-09-26T22:38:00.407635Z,-1.080088,-0.167606,2.472225
2018-09-26T22:38:00.597635Z,0.518998,-0.303822,-0.608529
2018-09-26T22:38:00.798635Z,0.887618,-0.025391,1.8523040000000002
2018-09-26T22:38:00.998635Z,1.033665,-1.272556,0.5383
2018-09-26T22:38:01.213635Z,1.171507,-0.77644,-1.7342369999999998
2018-09-26T22:38:01.398635Z,-0.27605100000000005,-0.169106,2.270667
2018-09-26T22:38:01.609635Z,0.084445,-1.910162,-0.24727800000000003
2018-09-26T22:38:01.798635Z,0.282039,-0.6164109999999999,-0.765864
2018-09-26T22:38:01.998635Z,-0.39965700000000004,1.1267340000000001,0.17915
2018-09-26T22:38:02.199635Z,0.6586350000000001,-1.513768,-0.26040599999999997
2018-09-26T22:38:02.407635Z,0.671036,-0.304873,-1.539784
2018-09-26T22:38:02.601635Z,-0.15751500000000002,0.9575950000000001,1.6944099999999997
2018-09-26T22:38:02.798635Z,-0.16025,-0.693017,1.109948
2018-09-26T22:38:02.999635Z,0.43450900000000003,0.74678,-0.45831400000000005
2018-09-26T22:38:03.200635Z,0.659417,0.767703,1.340459
2018-09-26T22:38:03.400635Z,1.603509,-0.963557,0.756134
2018-09-26T22:38:03.651635Z,1.6943279999999998,-1.255768,-0.727675
2018-09-26T22:38:03.800635Z,0.67798,1.742861,1.587032
2018-09-26T22:38:04.019635Z,1.126454,-1.140514,1.6884669999999997
2018-09-26T22:38:04.201635Z,1.31402,-1.8536009999999998,-0.8310219999999999
2018-09-26T22:38:04.400635Z,-0.460135,-0.206089,-0.946053
2018-09-26T22:38:04.602635Z,1.6057139999999999,-0.762713,0.70055
2018-09-26T22:38:04.834635Z,0.335009,-0.809604,-1.5807959999999999
2018-09-26T22:38:05.001635Z,-1.364083,0.078038,-0.12411199999999999
2018-09-26T22:38:05.200635Z,-3.721362,-0.863035,2.312525
2018-09-26T22:38:05.401635Z,-2.347493,-0.7291920000000001,-0.082633
2018-09-26T22:38:05.615635Z,-1.061212,0.8281120000000001,0.694396
2018-09-26T22:38:05.820635Z,0.443201,-0.008698000000000001,0.669122
2018-09-26T22:38:06.002635Z,-0.10516400000000001,-1.194618,-0.165243
2018-09-26T22:38:06.220635Z,-2.175072,0.48683699999999996,-0.09148400000000001
2018-09-26T22:38:06.403635Z,-2.975212,-1.96528,2.223716
2018-09-26T22:38:06.603635Z,-0.723626,-2.348084,-0.122153
2018-09-26T22:38:06.801635Z,0.725202,-1.453338,-0.211961
2018-09-26T22:38:07.002635Z,0.9377059999999999,-1.20698,1.0689549999999999
2018-09-26T22:38:07.203635Z,1.164366,-0.38313,-1.433949
2018-09-26T22:38:07.415635Z,0.540247,0.449392,-0.133734
2018-09-26T22:38:07.613635Z,1.499111,1.177929,0.5998680000000001
2018-09-26T22:38:07.817635Z,1.193084,-0.9963549999999999,-0.769304
2018-09-26T22:38:08.003635Z,0.8294549999999999,0.131807,-1.173454
2018-09-26T22:38:08.203635Z,0.8888790000000001,0.9623139999999999,0.830326
2018-09-26T22:38:08.422635Z,2.070855,0.041135000000000005,1.489641
2018-09-26T22:38:08.614635Z,1.770839,-0.651933,-1.181315
2018-09-26T22:38:08.804635Z,2.598144,0.43753000000000003,1.8882430000000001
2018-09-26T22:38:09.004635Z,2.792384,-1.7623959999999999,1.607076
2018-09-26T22:38:09.204635Z,1.932653,-0.491571,-1.063559
2018-09-26T22:38:09.404635Z,-0.241189,0.78383,0.97103
2018-09-26T22:38:09.605635Z,1.096032,-1.415727,1.698752
2018-09-26T22:38:09.807635Z,1.131361,-1.044188,-1.090584
2018-09-26T22:38:10.004635Z,-0.44442600000000004,-1.22066,-0.139033
2018-09-26T22:38:10.211635Z,-0.451583,0.376023,-0.147152
2018-09-26T22:38:10.405635Z,-0.248381,0.909435,-0.957491
2018-09-26T22:38:10.605635Z,0.231396,1.133937,1.273218
2018-09-26T22:38:10.804635Z,0.9551620000000001,-1.0976629999999998,0.830585
2018-09-26T22:38:11.006635Z,-0.149824,0.434226,-0.096251
2018-09-26T22:38:11.207635Z,-0.509155,0.32823,2.060373
2018-09-26T22:38:11.408635Z,0.24283200000000002,-1.7534720000000001,0.24299
2018-09-26T22:38:11.609635Z,0.15753599999999998,-0.876051,-1.989827
2018-09-26T22:38:11.807635Z,1.5557459999999999,0.133218,1.074867
2018-09-26T22:38:12.007635Z,1.1617790000000001,-1.038011,-0.400133
2018-09-26T22:38:12.207635Z,0.806733,-0.07410800000000001,-1.470408
2018-09-26T22:38:12.421635Z,-0.821358,1.121416,0.525881
2018-09-26T22:38:12.608635Z,-0.760622,-1.400215,0.414808
2018-09-26T22:38:12.808635Z,-0.535135,-0.350879,-1.3017530000000002
2018-09-26T22:38:13.008635Z,-0.537589,0.8792059999999999,0.5149560000000001
2018-09-26T22:38:13.209635Z,0.569559,0.297973,1.01155
2018-09-26T22:38:13.409635Z,0.32531,-0.791955,-1.644267
2018-09-26T22:38:13.611635Z,-0.044616,0.0050100000000000006,-0.043273
2018-09-26T22:38:13.808635Z,-0.80253,0.397098,1.99603
2018-09-26T22:38:14.007635Z,-0.626546,-1.327774,0.683295
2018-09-26T22:38:14.207635Z,-0.20874499999999999,0.748871,0.601928
2018-09-26T22:38:14.422635Z,0.986175,0.163494,1.532758
2018-09-26T22:38:14.609635Z,0.629872,-1.5707360000000001,-0.448112
2018-09-26T22:38:14.809635Z,0.141948,0.020843,-1.6750580000000002
2018-09-26T22:38:15.008635Z,-0.459031,-0.11856199999999999,0.672895
2018-09-26T22:38:15.208635Z,-0.156744,-0.868396,-0.8273860000000001
2018-09-26T22:38:15.411635Z,-0.39369699999999996,0.155155,-0.740396
2018-09-26T22:38:15.624635Z,0.42326400000000003,0.8921190000000001,0.9853940000000001
2018-09-26T22:38:15.809635Z,0.212252,-0.8706309999999999,-1.852343
2018-09-26T22:38:16.027635Z,0.105921,0.289495,0.0066159999999999995
2018-09-26T22:38:16.211635Z,-1.0945120000000002,1.420237,1.184566
2018-09-26T22:38:16.411635Z,-0.607851,-0.750328,1.586319
2018-09-26T22:38:16.610635Z,0.08143,-0.030926,-0.5793729999999999
2018-09-26T22:38:16.812635Z,0.713875,0.371479,0.936825
2018-09-26T22:38:17.011635Z,0.940153,-0.9490719999999999,1.063025
2018-09-26T22:38:17.213635Z,0.692451,-1.096746,-1.294957
2018-09-26T22:38:17.415635Z,-0.030675,0.42711899999999997,1.321978
2018-09-26T22:38:17.612635Z,1.283896,0.024058,0.324345
2018-09-26T22:38:17.812635Z,0.41392399999999996,-1.479182,-0.7020529999999999
2018-09-26T22:38:18.011635Z,0.775512,0.061889,-0.8503350000000001
2018-09-26T22:38:18.222635Z,0.881991,-1.1039809999999999,1.242885
2018-09-26T22:38:18.411635Z,1.4536959999999999,-0.962476,-0.44527
2018-09-26T22:38:18.612635Z,1.200125,-0.676864,-0.485058
2018-09-26T22:38:18.812635Z,0.002076,0.867584,0.223106
2018-09-26T22:38:19.013635Z,-0.280575,-1.414492,0.2121
2018-09-26T22:38:19.214635Z,-0.695014,-1.4420629999999999,-0.402582
2018-09-26T22:38:19.471635Z,-0.41720799999999997,0.061070000000000006,0.109425
2018-09-26T22:38:19.612635Z,-0.656303,-1.000107,0.190576
2018-09-26T22:38:19.830635Z,-1.911923,-2.169156,-0.35014
2018-09-26T22:38:20.012635Z,-1.1215389999999998,-0.607254,0.29589899999999997
2018-09-26T22:38:20.213635Z,-1.0652700000000002,-0.763525,0.638363
2018-09-26T22:38:20.478635Z,0.556032,-1.06605,0.6677029999999999
2018-09-26T22:38:20.613635Z,0.23808600000000002,1.250308,0.5058060000000001
2018-09-26T22:38:20.824635Z,0.173022,0.24036100000000002,2.300922
2018-09-26T22:38:21.012635Z,0.8256620000000001,-0.27386900000000003,-1.3116459999999999
2018-09-26T22:38:21.213635Z,0.08180499999999999,0.711997,-1.810055
2018-09-26T22:38:21.414635Z,-0.073814,0.061842999999999995,1.3535469999999998
2018-09-26T22:38:21.613635Z,-0.12039100000000001,-0.664125,-1.124906
2018-09-26T22:38:21.813635Z,0.596291,-0.7354930000000001,-0.968634
2018-09-26T22:38:22.014635Z,-0.243941,1.2604549999999999,0.491292
2018-09-26T22:38:22.214635Z,1.3780540000000001,-0.528569,-1.439804
2018-09-26T22:38:22.413635Z,0.537335,0.376201,-0.24267399999999997
2018-09-26T22:38:22.615635Z,0.33768899999999996,0.533501,1.72965
2018-09-26T22:38:22.814635Z,1.148819,-1.629561,1.8520869999999998
2018-09-26T22:38:23.014635Z,0.643301,-0.470264,-1.0480690000000001
2018-09-26T22:38:23.215635Z,-0.65704,0.713134,1.3527770000000001
2018-09-26T22:38:23.415635Z,0.9946530000000001,-0.532691,1.9423990000000002
2018-09-26T22:38:23.615635Z,1.307973,-0.816086,-0.530375
2018-09-26T22:38:23.816635Z,-0.031584,-0.019025,1.348191
2018-09-26T22:38:24.051635Z,-0.813038,-0.869086,2.07996
2018-09-26T22:38:24.216635Z,-0.20944000000000002,-1.221018,-1.2786620000000002
2018-09-26T22:38:24.417635Z,0.078588,-0.849917,-0.923214
2018-09-26T22:38:24.714635Z,0.493555,-0.733358,2.397913
2018-09-26T22:38:24.822635Z,1.051848,-1.432444,-1.378582
2018-09-26T22:38:25.016635Z,0.181228,-0.6882199999999999,-0.403876
2018-09-26T22:38:25.217635Z,0.44935200000000003,-0.095283,1.383833
2018-09-26T22:38:25.417635Z,0.501571,-1.393781,-0.597657
2018-09-26T22:38:25.618635Z,0.420245,-0.20631799999999997,-0.712206
2018-09-26T22:38:25.871635Z,0.31538,0.219295,0.632991
2018-09-26T22:38:26.017635Z,0.6140220000000001,1.096729,0.953991
2018-09-26T22:38:26.266635Z,0.763203,-1.086228,-1.366919
2018-09-26T22:38:26.482635Z,1.0271860000000002,0.135152,0.16298900000000002
2018-09-26T22:38:26.618635Z,1.24296,0.56409,1.171062
2018-09-26T22:38:26.819635Z,-0.191128,-1.8780080000000001,1.346576
2018-09-26T22:38:27.019635Z,0.015947,-0.758152,-0.5931810000000001
2018-09-26T22:38:27.219635Z,0.357688,0.136651,1.3501670000000001
2018-09-26T22:38:27.421635Z,1.422971,-0.770338,1.093631
2018-09-26T22:38:27.618635Z,1.672105,-1.558382,-1.430358
2018-09-26T22:38:27.820635Z,-0.559391,-0.601399,2.611279
2018-09-26T22:38:28.020635Z,-0.270208,-1.602496,0.953175
2018-09-26T22:38:28.235635Z,0.621849,-1.431799,-1.832532
2018-09-26T22:38:28.419635Z,0.739017,-0.531487,0.007654
2018-09-26T22:38:28.619635Z,3.251491,-1.7644650000000002,0.9074260000000001
2018-09-26T22:38:28.819635Z,2.708535,-0.712068,-0.83759
2018-09-26T22:38:29.019635Z,1.430143,-0.53365,0.631927
2018-09-26T22:38:29.221635Z,-0.284197,-0.507759,1.448027
2018-09-26T22:38:29.421635Z,0.8398030000000001,-0.811974,-0.611011
2018-09-26T22:38:29.633635Z,0.902285,-0.13693,-0.07906200000000001
2018-09-26T22:38:29.820635Z,-0.11106700000000001,-0.44127,2.2754830000000004
2018-09-26T22:38:30.020635Z,-0.100034,-1.199707,-0.6289239999999999
2018-09-26T22:38:30.219635Z,-0.246786,0.4537,1.205335
2018-09-26T22:38:30.421635Z,0.046816,-0.347229,2.030744
2018-09-26T22:38:30.621635Z,0.10508900000000002,-1.373699,-0.871627
2018-09-26T22:38:30.823635Z,0.221969,-0.959708,-0.305113
2018-09-26T22:38:31.023635Z,0.376542,-0.826169,1.561195
2018-09-26T22:38:31.221635Z,0.872509,-1.8004779999999998,-0.6172890000000001
2018-09-26T22:38:31.421635Z,0.5187149999999999,-0.799083,-1.6564740000000002
2018-09-26T22:38:31.624635Z,-0.198179,1.1755200000000001,0.452388
2018-09-26T22:38:31.822635Z,-0.397408,-2.18004,0.613352
2018-09-26T22:38:32.023635Z,0.252946,-0.851893,-1.04122
2018-09-26T22:38:32.223635Z,-0.474782,-0.838938,0.983318
2018-09-26T22:38:32.423635Z,0.146275,-0.822836,1.48423
2018-09-26T22:38:32.621635Z,0.352412,-0.671563,-0.057826999999999996
2018-09-26T22:38:32.822635Z,0.139003,-0.166327,-0.589133
2018-09-26T22:38:33.023635Z,0.126619,0.415732,0.321822
2018-09-26T22:38:33.223635Z,0.551891,-0.364944,0.742291
2018-09-26T22:38:33.424635Z,0.948308,0.787489,-0.691353
2018-09-26T22:38:33.625635Z,0.07022300000000001,1.565996,-0.239017
2018-09-26T22:38:33.826635Z,0.14252,0.791324,1.809563
2018-09-26T22:38:34.024635Z,1.470071,-1.840568,1.133637
2018-09-26T22:38:34.224635Z,-0.265045,-0.13588499999999998,-0.481998
2018-09-26T22:38:34.425635Z,-2.074432,-0.27332199999999995,1.8297459999999999
2018-09-26T22:38:34.625635Z,-2.88444,-1.954968,1.3505479999999999
2018-09-26T22:38:34.846635Z,-0.151425,-1.495575,-0.672903
2018-09-26T22:38:35.026635Z,-0.674251,0.41864399999999996,1.17564
2018-09-26T22:38:35.237635Z,0.03422,-0.548553,0.162656
2018-09-26T22:38:35.436635Z,0.82744,-0.5130899999999999,-1.024765
2018-09-26T22:38:35.627635Z,1.108802,0.405285,-0.630204
2018-09-26T22:38:35.845635Z,0.535684,-0.920969,-0.357069
2018-09-26T22:38:36.045635Z,0.5500109999999999,-0.11943499999999999,-0.910264
2018-09-26T22:38:36.228635Z,-0.232246,0.416411,0.61153
2018-09-26T22:38:36.438635Z,-1.555277,-1.894247,1.12798
2018-09-26T22:38:36.626635Z,0.43762700000000004,0.232618,-0.497489
2018-09-26T22:38:36.830635Z,0.809503,1.051826,1.1071
2018-09-26T22:38:37.027635Z,-0.065868,-0.328942,0.718221
2018-09-26T22:38:37.226635Z,0.460408,-1.1438549999999998,-1.121585
2018-09-26T22:38:37.443635Z,0.279404,1.416413,1.9034209999999998
2018-09-26T22:38:37.625635Z,1.057567,-0.901608,0.376116
2018-09-26T22:38:37.825635Z,1.1926860000000001,-1.0705200000000001,-1.509272
2018-09-26T22:38:38.044635Z,0.336859,-0.212087,-0.6685439999999999
2018-09-26T22:38:38.227635Z,0.657888,-0.200653,0.400399
2018-09-26T22:38:38.427635Z,0.688793,-1.007076,-0.818185
2018-09-26T22:38:38.628635Z,1.235853,-0.22996799999999998,-0.58482
2018-09-26T22:38:38.830635Z,0.435845,0.21531799999999998,1.2768540000000002
2018-09-26T22:38:39.027635Z,0.898699,-0.447226,-1.171757
2018-09-26T22:38:39.227635Z,0.577365,0.311001,-0.418775
2018-09-26T22:38:39.428635Z,0.0005679999999999999,0.261075,1.86257
2018-09-26T22:38:39.628635Z,0.102246,-0.734672,-0.052146000000000005
2018-09-26T22:38:39.845635Z,0.194176,0.651472,-0.554191
2018-09-26T22:38:40.029635Z,0.9604280000000001,0.652925,1.833705
2018-09-26T22:38:40.229635Z,1.454566,-1.44385,0.6117560000000001
2018-09-26T22:38:40.427635Z,1.1695360000000001,-1.013233,-1.315085
2018-09-26T22:38:40.629635Z,0.624343,0.5140140000000001,1.671343
2018-09-26T22:38:40.829635Z,0.968007,-0.869981,-0.229334
2018-09-26T22:38:41.028635Z,0.542337,-0.389102,-1.41244
2018-09-26T22:38:41.229635Z,-0.034304,0.754506,0.461006
2018-09-26T22:38:41.430635Z,0.32312399999999997,-1.538669,0.332426
2018-09-26T22:38:41.639635Z,1.1209850000000001,-0.135169,-2.175253
2018-09-26T22:38:41.829635Z,0.21581799999999998,0.078557,1.754436
2018-09-26T22:38:42.030635Z,1.712677,-0.10783699999999999,1.717804
2018-09-26T22:38:42.230635Z,1.218604,0.142845,-0.813145
2018-09-26T22:38:42.431635Z,0.679087,0.27015300000000003,1.33145
2018-09-26T22:38:42.631635Z,1.817393,-1.20513,2.343439
2018-09-26T22:38:42.852635Z,0.24814699999999998,-1.805618,-2.046216
2018-09-26T22:38:43.031635Z,-0.336221,0.090211,2.498329
2018-09-26T22:38:43.232635Z,-0.5332319999999999,-1.100942,0.23483800000000002
2018-09-26T22:38:43.444635Z,0.590755,-0.8816430000000001,-1.4855479999999999
2018-09-26T22:38:43.631635Z,0.496648,0.618787,-0.660922
2018-09-26T22:38:43.831635Z,0.408484,-0.47984,0.208333
2018-09-26T22:38:44.041635Z,0.167666,-0.9700690000000001,-0.9357989999999999
2018-09-26T22:38:44.232635Z,-0.442407,0.169286,0.95226
2018-09-26T22:38:44.430635Z,-0.559793,-0.364126,0.501158
2018-09-26T22:38:44.632635Z,-0.540075,0.487808,-0.877489
2018-09-26T22:38:44.833635Z,-0.884917,0.533702,1.5626280000000001
2018-09-26T22:38:45.033635Z,1.019987,-0.66777,1.337939
2018-09-26T22:38:45.232635Z,0.326891,-1.164,-1.6104610000000001
2018-09-26T22:38:45.438635Z,-0.372112,0.430867,0.7598060000000001
2018-09-26T22:38:45.647635Z,-1.053504,-1.007948,1.173499
2018-09-26T22:38:45.835635Z,-0.131705,-0.712425,-1.513077
2018-09-26T22:38:46.038635Z,0.444351,0.187422,-0.289448
2018-09-26T22:38:46.233635Z,0.239608,-1.4022,0.343301
2018-09-26T22:38:46.435635Z,0.50041,-0.5665439999999999,-1.408949
2018-09-26T22:38:46.633635Z,0.17146,0.431978,0.479283
2018-09-26T22:38:46.834635Z,-0.366731,0.088395,1.418392
2018-09-26T22:38:47.033635Z,0.16703900000000002,-0.465066,-1.449918
2018-09-26T22:38:47.234635Z,-0.491249,0.47762299999999996,0.79488
2018-09-26T22:38:47.434635Z,0.17119700000000002,-6.8e-05,0.9096700000000001
2018-09-26T22:38:47.634635Z,0.243364,-0.88539,-0.301964
2018-09-26T22:38:47.836635Z,-0.11324300000000001,0.5117010000000001,0.9602290000000001
2018-09-26T22:38:48.035635Z,-0.24443600000000001,-0.501404,0.957786
2018-09-26T22:38:48.237635Z,0.391123,-0.614282,-1.179809
2018-09-26T22:38:48.435635Z,0.43112700000000004,-0.40412600000000004,-0.229515
2018-09-26T22:38:48.635635Z,1.939211,-1.594919,0.341124
2018-09-26T22:38:48.834635Z,1.0170649999999999,-0.740692,-1.2657180000000001
2018-09-26T22:38:49.036635Z,1.090956,1.453937,-0.499137
2018-09-26T22:38:49.236635Z,-2.522697,-0.20734299999999997,2.373765
2018-09-26T22:38:49.437635Z,-0.134552,-0.338975,-1.0617159999999999
2018-09-26T22:38:49.655635Z,0.284598,0.28125,0.701364
2018-09-26T22:38:49.851635Z,0.615631,-0.38897800000000005,1.845688
2018-09-26T22:38:50.036635Z,0.746785,-1.54988,-0.840189
