Datetime,accx,accy,accz
2018-09-26T21:37:50.728312Z,0.0,0.0,0.0
2018-09-26T21:37:50.969312Z,0.09596,-0.050106,-0.347953
2018-09-26T21:37:51.168312Z,-0.740474,-0.197926,0.316706
2018-09-26T21:37:51.367312Z,-0.745807,-0.50878,1.053867
2018-09-26T21:37:51.570312Z,-1.150467,-0.9117719999999999,-0.6784060000000001
2018-09-26T21:37:51.768312Z,-0.691462,0.295611,-0.269436
2018-09-26T21:37:51.970312Z,-0.7158359999999999,-0.262141,1.036691
2018-09-26T21:37:52.169312Z,-0.6282909999999999,-1.5775379999999999,-0.137077
2018-09-26T21:37:52.369312Z,-0.800726,-0.959942,-1.118857
2018-09-26T21:37:52.570312Z,-1.378989,-0.80692,0.510468
2018-09-26T21:37:52.769312Z,-0.7199800000000001,-0.49694399999999994,0.176523
2018-09-26T21:37:52.984312Z,0.112246,-0.047323000000000004,-0.44651
2018-09-26T21:37:53.169312Z,0.172086,0.341381,0.335923
2018-09-26T21:37:53.369312Z,0.827202,-0.150341,-0.263698
2018-09-26T21:37:53.570312Z,1.344757,0.9452020000000001,-0.20686500000000002
2018-09-26T21:37:53.772312Z,1.050514,1.318708,-0.508217
2018-09-26T21:37:53.971312Z,0.473189,0.72353,0.761185
2018-09-26T21:37:54.171312Z,0.434407,0.182573,-0.867922
2018-09-26T21:37:54.371312Z,0.493097,0.311735,-0.136364
2018-09-26T21:37:54.571312Z,0.230431,0.6902560000000001,0.653332
2018-09-26T21:37:54.834312Z,0.406283,-0.621795,1.118585
2018-09-26T21:37:54.984312Z,0.581906,-0.011115,-0.887825
2018-09-26T21:37:55.177312Z,0.341533,0.679808,0.24377100000000002
2018-09-26T21:37:55.372312Z,-0.407955,0.31416,0.66601
2018-09-26T21:37:55.572312Z,-0.505758,-0.398984,-0.6654359999999999
2018-09-26T21:37:55.771312Z,0.18227000000000002,0.860986,0.38309699999999997
2018-09-26T21:37:55.973312Z,0.080437,-0.00692,0.918083
2018-09-26T21:37:56.171312Z,0.687305,-0.872928,-0.5734229999999999
2018-09-26T21:37:56.372312Z,0.454956,-0.169819,-0.9943649999999999
2018-09-26T21:37:56.587312Z,-0.031267,0.317218,0.8678680000000001
2018-09-26T21:37:56.772312Z,-0.570679,-1.042591,-0.217196
2018-09-26T21:37:56.972312Z,0.168543,-0.039943,-1.097444
2018-09-26T21:37:57.174312Z,0.15320999999999999,0.550898,-0.386281
2018-09-26T21:37:57.373312Z,-0.10769200000000001,-0.898833,0.30894299999999997
2018-09-26T21:37:57.575312Z,0.5584399999999999,-0.8272510000000001,-0.885339
2018-09-26T21:37:57.803312Z,0.036337,0.659131,-0.923975
2018-09-26T21:37:57.990312Z,0.066258,1.108602,0.7821560000000001
2018-09-26T21:37:58.174312Z,0.639774,-0.792896,-0.65513
2018-09-26T21:37:58.375312Z,0.250732,0.149203,-1.033464
2018-09-26T21:37:58.574312Z,0.232312,0.899725,0.539816
2018-09-26T21:37:58.775312Z,-0.041306999999999996,0.299958,1.648563
2018-09-26T21:37:58.975312Z,0.282009,-0.28923699999999997,-1.096066
2018-09-26T21:37:59.175312Z,0.044095999999999996,0.8675860000000001,0.759061
2018-09-26T21:37:59.376312Z,-0.547463,-0.167239,1.065833
2018-09-26T21:37:59.631312Z,-0.23613,-1.336595,0.152672
2018-09-26T21:37:59.777312Z,-0.11639000000000001,0.607633,0.15650999999999998
2018-09-26T21:38:00.023312Z,0.30663,0.277911,1.089689
2018-09-26T21:38:00.183312Z,0.7988350000000001,-1.066754,-0.093925
2018-09-26T21:38:00.388312Z,0.41001400000000005,-0.306181,-1.263557
2018-09-26T21:38:00.576312Z,-0.144271,0.803718,1.351747
2018-09-26T21:38:00.776312Z,-0.862383,-0.920738,0.481545
2018-09-26T21:38:01.034312Z,0.13996,-0.460078,-1.409063
2018-09-26T21:38:01.178312Z,0.048511,0.46417299999999995,-0.4728
2018-09-26T21:38:01.377312Z,-0.060655999999999995,-0.610152,0.960375
2018-09-26T21:38:01.576312Z,-0.073242,-0.6473399999999999,-1.260856
2018-09-26T21:38:01.777312Z,-0.305014,0.476959,-0.578557
2018-09-26T21:38:01.977312Z,-0.21424,0.811076,0.5351779999999999
2018-09-26T21:38:02.178312Z,-0.387398,-0.5303770000000001,-0.9762620000000001
2018-09-26T21:38:02.383312Z,-0.052657,0.248183,-1.0036889999999998
2018-09-26T21:38:02.577312Z,-0.753724,0.728234,0.986217
2018-09-26T21:38:02.778312Z,-0.664465,-0.8984700000000001,1.434299
2018-09-26T21:38:02.978312Z,-0.328926,0.180782,-0.78837
2018-09-26T21:38:03.177312Z,0.606477,1.008608,0.5565180000000001
2018-09-26T21:38:03.380312Z,-0.131123,0.24178400000000003,0.782829
2018-09-26T21:38:03.580312Z,-0.317289,-0.605939,-0.559933
2018-09-26T21:38:03.780312Z,0.740386,1.429241,0.007909999999999999
2018-09-26T21:38:03.979312Z,0.570786,1.191109,0.7967270000000001
2018-09-26T21:38:04.179312Z,0.560836,-1.206215,0.443866
2018-09-26T21:38:04.377312Z,0.43865699999999996,-0.47879399999999994,-0.955259
2018-09-26T21:38:04.579312Z,0.586098,0.857194,0.769545
2018-09-26T21:38:04.779312Z,-0.320829,-0.277219,0.833033
2018-09-26T21:38:04.991312Z,0.525475,-0.587862,-0.8275379999999999
2018-09-26T21:38:05.179312Z,0.634432,0.263334,-1.018545
2018-09-26T21:38:05.399312Z,0.441141,0.008826,0.862484
2018-09-26T21:38:05.596312Z,0.931566,-0.542874,-0.7284470000000001
2018-09-26T21:38:05.779312Z,0.9168059999999999,0.25188299999999997,-0.963981
2018-09-26T21:38:05.980312Z,0.5088739999999999,0.871767,0.607412
2018-09-26T21:38:06.181312Z,-0.070359,-0.6784680000000001,-0.133621
2018-09-26T21:38:06.384312Z,0.245869,0.127244,-1.302094
2018-09-26T21:38:06.595312Z,0.039186,1.173957,0.026757999999999997
2018-09-26T21:38:06.782312Z,0.185067,0.259642,1.473875
2018-09-26T21:38:06.982312Z,0.583905,-0.339406,-1.141057
2018-09-26T21:38:07.182312Z,0.565082,0.41045699999999996,0.36633699999999997
2018-09-26T21:38:07.380312Z,0.249559,0.451788,1.148188
2018-09-26T21:38:07.581312Z,-0.252637,-1.0212379999999999,0.231494
2018-09-26T21:38:07.782312Z,0.802269,-0.011317,-0.269901
2018-09-26T21:38:07.982312Z,0.61722,0.460949,0.396899
2018-09-26T21:38:08.181312Z,1.00288,-0.36399699999999996,0.42579399999999995
2018-09-26T21:38:08.382312Z,0.508258,-0.292277,-0.85067
2018-09-26T21:38:08.601312Z,0.690765,0.844017,0.975924
2018-09-26T21:38:08.784312Z,-0.36907399999999996,-0.6501279999999999,0.718173
2018-09-26T21:38:09.000312Z,-0.087737,-1.345062,-0.357271
2018-09-26T21:38:09.185312Z,0.704099,-0.545337,-0.941941
2018-09-26T21:38:09.384312Z,0.573851,-0.278475,1.8320470000000002
2018-09-26T21:38:09.609312Z,0.8756430000000001,-1.3610719999999998,-0.30301
2018-09-26T21:38:09.783312Z,1.277287,-1.245265,-0.501442
2018-09-26T21:38:09.982312Z,0.778604,-1.087648,0.982607
2018-09-26T21:38:10.184312Z,-0.5968680000000001,-1.606596,0.532864
2018-09-26T21:38:10.385312Z,0.137087,-1.130788,0.073876
2018-09-26T21:38:10.584312Z,-0.244459,0.054393,-0.5043479999999999
2018-09-26T21:38:10.785312Z,-0.177569,0.541471,-0.336136
2018-09-26T21:38:10.984312Z,0.12494200000000001,-0.116428,1.427979
2018-09-26T21:38:11.183312Z,0.650323,-2.0040459999999998,0.5376479999999999
2018-09-26T21:38:11.383312Z,0.9571350000000001,-1.494241,-0.384274
2018-09-26T21:38:11.585312Z,0.763439,-0.550611,0.208664
2018-09-26T21:38:11.785312Z,0.838274,-0.369698,0.9942780000000001
2018-09-26T21:38:11.986312Z,0.100471,-1.712806,0.8499629999999999
2018-09-26T21:38:12.187312Z,0.073514,-1.0965129999999998,-0.460475
2018-09-26T21:38:12.386312Z,0.000421,-0.316972,-0.46909300000000004
2018-09-26T21:38:12.587312Z,0.155842,-0.334382,2.168858
2018-09-26T21:38:12.787312Z,0.5677770000000001,-1.9359080000000002,-0.158382
2018-09-26T21:38:12.986312Z,0.172351,-1.421988,-0.15946300000000002
2018-09-26T21:38:13.185312Z,0.417308,-0.9674389999999999,0.612951
2018-09-26T21:38:13.387312Z,0.204156,0.42139499999999996,0.675435
2018-09-26T21:38:13.586312Z,0.21902199999999997,-0.617494,0.108395
2018-09-26T21:38:13.786312Z,-0.06149400000000001,-0.188341,-0.657369
2018-09-26T21:38:13.986312Z,0.15905999999999998,0.338617,-0.7877069999999999
2018-09-26T21:38:14.186312Z,-0.215792,-0.700529,1.324757
2018-09-26T21:38:14.387312Z,0.336081,-1.939214,0.178128
2018-09-26T21:38:14.588312Z,0.366679,-0.846617,0.365902
2018-09-26T21:38:14.835312Z,0.733013,-0.11071600000000001,-0.11373699999999999
2018-09-26T21:38:14.987312Z,0.16306099999999998,0.465301,-0.101836
2018-09-26T21:38:15.215312Z,-0.29428899999999997,-0.517133,1.225851
2018-09-26T21:38:15.386312Z,-0.24808899999999998,-1.26419,0.211657
2018-09-26T21:38:15.588312Z,0.264229,-0.14251,-0.691213
2018-09-26T21:38:15.790312Z,0.17424,0.619112,0.95447
2018-09-26T21:38:16.018312Z,0.28524099999999997,-0.6834020000000001,0.7226090000000001
2018-09-26T21:38:16.188312Z,0.198496,-0.709468,-0.522129
2018-09-26T21:38:16.388312Z,0.8422370000000001,-0.063891,-0.377596
2018-09-26T21:38:16.588312Z,-0.080837,0.394495,0.954765
2018-09-26T21:38:16.788312Z,-0.5356989999999999,-0.933214,0.032381
2018-09-26T21:38:16.988312Z,0.063113,-0.167675,-1.0572549999999998
2018-09-26T21:38:17.190312Z,-0.001982,0.1417,0.41261499999999995
2018-09-26T21:38:17.389312Z,0.065174,-0.906228,0.323276
2018-09-26T21:38:17.588312Z,0.40223600000000004,-0.7450720000000001,-0.936709
2018-09-26T21:38:17.789312Z,0.22558000000000003,0.5889770000000001,0.301469
2018-09-26T21:38:17.989312Z,0.35342199999999996,0.3833,1.14142
2018-09-26T21:38:18.191312Z,-0.178542,-0.6535350000000001,-0.7436119999999999
2018-09-26T21:38:18.389312Z,-0.061189,0.253362,-0.804891
2018-09-26T21:38:18.592312Z,-0.435384,0.941464,0.43849
2018-09-26T21:38:18.809312Z,-0.52942,-0.311212,1.609241
2018-09-26T21:38:18.992312Z,-0.617533,-0.889766,-0.813146
2018-09-26T21:38:19.248312Z,-0.696091,0.133908,-0.19778800000000002
2018-09-26T21:38:19.392312Z,-1.265886,0.008117000000000001,0.904114
2018-09-26T21:38:19.616312Z,-1.099304,-0.563666,0.26887300000000003
2018-09-26T21:38:19.791312Z,0.387546,0.792258,-0.160655
2018-09-26T21:38:19.993312Z,0.6053109999999999,1.257866,0.311052
2018-09-26T21:38:20.205312Z,0.645029,-0.023118,0.568368
2018-09-26T21:38:20.392312Z,0.710016,-0.39639800000000003,-0.31461
2018-09-26T21:38:20.594312Z,0.286562,0.6786270000000001,1.050577
2018-09-26T21:38:20.793312Z,-0.08808400000000001,-0.254419,0.779179
2018-09-26T21:38:21.007312Z,0.318212,-0.649133,-1.1432579999999999
2018-09-26T21:38:21.192312Z,0.376631,0.160652,-0.5208699999999999
2018-09-26T21:38:21.393312Z,0.25448699999999996,0.187124,0.963276
2018-09-26T21:38:21.592312Z,0.293838,-0.559196,-0.099566
2018-09-26T21:38:21.794312Z,0.21151199999999998,-0.399765,-0.275424
2018-09-26T21:38:21.994312Z,0.648406,-0.006456999999999999,0.171908
2018-09-26T21:38:22.192312Z,0.41565,-0.229618,0.509422
2018-09-26T21:38:22.408312Z,0.797788,-0.770617,-0.062137
2018-09-26T21:38:22.676312Z,1.187964,-0.178725,-0.529126
2018-09-26T21:38:22.793312Z,-0.089507,0.853002,-0.301156
2018-09-26T21:38:22.995312Z,-0.798692,-0.769857,0.332338
2018-09-26T21:38:23.194312Z,-0.7713399999999999,-0.722581,-0.615437
2018-09-26T21:38:23.393312Z,0.128571,-0.002739,-0.5297
2018-09-26T21:38:23.594312Z,0.407461,0.69671,-0.403975
2018-09-26T21:38:23.796312Z,-0.099436,0.044346,1.049765
2018-09-26T21:38:23.995312Z,-0.069374,-0.390276,-0.068607
2018-09-26T21:38:24.196312Z,0.5685600000000001,0.070146,-0.369661
2018-09-26T21:38:24.395312Z,1.0568549999999999,0.411415,0.3314
2018-09-26T21:38:24.596312Z,0.7628060000000001,-1.185658,0.422555
2018-09-26T21:38:24.810312Z,1.013388,-0.636454,-0.6808350000000001
2018-09-26T21:38:25.010312Z,0.493608,0.297655,0.04431
2018-09-26T21:38:25.205312Z,0.6928770000000001,0.767977,-0.024038
2018-09-26T21:38:25.395312Z,0.46974799999999994,-0.923026,0.260348
2018-09-26T21:38:25.595312Z,0.475868,-0.214006,-0.678708
2018-09-26T21:38:25.795312Z,0.289931,0.43907700000000005,-0.209981
2018-09-26T21:38:25.998312Z,0.493516,0.514653,1.309122
2018-09-26T21:38:26.198312Z,0.717112,-1.0676139999999998,-0.367185
2018-09-26T21:38:26.398312Z,0.507822,-0.10083500000000001,-0.704082
2018-09-26T21:38:26.596312Z,-0.155626,0.9673700000000001,0.156681
2018-09-26T21:38:26.811312Z,-0.761998,0.305629,0.883217
2018-09-26T21:38:26.997312Z,0.4144,-0.585489,-0.6086689999999999
2018-09-26T21:38:27.198312Z,0.35683899999999996,0.5893430000000001,0.215709
2018-09-26T21:38:27.480312Z,0.25164899999999996,0.47879099999999997,0.783737
2018-09-26T21:38:27.639312Z,0.27253499999999997,-0.543058,0.729275
2018-09-26T21:38:27.839312Z,0.736813,-0.159875,-1.42927
2018-09-26T21:38:28.040312Z,1.54358,0.547467,-0.545235
2018-09-26T21:38:28.198312Z,1.5810870000000001,0.30744,2.217918
2018-09-26T21:38:28.438312Z,-3.547071,-0.45664099999999996,-0.9390209999999999
2018-09-26T21:38:28.638312Z,-1.212183,-1.58918,0.828707
2018-09-26T21:38:28.798312Z,1.125868,-0.498564,0.805297
2018-09-26T21:38:28.998312Z,1.047816,0.009355,0.94132
2018-09-26T21:38:29.199312Z,-0.26127,-0.17955,0.042075
2018-09-26T21:38:29.416312Z,0.465492,0.228256,0.48397799999999996
2018-09-26T21:38:29.600312Z,0.636634,-0.300588,0.0157
2018-09-26T21:38:29.802312Z,2.232392,-0.35427800000000004,0.508412
2018-09-26T21:38:30.080312Z,1.7793759999999998,-0.076201,-0.47861000000000004
2018-09-26T21:38:30.198312Z,0.188398,0.248804,0.48573
2018-09-26T21:38:30.440312Z,0.976203,-0.5960529999999999,-0.186096
2018-09-26T21:38:30.614312Z,0.582605,-0.354356,-0.031443
2018-09-26T21:38:30.801312Z,-0.159857,0.14158099999999998,-0.589174
2018-09-26T21:38:31.001312Z,-0.602899,0.038771,0.261176
2018-09-26T21:38:31.200312Z,-0.028232999999999998,-0.42874399999999996,0.587893
2018-09-26T21:38:31.401312Z,1.03839,0.06564099999999999,0.67965
2018-09-26T21:38:31.602312Z,0.204154,0.257282,0.831558
2018-09-26T21:38:31.802312Z,0.127272,0.912084,-0.748333
2018-09-26T21:38:32.034312Z,-0.709152,-0.593152,1.2940479999999999
2018-09-26T21:38:32.201312Z,-0.440488,0.163852,-1.485744
2018-09-26T21:38:32.416312Z,-0.29430700000000004,-0.508675,0.199217
2018-09-26T21:38:32.601312Z,0.569476,0.371605,0.283407
2018-09-26T21:38:32.802312Z,1.552289,1.510944,-0.984906
2018-09-26T21:38:33.003312Z,1.612028,0.376139,1.966384
2018-09-26T21:38:33.202312Z,0.188588,-0.83096,0.23599699999999998
2018-09-26T21:38:33.403312Z,0.78933,0.087986,-0.84178
2018-09-26T21:38:33.603312Z,0.625963,0.10248900000000001,-0.7437729999999999
2018-09-26T21:38:33.821312Z,0.231396,1.067615,-0.5922390000000001
2018-09-26T21:38:34.015312Z,-0.46730900000000003,0.10293,1.250491
2018-09-26T21:38:34.203312Z,0.5606760000000001,0.102747,-0.580955
2018-09-26T21:38:34.403312Z,-0.49611400000000005,-0.471159,0.189404
2018-09-26T21:38:34.605312Z,-0.668826,-0.753905,0.7843359999999999
2018-09-26T21:38:34.802312Z,1.611874,-0.985193,0.059587
2018-09-26T21:38:35.003312Z,1.443749,-1.364088,1.166922
2018-09-26T21:38:35.202312Z,1.1546370000000001,-0.997811,0.338985
2018-09-26T21:38:35.405312Z,0.9086930000000001,-0.541378,-0.363034
2018-09-26T21:38:35.604312Z,1.0421200000000002,0.27936,0.00479
2018-09-26T21:38:35.803312Z,-0.082881,-1.308088,0.818016
2018-09-26T21:38:36.004312Z,0.06241,-0.893279,-0.641054
2018-09-26T21:38:36.205312Z,0.138575,-0.383759,0.34857
2018-09-26T21:38:36.458312Z,1.227381,-1.079157,1.7221349999999997
2018-09-26T21:38:36.604312Z,0.5301640000000001,-1.478083,-0.036687
2018-09-26T21:38:36.824312Z,0.8288409999999999,-0.491087,-0.415382
2018-09-26T21:38:37.005312Z,0.891199,-0.489433,1.310712
2018-09-26T21:38:37.205312Z,1.529584,-1.031277,1.0010139999999998
2018-09-26T21:38:37.406312Z,1.2099309999999999,-0.773566,-0.7460439999999999
2018-09-26T21:38:37.606312Z,0.10955899999999999,-0.232618,0.010554000000000001
2018-09-26T21:38:37.806312Z,0.6020909999999999,-0.142841,1.19601
2018-09-26T21:38:38.006312Z,0.8273,-1.873443,1.1218700000000001
2018-09-26T21:38:38.213312Z,0.719979,-1.182477,-0.15193900000000002
2018-09-26T21:38:38.405312Z,0.006790999999999999,-0.77335,0.376512
2018-09-26T21:38:38.606312Z,0.08769099999999999,-0.964325,0.15879200000000002
2018-09-26T21:38:38.808312Z,0.063558,-0.25257399999999997,-0.277023
2018-09-26T21:38:39.006312Z,0.32163,0.888208,0.27812
2018-09-26T21:38:39.208312Z,0.09376,0.41935200000000006,0.7466079999999999
2018-09-26T21:38:39.444312Z,0.117506,-1.347418,0.24548499999999998
2018-09-26T21:38:39.622312Z,0.183586,-0.681764,-0.864981
2018-09-26T21:38:39.818312Z,0.078112,0.477995,0.726205
2018-09-26T21:38:40.007312Z,-0.325934,-0.997807,0.719398
2018-09-26T21:38:40.210312Z,-0.247612,-0.7471270000000001,-0.834284
2018-09-26T21:38:40.407312Z,0.680001,-0.621238,-0.26068800000000003
2018-09-26T21:38:40.609312Z,-0.09855900000000001,-0.7535149999999999,1.211856
2018-09-26T21:38:40.809312Z,-0.032271,-1.488448,-0.7453529999999999
2018-09-26T21:38:41.025312Z,-0.9928950000000001,-0.093712,-0.701939
2018-09-26T21:38:41.208312Z,-2.116055,-0.945464,0.59841
2018-09-26T21:38:41.408312Z,-1.893002,-1.265862,-0.003759
2018-09-26T21:38:41.608312Z,-1.181243,-0.969045,0.32815500000000003
2018-09-26T21:38:41.808312Z,0.874654,-0.532546,0.174818
2018-09-26T21:38:42.023312Z,2.038648,0.042256,0.5089130000000001
2018-09-26T21:38:42.209312Z,1.755047,0.31425,-0.690303
2018-09-26T21:38:42.410312Z,1.11788,1.034841,1.103119
2018-09-26T21:38:42.628312Z,0.408221,-0.28731999999999996,0.868345
2018-09-26T21:38:42.811312Z,-0.178597,-1.196237,-0.2956
2018-09-26T21:38:43.024312Z,0.462347,0.284287,-0.054885
2018-09-26T21:38:43.209312Z,-0.003991,0.179661,1.373564
2018-09-26T21:38:43.410312Z,-0.664483,-1.24525,0.387733
2018-09-26T21:38:43.609312Z,-0.465912,-0.864657,-0.934269
2018-09-26T21:38:43.812312Z,-0.624484,0.0202,0.911589
2018-09-26T21:38:44.010312Z,-0.937635,-1.360447,0.413861
2018-09-26T21:38:44.210312Z,-0.143317,-0.5050939999999999,-0.8261620000000001
2018-09-26T21:38:44.411312Z,-0.213977,0.043427,0.20286300000000002
2018-09-26T21:38:44.610312Z,0.855824,-0.467071,0.79388
2018-09-26T21:38:44.810312Z,1.442169,-0.921175,-0.322176
2018-09-26T21:38:45.011312Z,0.628826,-0.012036,-1.366816
2018-09-26T21:38:45.212312Z,1.054983,1.45326,0.728787
2018-09-26T21:38:45.431312Z,0.6121949999999999,-1.777165,0.439841
2018-09-26T21:38:45.613312Z,1.230685,-0.633434,-0.78247
2018-09-26T21:38:45.853312Z,0.957542,0.152263,-0.177068
2018-09-26T21:38:46.012312Z,1.38929,0.219297,0.9962479999999999
2018-09-26T21:38:46.229312Z,1.3593629999999999,-0.9892989999999999,-1.083834
2018-09-26T21:38:46.423312Z,1.4670969999999999,-0.133268,-0.07648200000000001
2018-09-26T21:38:46.612312Z,0.12456800000000001,0.572217,0.864107
2018-09-26T21:38:46.813312Z,-0.8317180000000001,0.183474,1.320509
2018-09-26T21:38:47.014312Z,0.43256999999999995,-0.65585,-0.9819200000000001
2018-09-26T21:38:47.306312Z,0.604862,0.219597,0.057037
2018-09-26T21:38:47.412312Z,0.721385,0.786596,0.9839889999999999
2018-09-26T21:38:47.627312Z,0.6928310000000001,-1.324092,1.4786700000000002
2018-09-26T21:38:47.814312Z,1.6036860000000002,-1.020936,-0.157107
2018-09-26T21:38:48.013312Z,0.842233,-0.383831,0.44535399999999997
2018-09-26T21:38:48.225312Z,0.48064399999999996,-0.44921400000000006,1.283955
2018-09-26T21:38:48.418312Z,0.46948500000000004,-1.718379,0.46842399999999995
2018-09-26T21:38:48.614312Z,0.33874099999999996,-0.49632600000000004,-0.235841
2018-09-26T21:38:48.815312Z,-0.081299,0.417192,0.25011300000000003
2018-09-26T21:38:49.014312Z,-0.010517,-0.541024,1.8157759999999998
2018-09-26T21:38:49.213312Z,0.883433,-1.748925,-0.470102
2018-09-26T21:38:49.425312Z,-0.630587,0.096343,0.333471
2018-09-26T21:38:49.614312Z,-1.5072370000000002,-0.606933,1.282351
2018-09-26T21:38:49.816312Z,-1.4999799999999999,-1.205286,-0.485138
2018-09-26T21:38:50.015312Z,-0.960181,-0.367701,-0.734386
2018-09-26T21:38:50.216312Z,-0.068734,0.682682,0.066933
2018-09-26T21:38:50.416312Z,0.48458599999999996,-0.405129,0.38777399999999995
2018-09-26T21:38:50.617312Z,0.432713,-0.66667,-0.575138
2018-09-26T21:38:50.816312Z,0.43345100000000003,0.368839,-0.8339979999999999
2018-09-26T21:38:51.016312Z,-0.165471,-0.097887,1.188028
2018-09-26T21:38:51.278312Z,0.093059,-1.004936,-0.59435
2018-09-26T21:38:51.416312Z,0.305935,-0.27273600000000003,-0.524922
2018-09-26T21:38:51.633312Z,-0.14227,0.349369,0.10504200000000001
2018-09-26T21:38:51.816312Z,0.44728100000000004,-0.972599,0.063947
2018-09-26T21:38:52.016312Z,0.22060500000000002,-0.400129,-0.891136
2018-09-26T21:38:52.218312Z,0.513145,0.6285609999999999,-0.5410659999999999
2018-09-26T21:38:52.417312Z,0.824607,1.543927,0.317027
2018-09-26T21:38:52.618312Z,-0.282067,-1.0280770000000001,0.32752800000000004
2018-09-26T21:38:52.818312Z,0.481134,-0.5644319999999999,-1.1019379999999999
2018-09-26T21:38:53.020312Z,0.37709000000000004,0.627287,-0.657337
2018-09-26T21:38:53.230312Z,0.7703949999999999,0.6768270000000001,0.70612
2018-09-26T21:38:53.418312Z,0.62125,-1.3195860000000001,0.236785
2018-09-26T21:38:53.617312Z,0.607324,-0.572426,-0.7666149999999999
2018-09-26T21:38:53.830312Z,0.698002,0.549146,-0.101248
2018-09-26T21:38:54.017312Z,-0.226829,1.240821,0.310131
2018-09-26T21:38:54.218312Z,-1.438632,-1.5296319999999999,-0.117703
2018-09-26T21:38:54.418312Z,-0.520315,-0.6113970000000001,-0.8200040000000001
2018-09-26T21:38:54.619312Z,0.200983,0.598791,0.034527999999999996
2018-09-26T21:38:54.819312Z,0.519167,0.786401,1.038166
2018-09-26T21:38:55.020312Z,0.698343,-0.741584,-1.050776
2018-09-26T21:38:55.236312Z,0.538566,0.292185,-0.832643
2018-09-26T21:38:55.419312Z,0.125951,1.102673,0.8390629999999999
2018-09-26T21:38:55.619312Z,0.305123,0.039684,1.224057
2018-09-26T21:38:55.820312Z,0.667148,-0.361111,-1.177319
2018-09-26T21:38:56.021312Z,0.469754,0.46911800000000003,0.429537
2018-09-26T21:38:56.221312Z,1.382311,0.418375,1.585758
2018-09-26T21:38:56.433312Z,0.820802,-0.999725,0.728676
2018-09-26T21:38:56.619312Z,2.298809,-0.780892,0.12496900000000001
2018-09-26T21:38:56.820312Z,0.9713280000000001,-0.072577,0.643526
2018-09-26T21:38:57.024312Z,0.6637460000000001,-0.28108,0.971777
2018-09-26T21:38:57.220312Z,0.717138,-1.563376,0.8617520000000001
2018-09-26T21:38:57.422312Z,0.190476,0.048885000000000005,-0.48218
2018-09-26T21:38:57.622312Z,0.101375,0.591376,0.324267
2018-09-26T21:38:57.823312Z,0.433245,-0.584976,1.9301099999999998
2018-09-26T21:38:58.023312Z,-0.637099,-1.673774,-0.537388
2018-09-26T21:38:58.223312Z,-0.237434,0.142567,0.44085699999999994
2018-09-26T21:38:58.421312Z,-0.28073899999999996,-0.373726,0.749736
2018-09-26T21:38:58.683312Z,-0.539667,-1.459408,0.376779
2018-09-26T21:38:58.822312Z,0.763563,-0.665242,-1.240897
2018-09-26T21:38:59.075312Z,1.461054,-0.248581,1.2330139999999998
2018-09-26T21:38:59.222312Z,1.438472,-1.930261,0.972295
2018-09-26T21:38:59.422312Z,1.481293,-1.460785,-0.15579
2018-09-26T21:38:59.623312Z,1.525025,-0.931112,0.496482
2018-09-26T21:38:59.824312Z,-0.050562,-0.625008,1.0755299999999999
2018-09-26T21:39:00.024312Z,-0.564543,-1.91375,-0.146585
2018-09-26T21:39:00.230312Z,0.230289,-0.72212,-0.716071
2018-09-26T21:39:00.422312Z,0.224138,0.47566800000000004,-0.324821
2018-09-26T21:39:00.624312Z,0.142074,-1.807352,1.463398
2018-09-26T21:39:00.823312Z,0.228055,-1.476928,-1.136628
2018-09-26T21:39:01.024312Z,0.25955700000000004,-0.339283,-0.658067
2018-09-26T21:39:01.225312Z,-0.10062,0.7184470000000001,0.773332
2018-09-26T21:39:01.425312Z,-1.275539,-1.714304,-0.401054
2018-09-26T21:39:01.695312Z,-0.276055,-0.8707010000000001,-0.8565659999999999
2018-09-26T21:39:01.824312Z,-1.1952450000000001,0.295736,0.139566
2018-09-26T21:39:02.045312Z,-1.3374629999999998,-0.45422399999999996,1.618486
2018-09-26T21:39:02.224312Z,-0.715444,-1.317636,-0.087387
2018-09-26T21:39:02.424312Z,0.082621,-0.061803,-0.47621099999999994
2018-09-26T21:39:02.625312Z,0.23229499999999997,1.125626,0.551042
2018-09-26T21:39:02.826312Z,-0.436147,-0.022851,1.417821
2018-09-26T21:39:03.026312Z,-0.054657000000000004,-0.360195,-0.675379
2018-09-26T21:39:03.226312Z,0.289649,0.8877120000000001,-0.227644
2018-09-26T21:39:03.426312Z,0.43061400000000005,0.858751,0.993366
2018-09-26T21:39:03.637312Z,-0.014696,-1.1276760000000001,1.447185
2018-09-26T21:39:03.826312Z,0.118585,-0.098707,-0.7799659999999999
2018-09-26T21:39:04.027312Z,-0.647636,0.8253219999999999,0.40339
2018-09-26T21:39:04.227312Z,-0.910911,-1.397959,2.364818
2018-09-26T21:39:04.427312Z,-0.227751,-1.607374,-0.9418780000000001
2018-09-26T21:39:04.645312Z,0.478709,0.101536,-0.051324
2018-09-26T21:39:04.827312Z,0.807758,0.542287,0.043658999999999996
2018-09-26T21:39:05.028312Z,1.033476,1.3896469999999999,-0.15331
2018-09-26T21:39:05.297312Z,0.593703,0.6495890000000001,0.240337
2018-09-26T21:39:05.427312Z,2.895859,-1.6842970000000002,0.14676199999999998
2018-09-26T21:39:05.645312Z,1.52286,-0.746408,-0.9144450000000001
2018-09-26T21:39:05.826312Z,0.596514,0.226331,-0.10119199999999999
2018-09-26T21:39:06.026312Z,1.127204,1.19661,-0.199431
2018-09-26T21:39:06.228312Z,-0.654284,-1.287291,0.262418
2018-09-26T21:39:06.429312Z,-0.528674,-0.8393370000000001,-0.932267
2018-09-26T21:39:06.646312Z,0.371384,-0.032645,-0.092325
2018-09-26T21:39:06.828312Z,-0.45172799999999996,0.905149,0.10019600000000001
2018-09-26T21:39:07.048312Z,0.12016700000000001,-0.274208,1.2221030000000002
2018-09-26T21:39:07.246312Z,-0.411012,-1.115997,-0.890183
2018-09-26T21:39:07.429312Z,0.33019699999999996,-0.062224,-0.369015
2018-09-26T21:39:07.630312Z,0.6310819999999999,0.5132260000000001,0.680423
2018-09-26T21:39:07.828312Z,0.637901,-1.20344,0.7385510000000001
2018-09-26T21:39:08.044312Z,2.395398,-0.679144,-0.783003
2018-09-26T21:39:08.230312Z,1.8625490000000002,-0.893351,0.434964
2018-09-26T21:39:08.430312Z,1.3523399999999999,-1.273452,1.027221
2018-09-26T21:39:08.631312Z,1.136886,-1.813398,0.48271899999999995
2018-09-26T21:39:08.830312Z,1.004931,-1.130436,0.457375
2018-09-26T21:39:09.031312Z,0.171491,-0.529303,1.6220139999999998
2018-09-26T21:39:09.231312Z,-0.45481800000000006,-1.575977,0.711453
2018-09-26T21:39:09.432312Z,-0.12000799999999999,-0.594417,-0.251655
2018-09-26T21:39:09.630312Z,-0.046656,0.29226199999999997,0.499539
2018-09-26T21:39:09.830312Z,0.129149,-0.32654,1.720695
2018-09-26T21:39:10.031312Z,0.785706,-2.004341,-0.05513200000000001
2018-09-26T21:39:10.231312Z,0.306128,0.047682999999999996,0.010598
2018-09-26T21:39:10.432312Z,0.083175,0.29339,1.4347370000000002
2018-09-26T21:39:10.633312Z,-0.451169,-1.887271,1.251049
2018-09-26T21:39:10.832312Z,-0.122395,-1.072634,-1.2578
2018-09-26T21:39:11.051312Z,-1.0920040000000002,-0.305083,0.9593649999999999
2018-09-26T21:39:11.233312Z,-1.0069569999999999,-1.8168330000000001,1.55599
2018-09-26T21:39:11.431312Z,-1.569131,-1.683168,-0.41721
2018-09-26T21:39:11.640312Z,-0.4658,-0.797017,0.10156699999999999
2018-09-26T21:39:11.845312Z,1.499643,0.675524,-0.394874
2018-09-26T21:39:12.033312Z,1.340805,0.7952899999999999,0.491133
2018-09-26T21:39:12.232312Z,0.45663000000000004,-0.46503,0.646029
2018-09-26T21:39:12.432312Z,1.068149,-0.609298,-0.24248899999999998
2018-09-26T21:39:12.634312Z,0.388698,0.379456,-0.32855700000000004
2018-09-26T21:39:12.833312Z,-0.08048999999999999,0.769939,0.032987
2018-09-26T21:39:13.035312Z,0.473038,-0.034244,1.54284
2018-09-26T21:39:13.253312Z,0.9969520000000001,-0.937184,-0.330271
2018-09-26T21:39:13.435312Z,0.769691,0.190968,-0.469654
2018-09-26T21:39:13.634312Z,0.066616,0.393658,0.6927409999999999
2018-09-26T21:39:13.834312Z,-0.170629,-0.268902,0.606669
2018-09-26T21:39:14.033312Z,0.090517,-0.8787,-0.849993
2018-09-26T21:39:14.234312Z,0.702118,0.016849,-0.231587
2018-09-26T21:39:14.434312Z,0.695235,-0.381,0.8466299999999999
2018-09-26T21:39:14.635312Z,0.6826760000000001,-1.64488,1.235
2018-09-26T21:39:14.836312Z,0.806167,-1.226422,-0.6415890000000001
2018-09-26T21:39:15.036312Z,0.8288559999999999,-0.320434,-0.486196
2018-09-26T21:39:15.252312Z,0.23641500000000001,0.186576,-0.043526
2018-09-26T21:39:15.436312Z,0.499072,-0.910449,1.4906139999999999
2018-09-26T21:39:15.636312Z,-1.103561,-1.6388169999999997,-0.49962799999999996
2018-09-26T21:39:15.852312Z,-0.625566,-0.20605300000000001,0.14801199999999998
2018-09-26T21:39:16.038312Z,-1.267131,-0.447909,0.117953
2018-09-26T21:39:16.236312Z,-0.046263,-1.8729209999999998,0.5886859999999999
2018-09-26T21:39:16.451312Z,0.621633,-0.776158,-0.207788
2018-09-26T21:39:16.637312Z,0.054288,-0.6119939999999999,-0.055427
2018-09-26T21:39:16.837312Z,0.545276,-0.365649,0.16062
2018-09-26T21:39:17.037312Z,0.132853,0.060715,-0.095055
2018-09-26T21:39:17.236312Z,0.172497,-0.200531,0.060412
2018-09-26T21:39:17.435312Z,-0.668502,0.085338,0.24107399999999998
2018-09-26T21:39:17.636312Z,-1.086566,0.004529999999999999,-0.16023199999999999
2018-09-26T21:39:17.851312Z,-1.176796,-0.19534,-0.176341
2018-09-26T21:39:18.037312Z,-0.231508,-0.186119,-0.069958
2018-09-26T21:39:18.238312Z,0.549239,-0.241558,0.5748810000000001
2018-09-26T21:39:18.443312Z,0.11983800000000001,-0.534313,-0.45925200000000005
2018-09-26T21:39:18.638312Z,0.579307,0.03556,-0.518459
2018-09-26T21:39:18.838312Z,0.69495,0.359457,1.030516
2018-09-26T21:39:19.039312Z,1.468792,-0.415839,-0.881125
2018-09-26T21:39:19.239312Z,1.044875,0.6141,-1.1240459999999999
2018-09-26T21:39:19.440312Z,0.89089,0.5803659999999999,0.196399
2018-09-26T21:39:19.639312Z,0.6928989999999999,0.8020649999999999,0.194826
2018-09-26T21:39:19.838312Z,0.289953,-0.695184,-0.8256379999999999
2018-09-26T21:39:20.038312Z,0.588336,0.191466,-0.711331
2018-09-26T21:39:20.239312Z,0.0069489999999999994,0.5342439999999999,0.772971
2018-09-26T21:39:20.439312Z,0.058554999999999996,-0.308973,1.062406
2018-09-26T21:39:20.640312Z,-1.134643,-1.0913110000000001,-0.231143
2018-09-26T21:39:20.840312Z,-0.661829,-0.364628,0.103271
2018-09-26T21:39:21.041312Z,0.326279,-0.08267000000000001,0.971231
2018-09-26T21:39:21.241312Z,1.418303,-0.359602,0.5429510000000001
2018-09-26T21:39:21.441312Z,1.277009,-0.7150989999999999,-0.277685
2018-09-26T21:39:21.721312Z,1.429278,0.114548,-0.10338800000000001
2018-09-26T21:39:21.839312Z,1.705097,0.075119,1.691036
2018-09-26T21:39:22.041312Z,2.641978,-0.717956,0.22427199999999997
2018-09-26T21:39:22.240312Z,1.145593,-0.737848,0.225739
2018-09-26T21:39:22.440312Z,0.492725,-0.43668199999999996,0.497829
2018-09-26T21:39:22.640312Z,-0.027139,0.13201,0.181591
2018-09-26T21:39:22.842312Z,-0.761572,-0.423437,-0.074587
2018-09-26T21:39:23.043312Z,0.035503,0.423541,0.25202800000000003
2018-09-26T21:39:23.242312Z,-0.444755,-0.352873,0.466887
2018-09-26T21:39:23.519312Z,0.37293899999999996,-1.3666459999999998,0.107483
2018-09-26T21:39:23.640312Z,-0.08055,-0.44373900000000005,-1.021647
2018-09-26T21:39:23.842312Z,-1.1129120000000001,-0.48751400000000006,0.798313
2018-09-26T21:39:24.042312Z,-1.2439850000000001,-1.0850520000000001,-0.154554
2018-09-26T21:39:24.241312Z,-0.7414930000000001,-0.295183,-0.901316
2018-09-26T21:39:24.442312Z,-0.09011799999999999,0.44570600000000005,-0.193377
2018-09-26T21:39:24.644312Z,0.17414300000000002,-0.7661979999999999,0.649569
2018-09-26T21:39:24.843312Z,0.523311,-0.60393,-0.9013629999999999
2018-09-26T21:39:25.044312Z,-0.106544,0.41968999999999995,-1.280921
2018-09-26T21:39:25.243312Z,0.621065,1.052936,0.464046
2018-09-26T21:39:25.460312Z,0.41984499999999997,-0.851418,-0.050912
2018-09-26T21:39:25.642312Z,0.72213,-0.73387,-0.7630279999999999
2018-09-26T21:39:25.843312Z,0.49049799999999993,-0.11761400000000001,0.405967
2018-09-26T21:39:26.044312Z,1.728117,-0.254346,1.145943
2018-09-26T21:39:26.262312Z,2.311865,-1.7851259999999998,0.031758
2018-09-26T21:39:26.444312Z,0.9313870000000001,-1.318391,0.414184
2018-09-26T21:39:26.644312Z,-0.66357,-0.544606,0.742657
2018-09-26T21:39:26.860312Z,-0.489011,0.028255000000000002,0.417738
2018-09-26T21:39:27.045312Z,0.30509400000000003,-1.826543,-0.171467
2018-09-26T21:39:27.246312Z,0.10986300000000002,-0.7969890000000001,0.0217
2018-09-26T21:39:27.445312Z,0.076414,0.223243,0.345881
2018-09-26T21:39:27.646312Z,0.289197,0.068503,0.405523
2018-09-26T21:39:27.845312Z,0.943499,-0.963141,-0.614667
2018-09-26T21:39:28.048312Z,0.49717700000000004,-0.360053,0.25542600000000004
2018-09-26T21:39:28.245312Z,-0.108161,-0.010308,0.752741
2018-09-26T21:39:28.446312Z,-0.595163,-0.181144,1.356179
2018-09-26T21:39:28.645312Z,-0.086399,-1.731282,0.556709
2018-09-26T21:39:28.932312Z,0.09676900000000001,0.027372000000000004,-0.847253
2018-09-26T21:39:29.046312Z,-1.417206,-0.256873,1.0222959999999999
2018-09-26T21:39:29.246312Z,-0.665904,-1.9447330000000003,1.092007
2018-09-26T21:39:29.446312Z,-0.766814,-0.898769,-0.5869949999999999
2018-09-26T21:39:29.646312Z,-0.22408899999999998,-0.388394,-0.057936
2018-09-26T21:39:29.847312Z,0.249038,0.547806,0.660756
2018-09-26T21:39:30.047312Z,0.585226,0.27673400000000004,1.303558
2018-09-26T21:39:30.248312Z,-0.483696,-0.650079,-1.2512379999999999
2018-09-26T21:39:30.447312Z,-0.225875,0.47785900000000003,-0.261368
2018-09-26T21:39:30.649312Z,-0.258116,-0.030389999999999997,1.41149
2018-09-26T21:39:30.846312Z,0.676194,-0.5238970000000001,0.741586
2018-09-26T21:39:31.049312Z,-0.9706899999999999,-0.465822,-0.8496889999999999
2018-09-26T21:39:31.249312Z,-2.021452,-1.076422,1.047867
2018-09-26T21:39:31.447312Z,-1.51326,-2.4549369999999997,1.266268
2018-09-26T21:39:31.649312Z,0.8588319999999999,-1.5705149999999999,0.09030099999999999
2018-09-26T21:39:31.850312Z,0.160857,0.084491,0.797184
2018-09-26T21:39:32.050312Z,0.99264,0.25919899999999996,0.612058
2018-09-26T21:39:32.249312Z,1.235485,-0.727166,-0.163198
2018-09-26T21:39:32.449312Z,0.8895200000000001,0.096076,-0.740015
2018-09-26T21:39:32.650312Z,0.47454399999999997,0.718567,0.9474809999999999
2018-09-26T21:39:32.849312Z,0.976506,-0.817371,0.377905
2018-09-26T21:39:33.053312Z,1.2819129999999999,-0.567589,-1.329413
2018-09-26T21:39:33.249312Z,1.6869189999999998,0.738308,-0.578281
2018-09-26T21:39:33.449312Z,2.882863,-1.097442,1.66041
2018-09-26T21:39:33.649312Z,2.00561,-0.795706,-0.317492
2018-09-26T21:39:33.850312Z,0.946536,-0.311442,-0.243471
2018-09-26T21:39:34.051312Z,0.08923500000000001,0.185384,1.01263
2018-09-26T21:39:34.252312Z,-0.310896,-0.8343659999999999,-0.845606
2018-09-26T21:39:34.519312Z,-0.554826,-0.329944,-0.36337600000000003
2018-09-26T21:39:34.651312Z,-2.764204,-0.6478189999999999,0.9923129999999999
2018-09-26T21:39:34.864312Z,-2.749227,-2.699604,1.309326
2018-09-26T21:39:35.051312Z,-0.572419,-2.511916,0.333285
2018-09-26T21:39:35.269312Z,1.154015,-2.108175,1.073228
2018-09-26T21:39:35.450312Z,1.512382,-2.839725,1.294086
2018-09-26T21:39:35.652312Z,1.4788350000000001,-0.518831,-0.026608
2018-09-26T21:39:35.853312Z,1.339719,1.0543,1.13344
2018-09-26T21:39:36.052312Z,1.208261,0.711255,0.933066
2018-09-26T21:39:36.251312Z,1.7772400000000002,-0.897963,-0.254164
2018-09-26T21:39:36.451312Z,0.51447,-0.001498,-1.90934
2018-09-26T21:39:36.652312Z,0.263495,0.501801,1.8882889999999999
2018-09-26T21:39:36.852312Z,0.584384,-1.445822,-0.728675
2018-09-26T21:39:37.053312Z,0.598056,-0.779429,-1.302166
2018-09-26T21:39:37.254312Z,1.408768,1.3261690000000002,0.828306
2018-09-26T21:39:37.453312Z,0.713781,-1.559572,-0.11246099999999999
2018-09-26T21:39:37.662312Z,0.8104,0.06461599999999999,-1.6374360000000001
2018-09-26T21:39:37.868312Z,0.115299,1.223882,1.1765700000000001
2018-09-26T21:39:38.053312Z,-0.178655,-0.29641799999999996,1.351912
2018-09-26T21:39:38.258312Z,0.32269499999999995,-0.059909000000000004,-0.8991899999999999
2018-09-26T21:39:38.467312Z,0.269369,0.027344,1.703082
2018-09-26T21:39:38.655312Z,0.9571069999999999,-0.437241,0.9984959999999999
2018-09-26T21:39:38.906312Z,0.909057,-1.477314,-0.954888
2018-09-26T21:39:39.054312Z,-0.090936,0.9445629999999999,1.84425
2018-09-26T21:39:39.301312Z,0.115684,-1.0198129999999999,1.184058
2018-09-26T21:39:39.454312Z,0.987766,-1.219753,-1.20664
2018-09-26T21:39:39.654312Z,0.84972,0.12193399999999999,-0.5190229999999999
2018-09-26T21:39:39.854312Z,0.580851,-0.711272,0.7703409999999999
2018-09-26T21:39:40.055312Z,0.216135,-1.077461,-1.666051
2018-09-26T21:39:40.255312Z,0.161455,0.767546,-0.185619
2018-09-26T21:39:40.454312Z,-1.520864,1.837852,0.9369139999999999
2018-09-26T21:39:40.655312Z,1.075719,-1.5055370000000001,-1.655448
2018-09-26T21:39:40.857312Z,0.329177,0.653889,0.12301199999999998
2018-09-26T21:39:41.056312Z,0.33885,-0.375309,2.068508
2018-09-26T21:39:41.256312Z,0.099201,-1.546369,0.751778
2018-09-26T21:39:41.457312Z,0.37045,-0.7026979999999999,-0.583358
2018-09-26T21:39:41.670312Z,0.377821,0.252496,-0.430095
2018-09-26T21:39:41.856312Z,-0.043677,0.630681,0.480732
2018-09-26T21:39:42.056312Z,-0.349056,0.11861500000000001,1.173008
2018-09-26T21:39:42.256312Z,0.275473,-0.141984,0.10814700000000001
2018-09-26T21:39:42.457312Z,0.143244,-0.868275,1.3943709999999998
2018-09-26T21:39:42.657312Z,1.038591,-1.109782,0.5894229999999999
2018-09-26T21:39:42.857312Z,0.5953689999999999,-1.17487,-1.14321
2018-09-26T21:39:43.057312Z,0.5593640000000001,-1.894511,0.233927
2018-09-26T21:39:43.257312Z,1.981296,0.389423,0.194416
2018-09-26T21:39:43.459312Z,1.884264,0.558829,0.294488
2018-09-26T21:39:43.658312Z,0.07837000000000001,-2.489978,0.42825
2018-09-26T21:39:43.858312Z,-0.571292,-0.76658,0.502237
2018-09-26T21:39:44.058312Z,-0.27923400000000004,-0.391428,-0.569617
2018-09-26T21:39:44.275312Z,-0.18187,-0.742293,0.563807
2018-09-26T21:39:44.459312Z,0.696005,0.005065,-0.061702
2018-09-26T21:39:44.679312Z,-0.050917000000000004,0.5986130000000001,-0.6729689999999999
2018-09-26T21:39:44.859312Z,-0.46769399999999994,0.05651900000000001,-0.229752
2018-09-26T21:39:45.059312Z,-1.424987,-1.060932,0.8420200000000001
2018-09-26T21:39:45.259312Z,-0.826607,-0.848593,0.059958000000000004
2018-09-26T21:39:45.459312Z,-1.614203,-0.889841,-0.25017
2018-09-26T21:39:45.660312Z,-0.798683,-0.794151,-0.087296
2018-09-26T21:39:45.878312Z,0.289323,-0.686811,0.810258
2018-09-26T21:39:46.061312Z,1.035344,0.091397,-0.027807
2018-09-26T21:39:46.261312Z,1.059664,1.643096,-0.475763
2018-09-26T21:39:46.461312Z,0.44084399999999996,1.2286299999999999,0.19387100000000002
2018-09-26T21:39:46.660312Z,-0.6841079999999999,-0.038583,1.294633
2018-09-26T21:39:46.871312Z,-0.441246,-0.8215,-0.360597
2018-09-26T21:39:47.062312Z,-0.002457,0.993031,-0.297083
2018-09-26T21:39:47.267312Z,-0.796513,0.7687609999999999,0.7146399999999999
2018-09-26T21:39:47.460312Z,0.44033900000000004,-1.3094729999999999,0.826968
2018-09-26T21:39:47.674312Z,0.511602,-0.481712,-1.942939
2018-09-26T21:39:47.861312Z,-0.09115,0.153867,1.203683
2018-09-26T21:39:48.061312Z,0.30821,-1.324172,1.115225
2018-09-26T21:39:48.262312Z,1.152303,-1.4648,-0.226192
2018-09-26T21:39:48.462312Z,0.564446,-0.268148,-0.480627
2018-09-26T21:39:48.663312Z,0.696868,0.006289,-0.42214799999999997
2018-09-26T21:39:48.868312Z,-0.49771000000000004,1.1089280000000001,-0.875058
2018-09-26T21:39:49.077312Z,-0.20747100000000002,0.907538,0.454929
2018-09-26T21:39:49.262312Z,0.256687,0.165941,-0.414734
2018-09-26T21:39:49.463312Z,-0.001855,0.6991609999999999,-0.7961189999999999
2018-09-26T21:39:49.682312Z,0.383667,0.889322,-1.187132
2018-09-26T21:39:49.880312Z,0.429784,0.029106,1.5933540000000002
2018-09-26T21:39:50.064312Z,-0.177823,-1.345479,1.5113459999999999
2018-09-26T21:39:50.263312Z,1.007364,-0.407537,-1.2599200000000002
2018-09-26T21:39:50.463312Z,0.111829,0.749834,-0.5147390000000001
2018-09-26T21:39:50.664312Z,-1.131353,0.8536299999999999,-0.25109699999999996
2018-09-26T21:39:50.863312Z,-0.958476,0.080885,0.47953999999999997
2018-09-26T21:39:51.062312Z,1.056861,-0.7742680000000001,0.645787
2018-09-26T21:39:51.265312Z,0.5100060000000001,-0.05930800000000001,-1.3550389999999999
2018-09-26T21:39:51.465312Z,0.306722,1.1663290000000002,-0.22611399999999998
2018-09-26T21:39:51.665312Z,0.511051,0.707739,0.950882
2018-09-26T21:39:51.866312Z,0.127338,-1.49875,-0.033353
2018-09-26T21:39:52.064312Z,0.190422,-0.832784,0.036023
2018-09-26T21:39:52.266312Z,-0.51263,-0.242984,0.0023989999999999997
2018-09-26T21:39:52.464312Z,0.38864899999999997,0.240348,0.475192
2018-09-26T21:39:52.665312Z,0.20610100000000003,-0.662597,0.039852
2018-09-26T21:39:52.865312Z,-0.16886800000000002,-0.505104,-0.143506
2018-09-26T21:39:53.065312Z,-0.080821,-0.607038,0.18171199999999998
2018-09-26T21:39:53.284312Z,-0.05878200000000001,-0.217196,-0.482072
2018-09-26T21:39:53.467312Z,-0.28467,-0.06527000000000001,0.199463
2018-09-26T21:39:53.667312Z,-0.757892,0.165415,0.150196
2018-09-26T21:39:53.867312Z,-0.638216,-0.030470999999999998,0.635488
2018-09-26T21:39:54.067312Z,0.361506,-0.084275,0.27905399999999997
2018-09-26T21:39:54.268312Z,1.567698,0.035127,0.184337
2018-09-26T21:39:54.469312Z,0.814257,0.148817,0.23768699999999998
2018-09-26T21:39:54.669312Z,0.31838099999999997,-0.09740800000000001,-0.30433899999999997
2018-09-26T21:39:54.889312Z,0.041264,-0.133985,-0.150898
2018-09-26T21:39:55.086312Z,-0.12959400000000001,0.291169,-0.545506
2018-09-26T21:39:55.287312Z,-0.737638,0.348283,-0.473225
2018-09-26T21:39:55.467312Z,-0.691257,0.775991,-0.30304899999999996
2018-09-26T21:39:55.668312Z,-0.8441709999999999,-0.110081,0.253365
2018-09-26T21:39:55.868312Z,0.41162,0.48837600000000003,-0.482258
2018-09-26T21:39:56.084312Z,-0.207058,1.0655139999999999,-0.8746719999999999
2018-09-26T21:39:56.268312Z,0.850368,1.1292149999999999,0.23886500000000002
2018-09-26T21:39:56.468312Z,0.339066,0.7732289999999999,0.6985239999999999
2018-09-26T21:39:56.668312Z,-0.533876,-0.6689970000000001,-0.26521500000000003
2018-09-26T21:39:56.867312Z,0.17236300000000002,0.153864,-1.108241
2018-09-26T21:39:57.082312Z,-0.191113,1.147399,-0.43411700000000003
2018-09-26T21:39:57.269312Z,-0.39192899999999997,1.311965,0.983217
2018-09-26T21:39:57.468312Z,-0.115605,-1.1787459999999998,-1.5065959999999998
2018-09-26T21:39:57.682312Z,0.03429,-0.272502,-1.958533
2018-09-26T21:39:57.887312Z,-2.342597,0.9619479999999999,1.499967
2018-09-26T21:39:58.085312Z,-2.515863,-0.468551,1.1041219999999998
2018-09-26T21:39:58.272312Z,-0.10372100000000001,-0.250307,-0.399072
2018-09-26T21:39:58.485312Z,1.139778,-0.111321,1.829284
2018-09-26T21:39:58.684312Z,1.655658,-0.8792989999999999,0.35792399999999996
2018-09-26T21:39:58.870312Z,1.340067,-0.078275,-1.910074
2018-09-26T21:39:59.071312Z,-0.442607,0.998418,1.513089
2018-09-26T21:39:59.271312Z,-1.281153,-0.8750469999999999,0.137096
2018-09-26T21:39:59.472312Z,-0.216486,-0.30506300000000003,-1.602036
2018-09-26T21:39:59.671312Z,0.20825900000000003,0.712258,-0.042318
2018-09-26T21:39:59.871312Z,2.762409,-1.3559709999999998,1.2509940000000002
2018-09-26T21:40:00.079312Z,2.4043669999999997,-1.5014889999999999,-0.29356
2018-09-26T21:40:00.271312Z,2.4501150000000003,-0.28020300000000004,0.127621
2018-09-26T21:40:00.470312Z,1.255863,0.228221,1.2721120000000001
2018-09-26T21:40:00.671312Z,0.104457,-2.2826150000000003,-0.020003999999999997
2018-09-26T21:40:00.871312Z,0.889917,-1.39926,-0.034328
2018-09-26T21:40:01.073312Z,1.5022,-1.9885169999999999,2.3448990000000003
2018-09-26T21:40:01.272312Z,1.6067,-2.383554,1.7468169999999998
2018-09-26T21:40:01.473312Z,0.6803640000000001,-0.380601,0.8173020000000001
2018-09-26T21:40:01.674312Z,0.43860699999999997,0.138068,1.098829
2018-09-26T21:40:01.874312Z,-1.043231,-1.399138,0.286215
2018-09-26T21:40:02.112312Z,0.8797530000000001,-0.714532,-0.9690340000000001
2018-09-26T21:40:02.283312Z,-1.1465670000000001,0.051431,1.718025
2018-09-26T21:40:02.473312Z,-0.43390100000000004,-1.007792,-0.495992
2018-09-26T21:40:02.672312Z,-1.410457,-0.087248,-1.7523689999999998
2018-09-26T21:40:02.874312Z,0.9503209999999999,1.153932,1.38547
2018-09-26T21:40:03.074312Z,0.49374300000000004,-1.2055799999999999,-0.41440200000000005
2018-09-26T21:40:03.289312Z,0.5018779999999999,-0.235724,-1.464517
2018-09-26T21:40:03.474312Z,-0.8507319999999999,-0.009811,1.492474
2018-09-26T21:40:03.674312Z,0.49324300000000004,-0.658771,1.1894790000000002
2018-09-26T21:40:03.958312Z,0.41269300000000003,-0.339854,-0.921768
2018-09-26T21:40:04.085312Z,-0.552126,0.812238,1.9491470000000002
2018-09-26T21:40:04.274312Z,-0.237364,-1.515547,0.601636
2018-09-26T21:40:04.490312Z,0.36886399999999997,-1.353427,-0.967938
2018-09-26T21:40:04.714312Z,-0.213639,0.680789,1.006521
2018-09-26T21:40:04.874312Z,0.06770599999999999,-0.6306189999999999,1.046451
2018-09-26T21:40:05.096312Z,0.495342,-1.3379860000000001,-0.84711
2018-09-26T21:40:05.274312Z,0.79273,0.275338,-0.887654
2018-09-26T21:40:05.475312Z,0.564146,-0.622337,0.896754
2018-09-26T21:40:05.675312Z,0.616116,-1.2693139999999998,-0.650216
2018-09-26T21:40:05.889312Z,1.10887,-0.348935,0.148591
2018-09-26T21:40:06.076312Z,1.7153029999999998,-1.375842,1.790154
2018-09-26T21:40:06.308312Z,0.509644,-0.63645,-0.284724
2018-09-26T21:40:06.492312Z,0.813403,-0.19180899999999998,0.04395
2018-09-26T21:40:06.690312Z,0.756161,-0.459967,1.521234
2018-09-26T21:40:06.893312Z,0.641049,-0.8341290000000001,0.042186
2018-09-26T21:40:07.091312Z,0.178944,0.042509,0.39815900000000004
2018-09-26T21:40:07.278312Z,0.067001,-0.469383,1.920247
2018-09-26T21:40:07.491312Z,0.834908,-1.9791759999999998,0.358093
2018-09-26T21:40:07.681312Z,0.44233999999999996,-0.346758,-2.187757
2018-09-26T21:40:07.876312Z,-0.6740109999999999,-0.47372,1.4409020000000001
2018-09-26T21:40:08.079312Z,-0.835385,-1.40415,0.089265
2018-09-26T21:40:08.282312Z,0.083123,-0.816824,-1.158258
2018-09-26T21:40:08.477312Z,0.235983,0.771474,0.521636
2018-09-26T21:40:08.678312Z,0.7384609999999999,-1.212497,-0.283039
2018-09-26T21:40:08.877312Z,0.264866,-0.565291,-0.885083
2018-09-26T21:40:09.079312Z,0.048612,0.127702,1.5074610000000002
2018-09-26T21:40:09.277312Z,-1.066292,-0.707483,0.500441
2018-09-26T21:40:09.478312Z,-0.081575,0.070651,-0.740312
2018-09-26T21:40:09.679312Z,-0.7355010000000001,0.517497,1.1486299999999998
2018-09-26T21:40:09.879312Z,1.183189,-0.895848,1.143045
2018-09-26T21:40:10.078312Z,1.394785,-1.427557,-1.10001
2018-09-26T21:40:10.279312Z,-0.19614,0.493903,2.741714
2018-09-26T21:40:10.480312Z,0.042025,-0.76523,0.49850600000000006
2018-09-26T21:40:10.733312Z,0.568113,-1.0391350000000001,-2.053553
2018-09-26T21:40:10.879312Z,-0.8415729999999999,0.294097,-0.439474
2018-09-26T21:40:11.089312Z,0.059088999999999996,-0.5674819999999999,0.049208999999999996
2018-09-26T21:40:11.279312Z,0.776748,-0.792034,-1.415702
2018-09-26T21:40:11.480312Z,0.820066,1.0247899999999999,0.07161000000000001
2018-09-26T21:40:11.680312Z,-0.650887,0.12693800000000002,2.800508
2018-09-26T21:40:11.880312Z,0.314019,-0.9537899999999999,-1.914005
2018-09-26T21:40:12.080312Z,-0.543185,0.654552,0.13530899999999998
2018-09-26T21:40:12.280312Z,-1.2159010000000001,0.513128,1.624366
2018-09-26T21:40:12.480312Z,1.070853,-0.8760020000000001,-0.5062220000000001
2018-09-26T21:40:12.681312Z,0.42442700000000005,1.520788,0.673269
2018-09-26T21:40:12.881312Z,-0.359081,0.152255,1.757127
2018-09-26T21:40:13.081312Z,0.681543,-1.7956509999999999,-0.10215
2018-09-26T21:40:13.287312Z,-0.8341049999999999,-1.059456,-2.6932099999999997
2018-09-26T21:40:13.481312Z,1.1169209999999998,0.121254,2.5749470000000003
2018-09-26T21:40:13.695312Z,0.998984,-1.2647760000000001,-0.973146
2018-09-26T21:40:13.882312Z,-0.024659,-0.5333720000000001,-1.380249
2018-09-26T21:40:14.099312Z,0.056528999999999996,1.447292,1.4851219999999998
2018-09-26T21:40:14.283312Z,0.087931,-0.9674219999999999,-1.144033
2018-09-26T21:40:14.499312Z,-0.282534,-0.29478699999999997,-1.267817
2018-09-26T21:40:14.682312Z,0.205025,1.132236,1.511949
2018-09-26T21:40:14.882312Z,0.385168,-0.9095489999999999,1.9477349999999998
2018-09-26T21:40:15.082312Z,-0.243784,-0.41866499999999995,-1.1353540000000002
2018-09-26T21:40:15.282312Z,-1.6793189999999998,0.222558,0.729633
2018-09-26T21:40:15.483312Z,-2.137857,-0.494429,1.221903
2018-09-26T21:40:15.683312Z,-1.751307,-1.4478870000000001,-1.1787040000000002
2018-09-26T21:40:15.883312Z,-0.40623200000000004,0.933818,0.9082549999999999
2018-09-26T21:40:16.101312Z,1.328135,0.340627,1.090927
2018-09-26T21:40:16.285312Z,2.099371,0.08463,-0.965417
2018-09-26T21:40:16.509312Z,0.9006,0.19571,-1.5516809999999999
2018-09-26T21:40:16.685312Z,2.079,0.380715,1.803362
2018-09-26T21:40:16.886312Z,1.604624,-1.099213,-0.9526899999999999
2018-09-26T21:40:17.086312Z,0.704974,0.303159,-0.514614
2018-09-26T21:40:17.285312Z,-0.8146,0.637379,0.612947
2018-09-26T21:40:17.504312Z,0.497122,-0.9395709999999999,-0.930527
2018-09-26T21:40:17.745312Z,-0.337956,-0.205504,-1.570893
2018-09-26T21:40:17.893312Z,-1.237905,0.776497,1.92085
2018-09-26T21:40:18.128312Z,-1.010182,-0.516012,0.464133
2018-09-26T21:40:18.288312Z,-0.206246,0.179147,0.8339489999999999
2018-09-26T21:40:18.485312Z,-0.116606,-0.056862,2.007901
2018-09-26T21:40:18.686312Z,0.41294,-1.319987,-0.6805260000000001
2018-09-26T21:40:18.886312Z,-0.26047,-0.536352,-1.53415
2018-09-26T21:40:19.086312Z,-0.415491,-0.097607,1.193791
2018-09-26T21:40:19.286312Z,0.067343,-0.6507,-1.3136370000000002
2018-09-26T21:40:19.486312Z,-0.269803,0.035227,-0.16706500000000002
2018-09-26T21:40:19.686312Z,0.628109,0.006151,1.4814370000000001
2018-09-26T21:40:19.887312Z,1.110854,-0.7578630000000001,-0.905624
2018-09-26T21:40:20.086312Z,0.787316,-0.396661,0.801541
2018-09-26T21:40:20.286312Z,1.225725,-0.026532999999999998,1.531435
2018-09-26T21:40:20.487312Z,1.9354930000000001,-1.6693939999999998,0.979332
2018-09-26T21:40:20.688312Z,-0.204575,0.297025,-0.163653
2018-09-26T21:40:20.888312Z,-0.09534400000000001,-0.21753499999999998,1.230127
2018-09-26T21:40:21.089312Z,0.71086,-1.097374,0.083125
2018-09-26T21:40:21.289312Z,0.399779,-0.610456,-0.8908950000000001
2018-09-26T21:40:21.489312Z,-0.203255,-0.331726,1.7115470000000002
2018-09-26T21:40:21.689312Z,-0.10037599999999999,-1.1606049999999999,-0.440558
2018-09-26T21:40:21.900312Z,-0.118324,-1.255025,-1.1086790000000002
2018-09-26T21:40:22.089312Z,0.211689,0.347382,1.322646
2018-09-26T21:40:22.289312Z,0.8229350000000001,-1.159376,-1.316929
2018-09-26T21:40:22.489312Z,0.303551,-0.444999,-0.099445
2018-09-26T21:40:22.689312Z,0.01934,0.551271,1.945861
2018-09-26T21:40:22.889312Z,-0.167576,-0.935746,0.91732
2018-09-26T21:40:23.090312Z,0.081464,0.036351999999999995,0.07360599999999999
2018-09-26T21:40:23.291312Z,0.511397,-0.062139,1.591993
2018-09-26T21:40:23.530312Z,0.782683,-1.624917,0.013671
2018-09-26T21:40:23.689312Z,0.147465,-1.072549,-0.907004
2018-09-26T21:40:23.890312Z,-0.5792109999999999,-0.337669,1.487475
2018-09-26T21:40:24.089312Z,-0.573419,-1.52749,-0.028866000000000003
2018-09-26T21:40:24.290312Z,-0.617163,-0.931502,-1.369907
2018-09-26T21:40:24.492312Z,0.654669,1.312556,0.855935
2018-09-26T21:40:24.692312Z,0.918005,-1.058409,-0.553657
2018-09-26T21:40:24.903312Z,-0.05992000000000001,-0.368514,-0.7476
2018-09-26T21:40:25.091312Z,0.361306,0.577525,1.2682280000000001
2018-09-26T21:40:25.291312Z,0.39805100000000004,-0.744555,0.827032
2018-09-26T21:40:25.491312Z,-0.0048850000000000005,0.20746599999999998,-0.5475869999999999
2018-09-26T21:40:25.691312Z,0.744311,-0.039936,0.645818
2018-09-26T21:40:25.891312Z,0.598283,-0.631741,1.060557
2018-09-26T21:40:26.091312Z,1.1376,-0.770333,-0.9834309999999999
2018-09-26T21:40:26.290312Z,0.425483,0.411682,1.495296
2018-09-26T21:40:26.501312Z,2.319748,-1.063101,2.401585
2018-09-26T21:40:26.694312Z,2.831741,-2.797161,0.114711
2018-09-26T21:40:26.894312Z,2.001404,-0.9263549999999999,-1.39835
2018-09-26T21:40:27.094312Z,0.237236,-0.866135,1.1174680000000001
2018-09-26T21:40:27.294312Z,0.598949,-1.685183,0.539918
2018-09-26T21:40:27.494312Z,1.076115,-0.6416229999999999,-0.808465
2018-09-26T21:40:27.702312Z,-0.16950199999999999,0.095738,-0.17061700000000002
2018-09-26T21:40:27.895312Z,-1.279069,-2.058763,-0.08717799999999999
2018-09-26T21:40:28.093312Z,-0.22386199999999998,-0.500406,-1.134691
2018-09-26T21:40:28.294312Z,0.051085000000000005,0.154134,0.802795
2018-09-26T21:40:28.494312Z,0.859712,-0.083207,1.604534
2018-09-26T21:40:28.693312Z,0.705539,-1.29249,-1.586442
2018-09-26T21:40:28.892312Z,0.400108,0.702518,0.65886
2018-09-26T21:40:29.098312Z,-0.714482,-1.073489,2.138744
2018-09-26T21:40:29.294312Z,-0.96468,-1.357264,-0.6400239999999999
2018-09-26T21:40:29.494312Z,0.582769,0.116346,0.980089
2018-09-26T21:40:29.694312Z,0.981187,-0.923924,1.368686
2018-09-26T21:40:29.893312Z,0.9431719999999999,-1.174941,-1.210217
2018-09-26T21:40:30.130312Z,0.09702899999999999,0.024551,-1.397
2018-09-26T21:40:30.294312Z,-0.262934,-1.370527,1.5978
2018-09-26T21:40:30.494312Z,0.096198,-1.187326,-1.337436
2018-09-26T21:40:30.733312Z,0.0011480000000000001,-0.081692,-0.626814
2018-09-26T21:40:30.895312Z,0.22934899999999997,0.8354239999999999,1.383055
2018-09-26T21:40:31.096312Z,0.44466700000000003,-1.247585,-0.622808
2018-09-26T21:40:31.295312Z,0.343144,-0.516949,-1.396471
2018-09-26T21:40:31.496312Z,-0.453479,0.660105,1.346625
2018-09-26T21:40:31.697312Z,-0.689555,-0.822737,1.837068
2018-09-26T21:40:31.985312Z,0.462528,-0.588729,-0.5011720000000001
2018-09-26T21:40:32.096312Z,0.8609040000000001,-0.729176,1.2710620000000001
2018-09-26T21:40:32.297312Z,1.122031,-0.8195620000000001,0.970807
2018-09-26T21:40:32.496312Z,1.2436770000000001,-0.6517430000000001,-0.48302
2018-09-26T21:40:32.696312Z,0.519212,0.644137,0.362462
2018-09-26T21:40:32.898312Z,-0.242261,1.041769,0.6726449999999999
2018-09-26T21:40:33.099312Z,-0.382842,-1.2803129999999998,0.862323
2018-09-26T21:40:33.337312Z,0.791042,-0.521315,-1.6784709999999998
2018-09-26T21:40:33.497312Z,-1.001803,-0.262814,1.771482
2018-09-26T21:40:33.723312Z,-0.7746970000000001,-1.474383,0.26679400000000003
2018-09-26T21:40:33.898312Z,-0.075265,-1.0537590000000001,-1.277034
2018-09-26T21:40:34.097312Z,-1.458496,1.2085190000000001,-1.073093
2018-09-26T21:40:34.298312Z,0.06422,-0.957946,0.38255700000000004
2018-09-26T21:40:34.499312Z,0.092822,-0.795183,-1.094852
2018-09-26T21:40:34.700312Z,0.273309,0.26406199999999996,0.24342399999999997
2018-09-26T21:40:34.900312Z,-0.136657,1.0968799999999999,0.507273
2018-09-26T21:40:35.100312Z,0.462704,-0.8715729999999999,-1.086627
2018-09-26T21:40:35.299312Z,0.10971600000000001,0.20113599999999998,-0.516181
2018-09-26T21:40:35.499312Z,0.27061199999999996,0.813754,0.694177
2018-09-26T21:40:35.704312Z,-0.708425,0.002117,0.8802469999999999
2018-09-26T21:40:35.899312Z,0.144603,-0.42725799999999997,-0.139222
2018-09-26T21:40:36.101312Z,-0.46482299999999993,0.750839,0.635262
2018-09-26T21:40:36.301312Z,-0.608819,-0.208564,1.225595
2018-09-26T21:40:36.546312Z,0.021957,-1.463752,-1.051483
2018-09-26T21:40:36.702312Z,-1.5646639999999998,-2.539892,1.292846
2018-09-26T21:40:36.932312Z,-0.712907,-3.1429150000000003,1.284865
2018-09-26T21:40:37.100312Z,-0.063974,-2.903168,0.845515
2018-09-26T21:40:37.300312Z,0.343548,-1.7854990000000002,0.61635
2018-09-26T21:40:37.501312Z,1.7514319999999999,-0.19362000000000001,0.38001399999999996
2018-09-26T21:40:37.702312Z,2.42422,-0.244369,0.364289
2018-09-26T21:40:37.901312Z,1.709491,-0.052437,-0.022072
2018-09-26T21:40:38.102312Z,1.695615,0.518976,0.017072
2018-09-26T21:40:38.302312Z,1.348842,-0.948736,0.781805
2018-09-26T21:40:38.513312Z,1.8447040000000001,-0.96375,-0.433825
2018-09-26T21:40:38.702312Z,2.815296,0.055467999999999996,0.397649
2018-09-26T21:40:38.902312Z,3.331775,-0.799138,1.392313
2018-09-26T21:40:39.102312Z,2.378266,-1.143138,-0.10197
2018-09-26T21:40:39.318312Z,-0.517889,-0.8210770000000001,0.8310280000000001
2018-09-26T21:40:39.503312Z,-0.706091,-0.8855370000000001,0.277173
2018-09-26T21:40:39.702312Z,-0.962551,-0.373965,-0.49288999999999994
2018-09-26T21:40:39.903312Z,-1.755443,-1.199481,0.588605
2018-09-26T21:40:40.104312Z,-1.878041,-2.351969,0.420388
2018-09-26T21:40:40.303312Z,0.8946280000000001,-0.9406260000000001,-0.592564
2018-09-26T21:40:40.502312Z,0.421414,0.182324,0.597075
2018-09-26T21:40:40.702312Z,1.345964,-0.451273,1.153502
2018-09-26T21:40:40.903312Z,0.685308,-0.790432,0.08357200000000001
2018-09-26T21:40:41.104312Z,0.489451,-0.273314,-1.21579
2018-09-26T21:40:41.305312Z,-0.089418,0.667219,0.229057
2018-09-26T21:40:41.505312Z,1.287608,-1.2019360000000001,-0.044668
2018-09-26T21:40:41.735312Z,0.9595520000000001,-0.696687,-0.954333
2018-09-26T21:40:41.904312Z,0.932794,0.8450290000000001,-0.009995
2018-09-26T21:40:42.104312Z,-0.09689500000000001,-0.430217,1.79487
2018-09-26T21:40:42.305312Z,0.072271,-0.71699,-0.9210940000000001
2018-09-26T21:40:42.504312Z,0.47558999999999996,-0.099965,0.197685
2018-09-26T21:40:42.705312Z,0.276453,0.668616,-0.047492
2018-09-26T21:40:42.906312Z,-0.697574,0.541719,1.443273
2018-09-26T21:40:43.105312Z,1.022723,-0.610987,-0.6252989999999999
2018-09-26T21:40:43.306312Z,1.337593,0.407037,-0.116683
2018-09-26T21:40:43.506312Z,0.37883,0.349524,0.531812
2018-09-26T21:40:43.717312Z,-0.003587,-0.43703800000000004,0.793549
2018-09-26T21:40:43.906312Z,-0.841643,-1.420891,0.254869
2018-09-26T21:40:44.105312Z,-0.13809100000000002,-0.39613400000000004,0.192019
2018-09-26T21:40:44.307312Z,1.5873549999999998,0.025901999999999998,0.161617
2018-09-26T21:40:44.535312Z,1.7805549999999999,0.802072,0.017912
2018-09-26T21:40:44.706312Z,0.657138,0.269412,0.171318
2018-09-26T21:40:44.914312Z,-0.8403940000000001,-0.23339000000000001,0.570943
2018-09-26T21:40:45.106312Z,-0.669266,-0.643893,-0.258187
2018-09-26T21:40:45.306312Z,0.058602,-0.291329,-0.726877
2018-09-26T21:40:45.508312Z,0.397497,1.251625,1.308206
2018-09-26T21:40:45.726312Z,0.8320649999999999,-0.098628,0.5871609999999999
2018-09-26T21:40:45.909312Z,0.758919,-0.598943,-0.489083
2018-09-26T21:40:46.109312Z,0.141248,0.274611,-0.8026909999999999
2018-09-26T21:40:46.318312Z,0.304516,-0.12531199999999998,0.251585
2018-09-26T21:40:46.518312Z,0.35039699999999996,-0.12581199999999998,-0.7128220000000001
2018-09-26T21:40:46.708312Z,0.509441,0.303245,-0.017874
2018-09-26T21:40:46.918312Z,1.280398,0.233161,1.038239
2018-09-26T21:40:47.107312Z,0.8964290000000001,-0.625467,-1.1980520000000001
2018-09-26T21:40:47.309312Z,0.494075,0.196103,-0.578022
2018-09-26T21:40:47.511312Z,0.358246,1.573935,0.61445
2018-09-26T21:40:47.711312Z,-0.589952,-0.40826999999999997,2.138498
2018-09-26T21:40:47.909312Z,-0.057109,-1.208906,-2.323777
2018-09-26T21:40:48.109312Z,0.004286,1.000556,0.20266199999999998
2018-09-26T21:40:48.310312Z,-0.122823,0.292526,1.43392
2018-09-26T21:40:48.523312Z,0.11538699999999999,-1.255935,0.791265
2018-09-26T21:40:48.710312Z,-0.195946,0.393761,-1.27342
2018-09-26T21:40:48.911312Z,-0.5336529999999999,-0.127078,2.196054
2018-09-26T21:40:49.110312Z,-0.07583200000000001,-0.950944,1.1542219999999999
2018-09-26T21:40:49.338312Z,-0.447775,-0.44819,-2.390404
2018-09-26T21:40:49.511312Z,-0.035013,0.288098,1.142717
2018-09-26T21:40:49.711312Z,0.886808,-0.813936,1.260264
2018-09-26T21:40:49.911312Z,1.036161,-1.047242,-0.964016
2018-09-26T21:40:50.112312Z,0.271308,-0.519479,-0.367557
2018-09-26T21:40:50.311312Z,-1.420632,-0.639103,0.711761
2018-09-26T21:40:50.532312Z,-0.671244,-0.94452,-1.279333
2018-09-26T21:40:50.712312Z,-1.306262,-0.586767,0.109997
2018-09-26T21:40:50.911312Z,-0.9566049999999999,-0.5679890000000001,0.8076760000000001
2018-09-26T21:40:51.112312Z,-0.902032,-0.8709450000000001,-0.711605
2018-09-26T21:40:51.312312Z,0.879025,0.636575,-0.638085
2018-09-26T21:40:51.530312Z,2.1545490000000003,2.155318,0.794733
2018-09-26T21:40:51.713312Z,0.439151,0.935227,1.628449
2018-09-26T21:40:51.913312Z,0.405088,-0.570275,-1.3495700000000002
2018-09-26T21:40:52.170312Z,0.841951,0.836707,-0.791552
2018-09-26T21:40:52.312312Z,0.042957999999999996,1.0054290000000001,1.4649020000000001
2018-09-26T21:40:52.513312Z,1.0268110000000001,-1.10848,1.119689
2018-09-26T21:40:52.712312Z,0.517714,0.6343340000000001,-0.450205
2018-09-26T21:40:52.913312Z,0.915267,0.694613,1.4928059999999999
2018-09-26T21:40:53.113312Z,0.8715719999999999,-0.671912,0.645059
2018-09-26T21:40:53.315312Z,0.8607360000000001,-0.45048999999999995,-1.5998709999999998
2018-09-26T21:40:53.515312Z,0.43314899999999995,0.23168000000000002,0.850042
2018-09-26T21:40:53.758312Z,1.194395,-0.726143,-0.086813
2018-09-26T21:40:53.915312Z,0.942318,-0.393895,-0.9925639999999999
2018-09-26T21:40:54.114312Z,0.183506,0.45341800000000004,-0.22546599999999997
2018-09-26T21:40:54.314312Z,-0.383786,-0.548049,0.189625
2018-09-26T21:40:54.514312Z,-0.618556,-0.9383950000000001,-1.139832
2018-09-26T21:40:54.714312Z,0.720875,1.139969,-0.228402
2018-09-26T21:40:54.915312Z,0.32819699999999996,0.715333,1.709976
2018-09-26T21:40:55.114312Z,1.020292,-0.276623,-2.089285
2018-09-26T21:40:55.314312Z,-0.184113,0.46115500000000004,0.306693
2018-09-26T21:40:55.515312Z,-0.08885499999999999,0.398326,1.922241
2018-09-26T21:40:55.716312Z,-0.02441,-0.9379569999999999,-0.118252
2018-09-26T21:40:55.916312Z,-0.083332,1.020869,-0.139969
2018-09-26T21:40:56.117312Z,-0.289582,0.595371,2.022107
2018-09-26T21:40:56.317312Z,0.9728979999999999,-0.8934700000000001,-0.246391
2018-09-26T21:40:56.517312Z,0.065439,-0.6818810000000001,-1.541212
2018-09-26T21:40:56.717312Z,-1.0868719999999998,-0.026026,1.348596
2018-09-26T21:40:56.937312Z,-0.834468,-0.831958,-0.155777
2018-09-26T21:40:57.124312Z,-0.548067,-0.37098200000000003,-1.69235
2018-09-26T21:40:57.319312Z,-0.238213,0.25811999999999996,1.011477
2018-09-26T21:40:57.517312Z,0.030523,-0.400859,-0.99516
2018-09-26T21:40:57.758312Z,0.27008899999999997,0.025591,-0.893907
2018-09-26T21:40:57.956312Z,1.116011,1.221897,1.102492
2018-09-26T21:40:58.157312Z,1.207747,-0.12016800000000001,-1.553053
2018-09-26T21:40:58.358312Z,0.174968,0.792613,0.134799
2018-09-26T21:40:58.558312Z,0.093979,1.094582,1.5588309999999999
2018-09-26T21:40:58.768312Z,2.173165,-1.15212,0.332388
2018-09-26T21:40:58.957312Z,0.322772,0.9580360000000001,0.659996
2018-09-26T21:40:59.158312Z,1.127781,-0.187843,1.3376
2018-09-26T21:40:59.390312Z,0.550144,-0.6815439999999999,-1.579287
2018-09-26T21:40:59.558312Z,-0.084883,0.153114,-1.036529
2018-09-26T21:40:59.814312Z,0.908661,-0.714439,0.844089
2018-09-26T21:40:59.958312Z,1.003572,-0.510415,-1.634343
2018-09-26T21:41:00.159312Z,1.492536,0.663339,-0.126875
2018-09-26T21:41:00.359312Z,-0.48844099999999996,0.8718969999999999,1.984348
2018-09-26T21:41:00.559312Z,-0.085739,-0.49595900000000004,-0.741088
2018-09-26T21:41:00.758312Z,-0.460258,0.6624899999999999,0.23010100000000003
2018-09-26T21:41:00.959312Z,0.295923,-1.143016,1.366471
2018-09-26T21:41:01.161312Z,-0.331583,-0.07649500000000001,-1.6841979999999999
2018-09-26T21:41:01.360312Z,-0.197741,0.967799,0.537054
2018-09-26T21:41:01.579312Z,-0.684584,-0.791425,0.8867
2018-09-26T21:41:01.761312Z,0.488755,-0.571009,-1.1205889999999998
2018-09-26T21:41:02.034312Z,1.609302,0.106616,0.159754
2018-09-26T21:41:02.161312Z,1.9291610000000001,-0.41235900000000003,1.0813979999999999
2018-09-26T21:41:02.411312Z,2.243341,-0.110865,-1.440136
2018-09-26T21:41:02.560312Z,1.625265,0.374336,0.157334
2018-09-26T21:41:02.760312Z,-1.512026,1.451818,0.34165999999999996
2018-09-26T21:41:02.964312Z,0.219048,-0.305537,-1.008369
2018-09-26T21:41:03.182312Z,0.23519,0.702677,0.22533699999999998
2018-09-26T21:41:03.437312Z,0.504991,-0.08050299999999999,1.4469299999999998
2018-09-26T21:41:03.561312Z,-0.201193,-1.192758,-0.5934119999999999
2018-09-26T21:41:03.763312Z,-2.602522,-0.523148,0.726337
2018-09-26T21:41:03.961312Z,-3.4715910000000005,-1.9467349999999999,1.275982
2018-09-26T21:41:04.162312Z,-1.190768,-1.7651430000000001,-0.599853
2018-09-26T21:41:04.363312Z,0.671275,-0.20289400000000002,0.494576
2018-09-26T21:41:04.562312Z,1.5566520000000001,0.07423099999999999,0.847281
2018-09-26T21:41:04.763312Z,1.732847,-0.597378,-0.342244
