Datetime,accx,accy,accz
2018-10-18T20:03:59.115255Z,0.6580199999999999,3.851379,-0.311707
2018-10-18T20:03:59.316255Z,0.39916999999999997,-0.565796,0.627319
2018-10-18T20:03:59.536255Z,-0.25708000000000003,-1.188293,0.620544
2018-10-18T20:03:59.723255Z,-0.513977,-0.19635,-0.655884
2018-10-18T20:03:59.916255Z,-0.302063,-0.134399,0.327881
2018-10-18T20:04:00.115255Z,-0.545227,0.59906,0.210022
2018-10-18T20:04:00.315255Z,-0.433044,0.136353,-0.548584
2018-10-18T20:04:00.515255Z,-0.236938,0.390625,0.771057
2018-10-18T20:04:00.716255Z,-0.089783,0.182922,-0.09564199999999999
2018-10-18T20:04:00.916255Z,-0.138855,0.261475,-0.19280999999999998
2018-10-18T20:04:01.319255Z,0.076538,-0.0018920000000000002,-0.043274
2018-10-18T20:04:01.516255Z,-0.370789,0.346802,0.16735799999999998
2018-10-18T20:04:01.716255Z,0.25500500000000004,0.041076999999999995,-0.569214
2018-10-18T20:04:01.917255Z,-0.688782,1.3714600000000001,-0.5327149999999999
2018-10-18T20:04:02.117255Z,-0.909485,2.0748900000000003,-0.29931599999999997
2018-10-18T20:04:02.319255Z,-0.207458,0.538879,1.063721
2018-10-18T20:04:02.516255Z,0.305237,-1.611328,-0.14788800000000002
2018-10-18T20:04:02.716255Z,-0.091003,0.719604,-0.57196
2018-10-18T20:04:02.918255Z,-0.37738,0.438354,0.33972199999999997
2018-10-18T20:04:03.115255Z,-0.929565,-1.443298,-1.244385
2018-10-18T20:04:03.316255Z,-0.942139,-1.321106,-1.307922
2018-10-18T20:04:03.515255Z,-1.568909,-0.044067,0.22711199999999998
2018-10-18T20:04:03.715255Z,-1.8466799999999999,-0.294739,-0.624451
2018-10-18T20:04:03.916255Z,-2.024658,1.243103,-0.706116
2018-10-18T20:04:04.115255Z,-1.583435,0.766357,0.175354
2018-10-18T20:04:04.316255Z,-0.7242430000000001,-0.143677,-0.74762
2018-10-18T20:04:04.516255Z,-0.759216,0.257202,-0.241821
2018-10-18T20:04:04.716255Z,-0.385254,1.154541,0.8088989999999999
2018-10-18T20:04:04.917255Z,-1.504517,-1.246216,-0.009766
2018-10-18T20:04:05.118255Z,-0.8764040000000001,-0.19476300000000002,-0.855591
2018-10-18T20:04:05.318255Z,-1.088989,0.088806,0.386841
2018-10-18T20:04:05.517255Z,-0.162354,-0.800354,-0.478271
2018-10-18T20:04:05.716255Z,-0.863892,1.079468,-1.621643
2018-10-18T20:04:05.916255Z,-0.269897,1.41272,0.070251
2018-10-18T20:04:06.116255Z,-1.396606,-0.977051,-0.103394
2018-10-18T20:04:06.334255Z,-0.610901,-0.514099,-0.561096
2018-10-18T20:04:06.516255Z,0.345093,-0.224487,-0.08520499999999999
2018-10-18T20:04:06.716255Z,1.885925,-2.24585,1.52417
2018-10-18T20:04:06.916255Z,1.337891,-0.7299800000000001,0.356628
2018-10-18T20:04:07.115255Z,-0.518372,1.6682740000000003,0.408875
2018-10-18T20:04:07.315255Z,-0.755188,-1.015015,1.411133
2018-10-18T20:04:07.516255Z,-0.236877,-0.11035199999999999,-1.477478
2018-10-18T20:04:07.776255Z,0.355164,0.503967,2.160767
2018-10-18T20:04:07.919255Z,1.335144,-0.548279,1.4176030000000002
2018-10-18T20:04:08.117255Z,0.868469,-0.619019,-0.768677
2018-10-18T20:04:08.316255Z,0.48492399999999997,-0.45385699999999995,0.412292
2018-10-18T20:04:08.516255Z,1.803284,-0.203369,0.135742
2018-10-18T20:04:08.725255Z,1.9708860000000001,-0.49585,-0.19500699999999999
2018-10-18T20:04:08.916255Z,1.8223880000000001,0.369446,-0.263733
2018-10-18T20:04:09.117255Z,1.10791,1.343384,-1.435242
2018-10-18T20:04:09.317255Z,0.49682600000000005,2.369751,-0.200439
2018-10-18T20:04:09.529255Z,-0.601013,0.654602,-0.571716
2018-10-18T20:04:09.715255Z,-0.611694,1.697632,-1.9902950000000001
2018-10-18T20:04:09.918255Z,-0.49316400000000005,2.631714,0.3974
2018-10-18T20:04:10.117255Z,2.0914919999999997,0.360535,-0.799927
2018-10-18T20:04:10.315255Z,0.19708299999999998,2.11438,-2.3918459999999997
2018-10-18T20:04:10.515255Z,-0.126526,2.217896,0.726562
2018-10-18T20:04:10.715255Z,-0.372742,-0.650879,0.5247189999999999
2018-10-18T20:04:10.916255Z,-0.067078,1.43927,-0.962708
2018-10-18T20:04:11.115255Z,-0.375671,1.366882,-0.020508000000000002
2018-10-18T20:04:11.317255Z,-0.657349,0.460693,-0.49688699999999997
2018-10-18T20:04:11.539255Z,-0.331177,0.275208,-0.661194
2018-10-18T20:04:11.719255Z,-1.016846,-1.966431,2.7565310000000003
2018-10-18T20:04:11.916255Z,-1.083191,0.075928,-0.780762
2018-10-18T20:04:12.118255Z,-0.9097290000000001,0.631592,-0.231567
2018-10-18T20:04:12.316255Z,0.743896,1.3539430000000001,0.974915
2018-10-18T20:04:12.516255Z,0.544556,-0.705078,-1.622559
2018-10-18T20:04:12.716255Z,0.436096,0.167053,-0.952515
2018-10-18T20:04:12.916255Z,0.310974,0.7867430000000001,0.128662
2018-10-18T20:04:13.116255Z,-2.651306,-1.918579,3.9030150000000003
2018-10-18T20:04:13.316255Z,-1.565613,-1.209229,-0.9569700000000001
2018-10-18T20:04:13.516255Z,-1.623413,-0.325928,0.253967
2018-10-18T20:04:13.716255Z,-1.49353,0.841248,-0.274048
2018-10-18T20:04:13.916255Z,-0.110107,0.526062,0.5291140000000001
2018-10-18T20:04:14.116255Z,0.186951,-1.002075,1.305908
2018-10-18T20:04:14.315255Z,-1.070007,0.5196529999999999,0.416626
2018-10-18T20:04:14.515255Z,-0.901611,0.126343,0.605164
2018-10-18T20:04:14.718255Z,-1.620117,-2.136414,-1.7742310000000001
2018-10-18T20:04:14.920255Z,-1.031433,-0.331421,-0.490356
2018-10-18T20:04:15.318255Z,0.670715,-0.065308,0.37011700000000003
2018-10-18T20:04:15.517255Z,-0.260376,-0.702209,0.9131469999999999
2018-10-18T20:04:15.718255Z,0.20959499999999998,0.647339,-0.036133
2018-10-18T20:04:15.916255Z,-1.3865969999999999,-1.252625,-0.19433599999999998
2018-10-18T20:04:16.116255Z,0.77533,-0.703125,0.187378
2018-10-18T20:04:16.380255Z,-0.06439199999999999,-1.0648799999999998,-0.014832
2018-10-18T20:04:16.518255Z,-0.690491,-0.596619,1.3131709999999999
2018-10-18T20:04:16.720255Z,0.9318850000000001,-2.448059,2.127625
2018-10-18T20:04:16.919255Z,2.337585,-1.6488040000000002,1.8067630000000001
2018-10-18T20:04:17.119255Z,0.709839,-1.270386,0.5802609999999999
2018-10-18T20:04:17.325255Z,-1.3272709999999999,1.150391,-1.564392
2018-10-18T20:04:17.515255Z,-2.02887,1.397217,-1.518982
2018-10-18T20:04:17.715255Z,-0.504761,2.312866,-0.30761700000000003
2018-10-18T20:04:17.916255Z,0.24151599999999998,3.290344,-2.1275020000000002
2018-10-18T20:04:18.115255Z,0.296265,3.528076,-0.469788
2018-10-18T20:04:18.318255Z,-1.136047,1.020813,1.1427610000000001
2018-10-18T20:04:18.521255Z,-0.5256350000000001,-0.653137,-1.210388
2018-10-18T20:04:18.715255Z,-1.106323,1.737061,-1.167542
2018-10-18T20:04:18.918255Z,-0.393372,1.483948,0.154419
2018-10-18T20:04:19.121255Z,0.504272,-0.054626,-0.028625
2018-10-18T20:04:19.316255Z,-0.043274,1.708984,-1.565125
2018-10-18T20:04:19.516255Z,0.07489,2.192566,0.533325
2018-10-18T20:04:19.716255Z,-0.5371090000000001,-0.39465300000000003,-0.127869
2018-10-18T20:04:19.916255Z,0.332458,1.253479,-1.542664
2018-10-18T20:04:20.116255Z,-0.23675500000000002,1.128845,-0.17395
2018-10-18T20:04:20.315255Z,-0.25012199999999996,0.025024,0.277771
2018-10-18T20:04:20.526255Z,-0.8436889999999999,0.582825,0.137939
2018-10-18T20:04:20.715255Z,-2.27533,1.3623049999999999,-0.705017
2018-10-18T20:04:20.915255Z,-3.418762,-0.374634,-0.657959
2018-10-18T20:04:21.116255Z,-1.592834,0.509521,-0.9237059999999999
2018-10-18T20:04:21.315255Z,0.074158,1.124268,0.497375
2018-10-18T20:04:21.515255Z,-0.591675,-1.123535,1.0433350000000001
2018-10-18T20:04:21.716255Z,-0.18829300000000002,0.237488,-1.2540280000000001
2018-10-18T20:04:21.918255Z,-0.9732059999999999,1.771484,1.515686
2018-10-18T20:04:22.120255Z,-0.618958,-2.299988,0.287659
2018-10-18T20:04:22.315255Z,-2.075073,-0.23468000000000003,-1.615601
2018-10-18T20:04:22.516255Z,-1.601257,-0.24780300000000002,-0.029602
2018-10-18T20:04:22.716255Z,-0.554321,1.282959,-0.484863
2018-10-18T20:04:22.916255Z,-1.113892,1.313599,-0.483521
2018-10-18T20:04:23.118255Z,0.392883,-0.625793,0.734192
2018-10-18T20:04:23.316255Z,0.74408,0.400208,-1.7249150000000002
2018-10-18T20:04:23.605255Z,0.130188,1.480591,-0.052917
2018-10-18T20:04:24.054255Z,1.262207,0.302002,0.112488
2018-10-18T20:04:24.254255Z,-0.081848,-1.117981,0.672607
2018-10-18T20:04:24.261255Z,-0.24572800000000003,-0.290161,-0.076477
2018-10-18T20:04:24.376255Z,-0.688782,0.721741,0.368958
2018-10-18T20:04:24.516255Z,-0.376526,-0.731201,0.461121
2018-10-18T20:04:24.716255Z,-0.257202,-0.541931,-0.307373
2018-10-18T20:04:24.917255Z,-0.46954300000000004,0.377136,-0.042480000000000004
2018-10-18T20:04:25.117255Z,-0.028931000000000002,0.508545,-0.8233030000000001
2018-10-18T20:04:25.317255Z,-0.275146,0.584839,-0.24115
2018-10-18T20:04:25.518255Z,-0.029053,0.326233,-0.345886
2018-10-18T20:04:25.721255Z,0.056090999999999995,0.08557100000000001,-0.37609899999999996
2018-10-18T20:04:25.917255Z,0.152588,0.9927370000000001,0.470459
2018-10-18T20:04:26.118255Z,0.524475,0.9038700000000001,-0.25293000000000004
2018-10-18T20:04:26.316255Z,0.287964,1.104004,-0.741699
2018-10-18T20:04:26.516255Z,-0.441833,-0.425537,2.8820189999999997
2018-10-18T20:04:26.715255Z,-1.344055,-2.601501,0.175293
2018-10-18T20:04:26.916255Z,-0.952393,-0.22033699999999998,-0.22900399999999999
2018-10-18T20:04:27.127255Z,-0.706604,0.6704100000000001,0.431946
2018-10-18T20:04:27.315255Z,0.110229,-2.265381,2.976746
2018-10-18T20:04:27.515255Z,-0.31262199999999996,-0.852844,-2.4402470000000003
2018-10-18T20:04:27.718255Z,-0.44635,-0.354614,0.282104
2018-10-18T20:04:27.915255Z,-0.33429000000000003,-1.65094,0.840759
2018-10-18T20:04:28.116255Z,-2.345398,-1.370544,-2.896484
2018-10-18T20:04:28.333255Z,-0.939575,-0.975403,-0.4599
2018-10-18T20:04:28.516255Z,-1.917725,-0.257202,-0.405273
2018-10-18T20:04:28.916255Z,-1.548767,0.232971,-0.8795780000000001
2018-10-18T20:04:29.116255Z,-1.372742,0.9168700000000001,0.21862800000000002
2018-10-18T20:04:29.316255Z,-0.340515,-0.267334,1.7705080000000002
2018-10-18T20:04:29.516255Z,1.1564940000000001,-1.3442379999999998,0.184875
2018-10-18T20:04:29.717255Z,-0.18298299999999998,0.379761,0.731995
2018-10-18T20:04:29.933255Z,-0.756653,-1.009888,-2.102051
2018-10-18T20:04:30.118255Z,0.23077399999999998,-1.544067,-1.190491
2018-10-18T20:04:30.316255Z,-0.0043950000000000005,-1.488953,0.824158
2018-10-18T20:04:30.521255Z,-0.172546,-1.1324459999999998,1.125793
2018-10-18T20:04:30.723255Z,1.257996,-1.521179,1.728577
2018-10-18T20:04:30.916255Z,0.972778,0.338501,-0.596069
2018-10-18T20:04:31.115255Z,0.48150600000000005,2.925598,2.0181880000000003
2018-10-18T20:04:31.315255Z,-0.337769,-0.8231809999999999,0.268005
2018-10-18T20:04:31.516255Z,1.256653,-1.166809,-0.812195
2018-10-18T20:04:31.716255Z,1.090576,-0.389221,-0.43255600000000005
2018-10-18T20:04:31.943255Z,0.317017,1.1370850000000001,-0.424622
2018-10-18T20:04:32.119255Z,0.914307,0.39306599999999997,-0.46563699999999997
2018-10-18T20:04:32.319255Z,2.59613,-1.057739,-0.823486
2018-10-18T20:04:32.521255Z,0.8718870000000001,-0.036864999999999995,-0.101562
2018-10-18T20:04:32.717255Z,-0.6516109999999999,2.004944,-0.514832
2018-10-18T20:04:32.916255Z,0.417603,1.5185549999999999,-0.8217770000000001
2018-10-18T20:04:33.116255Z,0.7482300000000001,2.185913,-0.347412
2018-10-18T20:04:33.316255Z,0.380737,2.6245119999999997,0.449341
2018-10-18T20:04:33.517255Z,0.287231,-0.12579300000000002,2.814209
2018-10-18T20:04:33.715255Z,0.30426,-0.682983,-1.2387700000000001
2018-10-18T20:04:33.915255Z,-0.032471,1.143799,-0.8193969999999999
2018-10-18T20:04:34.123255Z,-1.63385,1.7159419999999999,1.004944
2018-10-18T20:04:34.315255Z,-0.099182,-0.201904,-0.009949
2018-10-18T20:04:34.516255Z,-0.612793,0.333252,-0.26269499999999996
2018-10-18T20:04:34.723255Z,0.154541,-0.463135,-0.322021
2018-10-18T20:04:34.924255Z,-0.190796,-1.134888,-0.19586199999999998
2018-10-18T20:04:35.115255Z,0.624512,-0.181274,0.546082
2018-10-18T20:04:35.317255Z,-0.18603499999999998,-0.318298,-0.405884
2018-10-18T20:04:35.516255Z,-0.407288,0.6094970000000001,0.20977800000000002
2018-10-18T20:04:35.716255Z,-0.718018,0.30743400000000004,-0.927917
2018-10-18T20:04:35.918255Z,-0.711304,1.232849,-0.25402800000000003
2018-10-18T20:04:36.116255Z,-0.182251,0.5610350000000001,0.128113
2018-10-18T20:04:36.317255Z,0.159973,-0.9926149999999999,0.541748
2018-10-18T20:04:36.516255Z,0.008911,-0.24847399999999997,-1.8028560000000002
2018-10-18T20:04:36.717255Z,0.833252,1.242249,0.824158
2018-10-18T20:04:36.917255Z,-1.2333370000000001,-0.524414,1.3903809999999999
2018-10-18T20:04:37.117255Z,-0.815613,-3.335022,-1.6400759999999999
2018-10-18T20:04:37.315255Z,-0.730957,-1.7929689999999998,1.396851
2018-10-18T20:04:37.529255Z,0.267822,-0.455017,-0.136353
2018-10-18T20:04:37.725255Z,-1.3078,-0.858093,-0.173096
2018-10-18T20:04:37.926255Z,-0.29541,-1.039734,0.22021500000000002
2018-10-18T20:04:38.125255Z,-0.18145799999999998,-0.136353,0.036438
2018-10-18T20:04:38.325255Z,-0.015869,0.034607,-0.619568
2018-10-18T20:04:38.525255Z,-0.035461,0.592896,0.060851999999999996
2018-10-18T20:04:38.726255Z,-0.753174,-0.8653559999999999,0.445312
2018-10-18T20:04:38.933255Z,-0.9375610000000001,-1.906494,0.374268
2018-10-18T20:04:39.128255Z,-1.2261959999999998,-0.003113,0.878174
2018-10-18T20:04:39.326255Z,0.47955299999999995,-0.6206050000000001,0.20636
2018-10-18T20:04:39.528255Z,-0.69281,-1.6442869999999998,-0.382446
2018-10-18T20:04:39.731255Z,-0.946533,-0.148621,0.670227
2018-10-18T20:04:39.960255Z,-1.2647709999999999,0.041625999999999996,-0.598755
2018-10-18T20:04:40.128255Z,-2.220337,-2.85321,-0.617432
2018-10-18T20:04:40.329255Z,-1.941345,-2.381348,0.184204
2018-10-18T20:04:40.525255Z,-2.915466,-1.348328,-0.308594
2018-10-18T20:04:40.725255Z,-2.3820189999999997,0.21234099999999997,-0.277954
2018-10-18T20:04:40.925255Z,-2.1698,0.721985,-0.324524
2018-10-18T20:04:41.125255Z,-0.6965939999999999,-0.172974,1.10022
2018-10-18T20:04:41.325255Z,-0.793762,-0.022461000000000002,-2.339722
2018-10-18T20:04:41.525255Z,-1.7713009999999998,1.6898799999999998,-0.5351560000000001
2018-10-18T20:04:41.725255Z,-1.916748,-0.47161899999999995,0.587708
2018-10-18T20:04:41.932255Z,-0.9204709999999999,-0.780945,-0.8399049999999999
2018-10-18T20:04:42.138255Z,-0.8227540000000001,0.07067899999999999,-0.5707399999999999
2018-10-18T20:04:42.326255Z,0.354919,-1.048889,2.088867
2018-10-18T20:04:42.528255Z,0.480713,-1.804688,-0.311523
2018-10-18T20:04:42.726255Z,-0.16534400000000002,-1.4663700000000002,0.711609
2018-10-18T20:04:42.926255Z,-0.393372,0.671387,0.352905
2018-10-18T20:04:43.126255Z,-1.405884,1.1499629999999998,-0.36688200000000004
2018-10-18T20:04:43.328255Z,-3.1552729999999998,-1.858337,-0.05719
2018-10-18T20:04:43.726255Z,-0.8259280000000001,-0.6293949999999999,-0.665588
2018-10-18T20:04:43.925255Z,0.06329299999999999,0.5734859999999999,1.6658330000000001
2018-10-18T20:04:44.126255Z,-0.464783,-1.033142,0.71814
2018-10-18T20:04:44.325255Z,-0.878052,0.131409,0.005065999999999999
2018-10-18T20:04:44.525255Z,-1.7637939999999999,-0.886597,4.410889
2018-10-18T20:04:44.743255Z,-0.869568,-0.9920040000000001,-0.726807
2018-10-18T20:04:44.926255Z,0.856079,-0.49957299999999993,-0.33605999999999997
2018-10-18T20:04:45.125255Z,0.197571,-1.8807369999999999,1.673157
2018-10-18T20:04:45.327255Z,1.50824,-0.26855500000000004,-0.52179
2018-10-18T20:04:45.526255Z,1.850037,-0.9151610000000001,1.193298
2018-10-18T20:04:45.726255Z,2.174805,0.128967,-0.04364
2018-10-18T20:04:45.926255Z,0.9259639999999999,1.694336,-0.014038
2018-10-18T20:04:46.126255Z,-0.46411099999999994,-0.5578609999999999,1.232605
2018-10-18T20:04:46.326255Z,-0.185364,0.199463,-1.304993
2018-10-18T20:04:46.528255Z,0.516602,0.9702149999999999,0.53363
2018-10-18T20:04:46.726255Z,1.555481,0.08001699999999999,-0.161926
2018-10-18T20:04:46.961255Z,0.393982,1.023376,-1.674438
2018-10-18T20:04:47.127255Z,-0.862366,1.2516479999999999,-0.5200199999999999
2018-10-18T20:04:47.325255Z,-2.188416,-1.6195680000000001,0.322388
2018-10-18T20:04:47.527255Z,-0.664551,-0.6818850000000001,0.369629
2018-10-18T20:04:47.733255Z,0.897766,-0.7816770000000001,1.756836
2018-10-18T20:04:47.926255Z,-0.016968,-0.060974,-1.932739
2018-10-18T20:04:48.126255Z,-0.161987,0.064941,0.08996599999999999
2018-10-18T20:04:48.358255Z,-2.0512080000000004,-1.215637,2.3293459999999997
2018-10-18T20:04:48.525255Z,-0.09906000000000001,-0.391541,-1.199158
2018-10-18T20:04:48.727255Z,0.11389200000000001,0.692688,0.564697
2018-10-18T20:04:48.926255Z,1.262207,-1.022888,-1.7801509999999998
2018-10-18T20:04:49.132255Z,-0.132874,0.452271,-0.616943
2018-10-18T20:04:49.326255Z,-1.393738,-0.14141800000000002,0.054504
2018-10-18T20:04:49.526255Z,-0.814575,-1.5821530000000001,1.048096
2018-10-18T20:04:49.726255Z,-0.613525,-0.226257,-1.062439
2018-10-18T20:04:49.926255Z,-1.056519,-1.5126950000000001,3.4745480000000004
2018-10-18T20:04:50.126255Z,-2.793762,-0.217957,-0.901062
2018-10-18T20:04:50.327255Z,-0.48931899999999995,-1.8220830000000001,2.488586
2018-10-18T20:04:50.526255Z,-0.879517,-1.674133,0.108215
2018-10-18T20:04:50.727255Z,-2.2220459999999997,-0.763672,0.327881
2018-10-18T20:04:50.927255Z,-2.193298,0.40075700000000003,0.614746
2018-10-18T20:04:51.125255Z,-1.4202270000000001,0.5559689999999999,-0.906006
2018-10-18T20:04:51.328255Z,-1.84845,0.148865,-0.680237
2018-10-18T20:04:51.525255Z,-1.76593,0.7417600000000001,-0.8980100000000001
2018-10-18T20:04:51.725255Z,-1.142944,0.756775,0.119629
2018-10-18T20:04:51.926255Z,0.42480500000000004,-0.61438,2.342468
2018-10-18T20:04:52.125255Z,0.819092,-0.056274,-2.521912
2018-10-18T20:04:52.325255Z,-0.07196,1.147461,-0.408936
2018-10-18T20:04:52.527255Z,-1.7091669999999999,-0.891418,3.1902470000000003
2018-10-18T20:04:52.726255Z,-0.9351200000000001,-0.877258,-1.052856
2018-10-18T20:04:52.926255Z,-0.08099400000000001,0.35131799999999996,1.4146729999999998
2018-10-18T20:04:53.126255Z,0.709106,-0.670959,-1.513916
2018-10-18T20:04:53.326255Z,-0.152283,-0.31359899999999996,0.486755
2018-10-18T20:04:53.526255Z,-1.4312129999999998,0.8974610000000001,-0.059142999999999994
2018-10-18T20:04:53.727255Z,-1.109253,-1.544373,-0.169434
2018-10-18T20:04:53.926255Z,-0.23388699999999998,0.602661,-0.17114300000000002
2018-10-18T20:04:54.126255Z,3.158386,-2.216064,0.892517
2018-10-18T20:04:54.326255Z,-1.923157,-1.224609,-0.810425
2018-10-18T20:04:54.525255Z,-0.482971,0.444763,-0.08099400000000001
2018-10-18T20:04:54.726255Z,-0.780701,-2.461792,2.206909
2018-10-18T20:04:54.925255Z,0.8434450000000001,-2.1923220000000003,0.142578
2018-10-18T20:04:55.126255Z,-0.562866,-1.084778,-0.9473879999999999
2018-10-18T20:04:55.326255Z,-0.975891,-0.170471,0.407288
2018-10-18T20:04:55.526255Z,-0.705933,0.41095,-0.4021
2018-10-18T20:04:55.726255Z,-0.132141,-0.548401,-0.798096
2018-10-18T20:04:55.928255Z,0.11346400000000001,-2.091064,0.253723
2018-10-18T20:04:56.126255Z,0.282837,-1.0902100000000001,-0.384521
2018-10-18T20:04:56.326255Z,-0.088806,-0.098328,-0.062439
2018-10-18T20:04:56.526255Z,0.243896,-0.225037,0.12616
2018-10-18T20:04:56.926255Z,-0.264587,-0.398621,-0.139954
2018-10-18T20:04:57.127255Z,-0.148621,-0.112732,-0.117065
2018-10-18T20:04:57.326255Z,-0.274231,-0.139587,-0.368591
2018-10-18T20:04:57.536255Z,-0.154114,0.06329299999999999,-0.145874
2018-10-18T20:04:57.732255Z,-0.654297,0.20483400000000002,0.265137
2018-10-18T20:04:58.129255Z,0.8856200000000001,-0.493774,0.875244
2018-10-18T20:04:58.326255Z,0.415649,0.755249,-0.706055
2018-10-18T20:04:58.525255Z,0.06591799999999999,1.563293,-0.52887
2018-10-18T20:04:58.725255Z,-0.142273,1.3041989999999999,0.9656370000000001
2018-10-18T20:04:58.927255Z,-0.822205,-2.6830439999999998,-0.13403299999999999
2018-10-18T20:04:59.125255Z,-0.778992,-0.9818120000000001,-0.738647
2018-10-18T20:04:59.342255Z,-0.028625,0.418579,0.24041700000000002
2018-10-18T20:04:59.533255Z,-0.338074,-1.938965,3.922668
2018-10-18T20:04:59.732255Z,0.766174,-2.1567990000000004,-0.604004
2018-10-18T20:04:59.926255Z,0.578857,-1.289734,0.234619
2018-10-18T20:05:00.148255Z,0.477112,-0.455505,-1.222168
2018-10-18T20:05:00.327255Z,-0.325378,-0.322449,-0.544495
2018-10-18T20:05:00.526255Z,0.10375999999999999,0.025085,-0.067078
2018-10-18T20:05:00.726255Z,0.214905,0.641785,-0.45013400000000003
2018-10-18T20:05:00.931255Z,0.451477,0.898071,-0.235352
2018-10-18T20:05:01.135255Z,-0.45446800000000004,1.167664,-0.321777
2018-10-18T20:05:01.325255Z,-1.163269,-1.975159,0.627075
2018-10-18T20:05:01.525255Z,-0.591248,-0.842773,-1.088013
2018-10-18T20:05:01.726255Z,-1.1740110000000001,0.329773,-0.033081
2018-10-18T20:05:01.926255Z,0.155579,-0.027222000000000003,0.719727
2018-10-18T20:05:02.131255Z,0.127136,-2.180847,1.2903440000000002
2018-10-18T20:05:02.332255Z,-0.240662,-0.8330690000000001,1.160706
2018-10-18T20:05:02.529255Z,-0.170349,-0.472656,-0.606689
2018-10-18T20:05:02.728255Z,-0.803467,-1.312439,-0.5294800000000001
2018-10-18T20:05:02.942255Z,-1.2879639999999999,-0.8894040000000001,-0.613159
2018-10-18T20:05:03.126255Z,-0.13763399999999998,-1.320435,0.523438
2018-10-18T20:05:03.326255Z,-0.43652299999999994,-1.462524,0.13403299999999999
2018-10-18T20:05:03.526255Z,-0.322754,-0.486572,-0.347107
2018-10-18T20:05:03.726255Z,-0.391113,-0.13739,-0.329712
2018-10-18T20:05:03.926255Z,-0.009705,-0.49346899999999994,0.062377999999999996
2018-10-18T20:05:04.126255Z,-0.467163,-0.431641,-0.312195
2018-10-18T20:05:04.326255Z,-0.030333999999999996,-0.43273900000000004,-0.290283
2018-10-18T20:05:04.725255Z,-0.544189,-0.759155,-0.044495
2018-10-18T20:05:04.925255Z,-0.38513200000000003,-0.289978,-0.465088
2018-10-18T20:05:05.131255Z,-0.14965799999999999,-0.658752,0.30090300000000003
2018-10-18T20:05:05.333255Z,-0.139404,-0.418396,-0.32061799999999996
2018-10-18T20:05:05.533255Z,-0.320374,0.155823,0.016296
2018-10-18T20:05:05.725255Z,-0.16394,-0.085266,-0.066467
2018-10-18T20:05:05.925255Z,0.029785000000000002,0.088318,-0.691956
2018-10-18T20:05:06.126255Z,-0.479858,0.260681,0.35736100000000004
2018-10-18T20:05:06.326255Z,-0.9141239999999999,1.211792,-0.184021
2018-10-18T20:05:06.526255Z,-0.22888200000000003,0.942932,-0.7382810000000001
2018-10-18T20:05:06.727255Z,0.8920290000000001,0.53595,1.146484
2018-10-18T20:05:06.926255Z,0.8924559999999999,-1.362061,1.568115
2018-10-18T20:05:07.126255Z,0.774292,-0.339111,0.06066900000000001
2018-10-18T20:05:07.326255Z,-0.5570069999999999,-0.014525999999999999,-1.198669
2018-10-18T20:05:07.529255Z,-0.9429930000000001,-1.402893,0.47735600000000006
2018-10-18T20:05:07.725255Z,0.470642,-0.822693,-0.021422999999999998
2018-10-18T20:05:07.926255Z,0.510864,-0.09021,0.062927
2018-10-18T20:05:08.126255Z,1.1363530000000002,-0.347107,0.476746
2018-10-18T20:05:08.326255Z,1.9161380000000001,-0.966675,2.818848
2018-10-18T20:05:08.525255Z,1.105896,0.632935,1.1243290000000001
2018-10-18T20:05:08.725255Z,-0.001099,1.246948,-0.279663
2018-10-18T20:05:08.926255Z,0.11334200000000001,-0.679932,0.070374
2018-10-18T20:05:09.125255Z,0.237427,0.8245239999999999,-0.24945100000000003
2018-10-18T20:05:09.325255Z,0.502808,1.372314,-0.560242
2018-10-18T20:05:09.531255Z,0.024658000000000003,0.07739299999999999,4.232422
2018-10-18T20:05:09.726255Z,1.312866,1.01825,-1.049072
2018-10-18T20:05:09.930255Z,1.187561,1.364563,0.10504200000000001
2018-10-18T20:05:10.126255Z,-0.22033699999999998,0.409302,4.7099
2018-10-18T20:05:10.326255Z,0.347961,0.580383,0.031372000000000004
2018-10-18T20:05:10.527255Z,-0.53833,1.626282,-0.427979
2018-10-18T20:05:10.726255Z,-0.472656,1.899902,0.651001
2018-10-18T20:05:10.927255Z,-0.7323609999999999,0.786987,-1.572754
2018-10-18T20:05:11.126255Z,-0.042786000000000005,1.188843,-1.623291
2018-10-18T20:05:11.327255Z,-0.8492430000000001,2.165649,-0.441833
2018-10-18T20:05:11.532255Z,-0.657776,0.376343,-0.5742189999999999
2018-10-18T20:05:11.778255Z,-0.048157,-0.9025270000000001,3.030518
2018-10-18T20:05:11.925255Z,-0.14856,0.7387699999999999,-1.397461
2018-10-18T20:05:12.125255Z,-0.075317,0.882141,-0.106445
2018-10-18T20:05:12.326255Z,0.46398900000000004,0.208679,-1.605042
2018-10-18T20:05:12.525255Z,0.22405999999999998,1.1091309999999999,-0.540466
2018-10-18T20:05:12.725255Z,0.484314,1.168457,-0.432068
2018-10-18T20:05:12.925255Z,0.101257,-0.279663,1.8396
2018-10-18T20:05:13.127255Z,-0.5658569999999999,0.336548,-1.065491
2018-10-18T20:05:13.326255Z,-0.055237,0.983032,-1.2005
2018-10-18T20:05:13.526255Z,0.412231,0.871704,-0.667053
2018-10-18T20:05:13.726255Z,0.066589,-0.44256599999999996,1.228271
2018-10-18T20:05:13.926255Z,-0.559753,1.244141,0.436646
2018-10-18T20:05:14.126255Z,-1.210205,1.493958,-0.878296
2018-10-18T20:05:14.742255Z,-1.741638,-0.745117,-0.037476
2018-10-18T20:05:14.748255Z,-0.558655,0.152649,-0.43676800000000005
2018-10-18T20:05:14.755255Z,-0.437012,0.8765870000000001,0.46551499999999996
2018-10-18T20:05:14.925255Z,0.748291,-0.7087399999999999,-1.8106689999999999
2018-10-18T20:05:15.127255Z,-0.558533,0.726074,-1.625305
2018-10-18T20:05:15.325255Z,-0.032104,0.083984,-0.357056
2018-10-18T20:05:15.525255Z,-1.278625,-0.788269,0.013
2018-10-18T20:05:15.725255Z,-0.724304,0.7619020000000001,-1.0629879999999998
2018-10-18T20:05:15.925255Z,-0.6838989999999999,0.643494,-0.42645299999999997
2018-10-18T20:05:16.125255Z,1.370239,-0.572693,0.877808
2018-10-18T20:05:16.325255Z,0.628113,-0.001953,-2.3120119999999997
2018-10-18T20:05:16.527255Z,-1.111267,0.386536,2.107605
2018-10-18T20:05:16.726255Z,-0.69043,-1.9918209999999998,-0.747375
2018-10-18T20:05:16.926255Z,-1.421753,-0.21209699999999998,-1.3974
2018-10-18T20:05:17.126255Z,-0.343445,-1.026184,1.3215940000000002
2018-10-18T20:05:17.327255Z,-0.9137569999999999,-0.866821,1.111328
2018-10-18T20:05:17.528255Z,0.721863,-0.622925,-0.14294400000000002
2018-10-18T20:05:17.926255Z,-0.522217,1.178467,-1.450256
2018-10-18T20:05:18.126255Z,-1.507935,0.489868,-2.0927119999999997
2018-10-18T20:05:18.325255Z,0.208191,0.123352,0.8878780000000001
2018-10-18T20:05:18.525255Z,-0.27301,-0.696655,-0.17913800000000002
2018-10-18T20:05:18.725255Z,-0.739563,0.059998,-0.464417
2018-10-18T20:05:18.926255Z,-0.22412100000000001,0.254456,-0.47753900000000005
2018-10-18T20:05:19.126255Z,-0.115356,0.042542,-0.072937
2018-10-18T20:05:19.325255Z,-0.43048100000000006,0.147034,-0.409302
2018-10-18T20:05:19.525255Z,-0.5224,-0.019531,-0.08905
2018-10-18T20:05:19.725255Z,-0.432129,-0.229187,0.36084
2018-10-18T20:05:19.933255Z,-0.165588,-0.094604,-0.041443
2018-10-18T20:05:20.137255Z,-0.38354499999999997,0.12091099999999999,-0.689209
2018-10-18T20:05:20.336255Z,0.028625,0.002441,-0.21649200000000002
2018-10-18T20:05:20.536255Z,-0.036804,0.21740700000000002,-0.263489
2018-10-18T20:05:20.740255Z,-0.749084,1.1435549999999999,-0.34198
2018-10-18T20:05:20.942255Z,-1.3179319999999999,1.407776,-0.748047
2018-10-18T20:05:21.136255Z,-1.088623,1.061523,0.550171
2018-10-18T20:05:21.336255Z,2.2197270000000002,-1.328308,-0.435608
2018-10-18T20:05:21.536255Z,1.356323,-0.685303,-2.150879
2018-10-18T20:05:21.735255Z,-1.48468,2.726074,2.130554
2018-10-18T20:05:21.935255Z,0.093079,-2.9019779999999997,2.531616
2018-10-18T20:05:22.136255Z,0.43328900000000004,-1.180115,-0.702637
2018-10-18T20:05:22.337255Z,-0.18823199999999998,-0.891785,-0.11566199999999999
2018-10-18T20:05:22.587255Z,-0.181519,0.292603,0.580383
2018-10-18T20:05:22.741255Z,0.745239,-1.214844,-0.585266
2018-10-18T20:05:22.936255Z,-0.627502,-0.0271,-0.612793
2018-10-18T20:05:23.136255Z,-0.642029,-0.10931400000000001,0.144897
2018-10-18T20:05:23.336255Z,-0.208313,-1.0629879999999998,-0.10437
2018-10-18T20:05:23.536255Z,-0.035767,-1.589172,0.005554
2018-10-18T20:05:23.736255Z,0.148865,-1.062134,0.135864
2018-10-18T20:05:23.936255Z,0.801392,-0.850708,-1.8119509999999999
2018-10-18T20:05:24.137255Z,1.158508,-1.4204709999999998,7.188416
2018-10-18T20:05:24.336255Z,0.374207,1.110291,-1.2521360000000001
2018-10-18T20:05:24.536255Z,0.336914,-0.972168,0.897705
2018-10-18T20:05:24.738255Z,-0.997742,-1.203186,-0.08843999999999999
2018-10-18T20:05:24.938255Z,0.546692,-1.332825,0.43408199999999997
2018-10-18T20:05:25.152255Z,0.40307600000000005,-0.231567,0.291748
2018-10-18T20:05:25.338255Z,1.494934,0.109741,-2.583313
2018-10-18T20:05:25.539255Z,2.527832,-0.490051,-0.922485
2018-10-18T20:05:25.739255Z,2.966064,0.135803,0.9537959999999999
2018-10-18T20:05:25.936255Z,1.284607,0.47821,-0.586914
2018-10-18T20:05:26.135255Z,-0.274048,1.459778,-0.323425
2018-10-18T20:05:26.335255Z,-2.436401,-0.39868200000000004,0.614197
2018-10-18T20:05:26.536255Z,-2.924011,2.356934,-2.3713990000000003
2018-10-18T20:05:26.737255Z,-1.8194580000000002,3.2970580000000003,-0.168945
2018-10-18T20:05:26.938255Z,0.435242,1.1441649999999999,-3.235779
2018-10-18T20:05:27.136255Z,-1.0247190000000002,1.265564,-3.044434
2018-10-18T20:05:27.367255Z,-1.460815,2.0911869999999997,1.624268
2018-10-18T20:05:27.824255Z,-1.565125,0.23278800000000002,-1.482117
2018-10-18T20:05:27.971255Z,-1.289978,0.7913819999999999,-1.7831419999999998
2018-10-18T20:05:27.978255Z,-2.048279,2.23645,0.335449
2018-10-18T20:05:28.137255Z,-0.513123,0.031372000000000004,1.8795169999999999
2018-10-18T20:05:28.337255Z,-0.41125500000000004,1.08667,-2.239319
2018-10-18T20:05:28.538255Z,-0.808289,2.1224369999999997,-1.130737
2018-10-18T20:05:28.735255Z,-0.678711,1.6187129999999998,0.315552
2018-10-18T20:05:28.950255Z,-0.9244379999999999,-0.613708,0.285522
2018-10-18T20:05:29.146255Z,-1.196289,0.628418,-1.1746219999999998
2018-10-18T20:05:29.346255Z,-1.528381,1.309814,-0.317627
2018-10-18T20:05:29.545255Z,-0.9453739999999999,1.237732,-0.106628
2018-10-18T20:05:29.745255Z,0.189392,-0.391968,-2.1146849999999997
2018-10-18T20:05:29.947255Z,-1.4694209999999999,0.098755,-1.101501
2018-10-18T20:05:30.146255Z,-0.8314819999999999,1.910095,0.01355
2018-10-18T20:05:30.346255Z,-1.141968,-1.16156,1.348267
2018-10-18T20:05:30.546255Z,-1.490784,0.282898,-0.42059300000000005
2018-10-18T20:05:30.746255Z,-1.091309,0.577209,-0.5422359999999999
2018-10-18T20:05:30.947255Z,-0.767456,1.5774540000000001,-1.433716
2018-10-18T20:05:31.147255Z,-0.9077149999999999,0.319641,1.070068
2018-10-18T20:05:31.346255Z,-0.5039060000000001,0.21923800000000002,-0.9272459999999999
2018-10-18T20:05:31.546255Z,-0.917542,1.442078,-1.237427
2018-10-18T20:05:31.946255Z,-0.650452,1.510071,-0.315002
2018-10-18T20:05:32.145255Z,0.062012,-0.6577149999999999,-2.398682
2018-10-18T20:05:32.345255Z,-1.078857,0.316772,-0.973816
2018-10-18T20:05:32.546255Z,-1.960632,-0.041138,0.42700200000000005
2018-10-18T20:05:32.746255Z,-0.639526,0.296143,-0.745178
2018-10-18T20:05:32.945255Z,-1.3276370000000002,1.432129,-1.243835
2018-10-18T20:05:33.146255Z,-0.642822,0.444763,-1.331299
2018-10-18T20:05:33.346255Z,-1.354492,0.727966,-0.611877
2018-10-18T20:05:33.546255Z,-1.568542,1.185425,-0.152954
2018-10-18T20:05:33.746255Z,-0.576294,0.9116209999999999,0.475037
2018-10-18T20:05:33.946255Z,-0.938477,-1.294678,0.21698
2018-10-18T20:05:34.148255Z,-1.123047,0.022765999999999998,-0.248718
2018-10-18T20:05:34.418255Z,-1.072266,0.5683590000000001,-0.42303500000000005
2018-10-18T20:05:34.545255Z,-1.1397709999999999,0.243713,-0.354736
2018-10-18T20:05:34.747255Z,0.839111,-1.9600220000000002,1.929382
2018-10-18T20:05:34.964255Z,0.786987,-0.069031,0.71106
2018-10-18T20:05:35.162255Z,0.264832,0.979492,-1.088684
2018-10-18T20:05:35.345255Z,0.205017,0.58667,-1.4801030000000002
2018-10-18T20:05:35.545255Z,0.427734,1.528442,0.402588
2018-10-18T20:05:35.746255Z,-2.511963,-0.504822,1.609558
2018-10-18T20:05:35.945255Z,-0.420471,-1.259888,-0.674988
2018-10-18T20:05:36.145255Z,-0.234375,-0.45282,-1.0142209999999998
2018-10-18T20:05:36.346255Z,0.099915,0.673279,0.6343989999999999
2018-10-18T20:05:36.570255Z,0.474365,-0.102905,-1.8876950000000001
2018-10-18T20:05:36.746255Z,-0.25811799999999996,0.587952,-2.051453
2018-10-18T20:05:36.946255Z,-0.41552700000000004,1.3167719999999998,-0.807251
2018-10-18T20:05:37.146255Z,-0.235046,0.91571,0.266907
2018-10-18T20:05:37.350255Z,-1.246643,-0.575134,-1.549316
2018-10-18T20:05:37.547255Z,-0.003479,-1.199158,-0.876526
2018-10-18T20:05:37.746255Z,0.067139,0.480225,-1.308655
2018-10-18T20:05:37.946255Z,-0.17181400000000002,1.485962,-0.756287
2018-10-18T20:05:38.146255Z,0.330017,-1.390198,0.20697
2018-10-18T20:05:38.347255Z,-0.274414,-0.052551,-1.029358
2018-10-18T20:05:38.546255Z,0.304321,1.326294,-1.485107
2018-10-18T20:05:38.745255Z,-1.551392,0.261658,2.22937
2018-10-18T20:05:38.946255Z,-1.463867,-0.187622,-0.18798800000000002
2018-10-18T20:05:39.146255Z,0.321716,-1.098083,-1.045166
2018-10-18T20:05:39.346255Z,-0.21160900000000002,0.181885,-0.631165
2018-10-18T20:05:39.547255Z,-1.192383,0.432129,0.251221
2018-10-18T20:05:39.749255Z,-1.350159,0.391418,-0.404724
2018-10-18T20:05:39.945255Z,0.454895,0.20843499999999998,-1.882263
2018-10-18T20:05:40.146255Z,0.25824,0.791443,0.394287
2018-10-18T20:05:40.346255Z,0.737488,-2.506348,-0.577209
2018-10-18T20:05:40.546255Z,0.241089,-0.8776860000000001,-0.329407
2018-10-18T20:05:40.752255Z,-0.925293,0.815613,-0.109802
2018-10-18T20:05:40.948255Z,-0.660339,0.419495,0.11554
2018-10-18T20:05:41.149255Z,0.272644,-1.1972049999999999,-2.614258
2018-10-18T20:05:41.351255Z,-1.7879029999999998,-1.398254,-0.46813999999999995
2018-10-18T20:05:41.548255Z,-1.5314940000000001,-0.959534,1.385498
2018-10-18T20:05:41.747255Z,-2.834412,-2.650696,2.312561
2018-10-18T20:05:41.946255Z,-2.5894169999999996,-0.71344,1.335754
2018-10-18T20:05:42.145255Z,-1.658813,0.25945999999999997,-0.8005979999999999
2018-10-18T20:05:42.345255Z,0.267517,-1.1351930000000001,0.600342
2018-10-18T20:05:42.545255Z,-2.3314209999999997,0.510315,-0.49346899999999994
2018-10-18T20:05:42.745255Z,-1.456543,1.243103,0.016846
2018-10-18T20:05:42.946255Z,-2.536316,-1.469849,4.8746339999999995
2018-10-18T20:05:43.145255Z,-1.7208860000000001,1.0379639999999999,-1.621582
2018-10-18T20:05:43.345255Z,-1.811523,0.6682739999999999,0.280884
2018-10-18T20:05:43.546255Z,-1.108154,-1.363525,-0.018311
2018-10-18T20:05:43.746255Z,-1.325439,0.720642,-0.075989
2018-10-18T20:05:43.984255Z,-2.065918,1.151367,0.176453
2018-10-18T20:05:44.151255Z,-2.025757,0.782837,-0.339905
2018-10-18T20:05:44.346255Z,-1.7335209999999999,0.522034,-0.667175
2018-10-18T20:05:44.546255Z,-2.988037,1.285461,-1.6755369999999998
2018-10-18T20:05:44.749255Z,-2.29248,2.661377,-0.085449
2018-10-18T20:05:44.947255Z,-0.11096199999999999,0.37902800000000003,0.315735
2018-10-18T20:05:45.147255Z,-0.871216,0.398804,-0.470276
2018-10-18T20:05:45.346255Z,-0.470642,1.041931,-0.76239
2018-10-18T20:05:45.545255Z,-0.972534,1.305908,0.313721
2018-10-18T20:05:45.745255Z,-3.513,0.36248800000000003,1.086792
2018-10-18T20:05:45.946255Z,0.786011,-0.379944,1.831177
2018-10-18T20:05:46.146255Z,-0.927185,-0.325073,-0.590271
2018-10-18T20:05:46.345255Z,-4.516113,-1.662598,-1.988647
2018-10-18T20:05:46.545255Z,0.8284299999999999,4.929749,2.542786
2018-10-18T20:05:46.746255Z,-3.1607060000000002,-3.128906,-1.1222530000000002
2018-10-18T20:05:46.945255Z,5.602112,-0.914551,11.173461999999999
2018-10-18T20:05:47.148255Z,-2.131592,-2.8377689999999998,-1.868164
2018-10-18T20:05:47.346255Z,-4.96936,2.226624,1.672852
2018-10-18T20:05:47.546255Z,-0.392029,0.943298,0.09436
2018-10-18T20:05:47.946255Z,0.323547,0.408508,0.575317
2018-10-18T20:05:48.147255Z,-1.09906,1.80719,0.45184300000000005
2018-10-18T20:05:48.346255Z,0.17968800000000001,-0.190613,-0.6351319999999999
2018-10-18T20:05:48.546255Z,-2.384705,-0.196045,-0.7612300000000001
2018-10-18T20:05:48.746255Z,-1.094971,0.07525599999999999,-1.139465
2018-10-18T20:05:48.945255Z,0.86792,2.0269169999999996,0.371338
2018-10-18T20:05:49.145255Z,-1.931396,-1.269714,2.422791
2018-10-18T20:05:49.346255Z,-1.133606,-1.8877560000000002,-0.9600219999999999
2018-10-18T20:05:49.545255Z,1.5371700000000001,-4.143738,-2.439941
2018-10-18T20:05:49.745255Z,-0.696838,3.11499,4.363098
2018-10-18T20:05:50.091255Z,-0.5327149999999999,3.122009,1.517578
2018-10-18T20:05:50.548255Z,1.249268,-3.544739,-1.19696
2018-10-18T20:05:50.990255Z,-3.4725949999999997,1.5405879999999998,1.655945
2018-10-18T20:05:51.341255Z,-2.456299,0.878418,2.512573
2018-10-18T20:05:51.347255Z,-1.131592,-3.5507809999999997,-3.272522
2018-10-18T20:05:51.353255Z,-3.4528809999999996,2.43512,7.015808
2018-10-18T20:05:51.360255Z,2.054199,-3.182617,-4.87085
2018-10-18T20:05:51.366255Z,-3.323975,0.629089,1.9511720000000001
2018-10-18T20:05:51.548255Z,-1.8955689999999998,3.353271,1.354126
2018-10-18T20:05:51.746255Z,3.070496,-4.355773999999999,-3.106262
2018-10-18T20:05:51.946255Z,0.041809,0.488403,0.915283
2018-10-18T20:05:52.147255Z,-0.764709,1.410034,-2.378784
2018-10-18T20:05:52.346255Z,-1.485474,-1.41394,0.052673000000000005
2018-10-18T20:05:52.545255Z,-1.590576,-1.343872,3.871399
2018-10-18T20:05:52.745255Z,0.46209700000000004,2.166931,-2.582703
2018-10-18T20:05:52.945255Z,1.090942,1.597351,-2.604187
2018-10-18T20:05:53.146255Z,2.856201,1.8469240000000002,3.164246
2018-10-18T20:05:53.346255Z,5.43866,-2.205078,-3.08783
2018-10-18T20:05:53.545255Z,-1.164368,-2.248535,-1.09552
2018-10-18T20:05:53.746255Z,1.389038,0.9223020000000001,3.580811
2018-10-18T20:05:53.946255Z,-2.531189,0.716675,-0.922974
2018-10-18T20:05:54.146255Z,-0.9889530000000001,1.852295,-0.6602779999999999
2018-10-18T20:05:54.346255Z,-0.829468,1.642334,0.082947
2018-10-18T20:05:54.546255Z,-1.509216,0.257446,0.171753
2018-10-18T20:05:54.746255Z,-0.69397,0.16162100000000001,0.470642
2018-10-18T20:05:54.947255Z,1.7593990000000002,-0.083191,-0.341003
2018-10-18T20:05:55.146255Z,-0.462585,1.1069950000000002,0.049255
2018-10-18T20:05:55.351255Z,-0.472778,1.100586,-1.436584
2018-10-18T20:05:55.546255Z,-0.185608,0.8158569999999999,-1.4041139999999999
2018-10-18T20:05:55.746255Z,1.7872919999999999,1.316101,-0.264771
2018-10-18T20:05:55.946255Z,1.6961060000000001,0.124329,-0.28442399999999995
2018-10-18T20:05:56.145255Z,-0.8750610000000001,2.272827,-1.003357
2018-10-18T20:05:56.345255Z,-0.9330440000000001,1.4364620000000001,-0.44824200000000003
2018-10-18T20:05:56.545255Z,-1.088135,0.23797600000000002,-0.632446
2018-10-18T20:05:56.746255Z,0.060974,1.7138060000000002,-0.8829959999999999
2018-10-18T20:05:56.946255Z,2.384277,0.269897,-1.213135
2018-10-18T20:05:57.145255Z,-2.220825,0.887634,-1.8755490000000001
2018-10-18T20:05:57.346255Z,-1.516235,0.626892,-0.9678959999999999
2018-10-18T20:05:57.546255Z,-0.966736,0.654297,2.53363
2018-10-18T20:05:57.746255Z,0.5744020000000001,0.082397,1.735168
2018-10-18T20:05:57.946255Z,0.04187,0.839233,1.202515
2018-10-18T20:05:58.146255Z,-1.511536,0.1474,-1.161926
2018-10-18T20:05:58.346255Z,-1.229065,0.547607,-0.737549
2018-10-18T20:05:58.585255Z,-0.391785,1.0239260000000001,1.083252
2018-10-18T20:05:58.749255Z,-0.194519,1.001587,-0.42211899999999997
2018-10-18T20:05:58.949255Z,0.193298,0.83905,-0.690979
2018-10-18T20:05:59.146255Z,-0.7734989999999999,2.629395,-1.671875
2018-10-18T20:05:59.345255Z,-0.157471,2.83313,-1.218933
2018-10-18T20:05:59.545255Z,2.212036,1.989868,-0.041076999999999995
2018-10-18T20:05:59.746255Z,-0.542358,-0.400024,-0.206909
2018-10-18T20:05:59.946255Z,-1.994934,1.7834470000000002,-1.33313
2018-10-18T20:06:00.145255Z,-0.812317,0.137024,3.094055
2018-10-18T20:06:00.345255Z,0.059937,0.365051,-2.944214
2018-10-18T20:06:00.546255Z,-0.677795,1.116394,-0.155212
2018-10-18T20:06:00.748255Z,-0.21331799999999998,0.614502,-1.0338129999999999
2018-10-18T20:06:00.946255Z,-0.247375,-0.10241700000000001,-1.196106
2018-10-18T20:06:01.147255Z,-0.714661,1.299561,-0.25647
2018-10-18T20:06:01.346255Z,0.264465,0.9978030000000001,-0.697754
2018-10-18T20:06:01.546255Z,1.311523,2.06665,-0.953491
2018-10-18T20:06:01.748255Z,-0.808411,1.422791,-0.162964
2018-10-18T20:06:01.946255Z,-0.056824,-0.008057,0.144836
2018-10-18T20:06:02.146255Z,0.15423599999999998,1.35614,-1.261169
2018-10-18T20:06:02.346255Z,0.27831999999999996,0.024963,2.0337520000000002
2018-10-18T20:06:02.586255Z,0.516357,0.5352779999999999,-1.273865
2018-10-18T20:06:02.749255Z,-1.243774,1.096191,0.901062
2018-10-18T20:06:02.945255Z,-0.7288819999999999,0.6072390000000001,-1.14386
2018-10-18T20:06:03.150255Z,0.077087,0.860718,-0.604614
2018-10-18T20:06:03.347255Z,1.054626,1.058167,-0.090515
2018-10-18T20:06:03.545255Z,0.295959,-0.283325,0.48553500000000005
2018-10-18T20:06:03.745255Z,-0.17260699999999998,1.6674189999999998,0.360779
2018-10-18T20:06:04.146255Z,-2.704285,0.5664060000000001,2.80304
2018-10-18T20:06:04.346255Z,-0.138123,0.16095,-2.2505490000000004
2018-10-18T20:06:04.597255Z,-0.209961,1.097107,-0.551147
2018-10-18T20:06:04.750255Z,0.7188720000000001,-0.269592,2.536194
2018-10-18T20:06:04.951255Z,0.281067,0.812012,-3.17334
2018-10-18T20:06:05.146255Z,-1.3099370000000001,1.522217,-0.6931149999999999
2018-10-18T20:06:05.346255Z,-1.9331669999999999,-0.203308,0.075684
2018-10-18T20:06:05.546255Z,-0.204529,0.275452,-1.32074
2018-10-18T20:06:06.849255Z,0.30835,0.614563,-1.500549
2018-10-18T20:06:06.855255Z,-1.2858889999999998,-0.171997,0.324402
2018-10-18T20:06:06.861255Z,-1.981628,0.24267600000000003,-0.20654299999999998
2018-10-18T20:06:06.867255Z,-3.023926,-1.260864,0.181824
2018-10-18T20:06:06.874255Z,-0.400818,0.141907,-0.326477
2018-10-18T20:06:06.880255Z,1.132629,-0.18743900000000002,0.32135
2018-10-18T20:06:06.971255Z,0.45526099999999997,-0.319946,-1.268982
2018-10-18T20:06:07.146255Z,-0.5524899999999999,-0.306763,0.743408
2018-10-18T20:06:07.345255Z,0.4021,-0.5115970000000001,0.84967
2018-10-18T20:06:07.546255Z,-0.837463,0.15918,0.579163
2018-10-18T20:06:07.746255Z,0.28381300000000004,0.401306,-1.054626
2018-10-18T20:06:07.950255Z,-1.222961,0.720703,-0.747437
2018-10-18T20:06:08.145255Z,-1.106384,1.4647219999999999,-0.27813699999999997
2018-10-18T20:06:08.355255Z,-0.86145,1.179443,-1.2817379999999998
2018-10-18T20:06:08.546255Z,-0.41656499999999996,0.789062,0.915466
2018-10-18T20:06:08.746255Z,1.400391,-0.146606,-1.471619
2018-10-18T20:06:08.946255Z,-0.688232,1.372925,-0.358704
2018-10-18T20:06:09.252255Z,-1.160828,1.0283200000000001,0.317932
2018-10-18T20:06:09.345255Z,-1.503113,-1.8101200000000002,-1.164185
2018-10-18T20:06:09.554255Z,-0.452942,0.01355,-1.832947
2018-10-18T20:06:09.745255Z,-0.906982,0.9005129999999999,0.45575
2018-10-18T20:06:09.946255Z,-0.207581,-0.756165,-1.222473
2018-10-18T20:06:10.146255Z,0.216187,0.24780300000000002,-1.597717
2018-10-18T20:06:10.440255Z,-1.91803,1.8848880000000001,3.7815550000000004
2018-10-18T20:06:10.547255Z,-2.770813,-1.598511,3.173279
2018-10-18T20:06:10.750255Z,-2.167297,-0.967834,-1.369934
2018-10-18T20:06:10.946255Z,-0.709167,0.399902,-0.316406
2018-10-18T20:06:11.146255Z,-0.780945,1.151245,0.843933
2018-10-18T20:06:11.346255Z,-2.006592,-1.0552979999999998,-0.735657
2018-10-18T20:06:11.547255Z,-0.687134,0.667419,-1.4301760000000001
2018-10-18T20:06:11.746255Z,-1.949036,0.582825,0.19104000000000002
2018-10-18T20:06:11.956255Z,-1.9910279999999998,-1.557434,-0.6542359999999999
2018-10-18T20:06:12.150255Z,-0.5406489999999999,0.105652,-1.7586060000000001
2018-10-18T20:06:12.351255Z,0.67981,-0.023621,-0.161011
2018-10-18T20:06:12.546255Z,-1.116272,-0.06897,-0.165222
2018-10-18T20:06:12.746255Z,0.134827,2.241699,-0.29541
2018-10-18T20:06:12.947255Z,-3.990417,1.730652,-1.121704
2018-10-18T20:06:13.145255Z,-1.490479,-3.231384,-0.341614
2018-10-18T20:06:13.345255Z,-2.04187,0.156799,0.22235100000000002
2018-10-18T20:06:13.545255Z,-0.526123,1.53241,-0.523987
2018-10-18T20:06:13.745255Z,-0.719299,-0.010803,-0.14721700000000001
2018-10-18T20:06:13.961255Z,-2.995056,-0.901184,-5.143066
2018-10-18T20:06:14.148255Z,-2.277222,0.60321,-0.549255
2018-10-18T20:06:14.345255Z,-1.732361,0.779053,-0.47558599999999995
2018-10-18T20:06:14.546255Z,-3.4303589999999997,-1.21875,1.7050169999999998
2018-10-18T20:06:14.746255Z,-2.080811,0.0448,-1.765625
2018-10-18T20:06:14.947255Z,-0.475525,1.7463380000000002,0.846008
2018-10-18T20:06:15.147255Z,-0.286987,-0.183411,-1.458008
2018-10-18T20:06:15.346255Z,-1.128235,1.3110959999999998,-1.9237669999999998
2018-10-18T20:06:15.547255Z,-2.0914919999999997,1.5559690000000002,-0.027466
2018-10-18T20:06:15.753255Z,-1.595276,-0.42456099999999997,-0.342957
2018-10-18T20:06:16.329255Z,1.7451169999999998,0.201904,0.063904
2018-10-18T20:06:16.527255Z,-1.6533200000000001,2.9266360000000002,-3.183655
2018-10-18T20:06:16.728255Z,-2.346436,2.4710080000000003,0.197937
2018-10-18T20:06:16.926255Z,-1.293518,-0.319763,-0.06604
2018-10-18T20:06:17.126255Z,-0.471008,1.542969,-1.743652
2018-10-18T20:06:17.330255Z,-1.632874,2.864807,-0.238525
2018-10-18T20:06:17.526255Z,-0.798401,-0.019287000000000002,1.723877
2018-10-18T20:06:17.727255Z,-0.06994600000000001,0.731689,-2.002441
2018-10-18T20:06:17.926255Z,-0.070801,2.590759,-1.094055
2018-10-18T20:06:18.125255Z,-0.114075,2.33197,-0.213196
2018-10-18T20:06:18.325255Z,-0.651367,-0.22821,-0.180115
2018-10-18T20:06:18.526255Z,-0.392517,0.741516,-1.122009
2018-10-18T20:06:18.788255Z,-0.805054,0.6796260000000001,-0.172302
2018-10-18T20:06:18.928255Z,-0.43084700000000004,0.037659,1.614075
2018-10-18T20:06:19.129255Z,-0.342468,0.338562,-1.307129
2018-10-18T20:06:19.329255Z,-0.194519,1.263367,-0.18060299999999999
2018-10-18T20:06:19.527255Z,-0.3703,1.252625,0.004028
2018-10-18T20:06:19.726255Z,-0.458801,0.260681,1.178223
2018-10-18T20:06:19.926255Z,-1.370911,-0.362732,-1.270386
2018-10-18T20:06:20.141255Z,-1.2213129999999999,0.9332889999999999,-0.9820559999999999
2018-10-18T20:06:20.329255Z,-1.130493,0.807068,-0.759155
2018-10-18T20:06:20.526255Z,0.12439000000000001,0.011292,-1.189819
2018-10-18T20:06:20.726255Z,-1.2017209999999998,0.976807,-1.5149540000000001
2018-10-18T20:06:20.928255Z,-0.288025,1.6831049999999999,0.468628
2018-10-18T20:06:21.126255Z,-1.024109,-0.198853,-0.930176
2018-10-18T20:06:21.326255Z,-2.517578,-1.427002,-0.035278
2018-10-18T20:06:21.526255Z,-0.998352,-0.8374020000000001,-0.769409
2018-10-18T20:06:21.740255Z,-0.334961,-0.06665,-0.443176
2018-10-18T20:06:21.926255Z,-1.046143,0.400024,-0.684814
2018-10-18T20:06:22.127255Z,-0.539246,0.455139,-0.255737
2018-10-18T20:06:22.326255Z,-0.389709,0.12060499999999999,-0.7792359999999999
2018-10-18T20:06:22.526255Z,-0.41845699999999997,0.181946,0.10418699999999999
2018-10-18T20:06:22.782255Z,-0.898682,0.664062,-0.283447
2018-10-18T20:06:22.926255Z,-0.810303,0.512817,0.084595
2018-10-18T20:06:23.128255Z,-0.36730999999999997,0.379761,-0.437866
2018-10-18T20:06:23.328255Z,-0.288635,0.285095,-0.687805
2018-10-18T20:06:23.526255Z,-0.410767,0.28772,-0.240112
2018-10-18T20:06:23.734255Z,-0.445618,0.114685,-0.12579300000000002
2018-10-18T20:06:23.925255Z,-0.754822,0.666504,-0.239319
2018-10-18T20:06:24.126255Z,-0.492249,0.960815,0.609009
2018-10-18T20:06:24.325255Z,0.128418,0.436584,-0.7380369999999999
2018-10-18T20:06:24.526255Z,0.256592,-1.110107,-1.343018
2018-10-18T20:06:24.732255Z,0.374084,-0.334534,-0.7096560000000001
2018-10-18T20:06:24.925255Z,0.5587770000000001,1.00769,-0.832886
2018-10-18T20:06:25.128255Z,-1.030029,1.362671,2.192993
2018-10-18T20:06:25.326255Z,-1.250305,-2.284302,-0.713501
2018-10-18T20:06:25.527255Z,-0.860535,-0.24078400000000003,-1.5783690000000001
2018-10-18T20:06:25.726255Z,-0.165527,1.146362,2.994629
2018-10-18T20:06:25.926255Z,-1.266968,-1.887085,0.21106
2018-10-18T20:06:26.126255Z,-1.315491,-0.000244,-0.955139
2018-10-18T20:06:26.328255Z,-1.519043,-1.883484,1.3310549999999999
2018-10-18T20:06:26.526255Z,-0.588196,-2.547546,0.38623
2018-10-18T20:06:26.726255Z,-1.0333860000000001,-1.377502,-0.729248
2018-10-18T20:06:26.930255Z,-1.2877809999999998,-0.408508,1.641663
2018-10-18T20:06:27.125255Z,-0.306152,-0.422913,-1.098511
2018-10-18T20:06:27.325255Z,-0.40075700000000003,0.454163,0.732788
2018-10-18T20:06:27.725255Z,-0.614258,0.472534,-0.012206999999999999
2018-10-18T20:06:27.925255Z,-2.619934,1.9716189999999998,-0.011902
2018-10-18T20:06:28.125255Z,-0.112061,0.8399049999999999,0.080322
2018-10-18T20:06:28.326255Z,0.11523399999999999,-2.016235,0.182739
2018-10-18T20:06:28.525255Z,-0.252136,-1.107849,1.198669
2018-10-18T20:06:28.739255Z,-0.660034,-0.591797,0.206177
2018-10-18T20:06:28.926255Z,-0.5588380000000001,-0.08782999999999999,0.352539
2018-10-18T20:06:29.126255Z,-0.8295899999999999,-0.237,0.309021
2018-10-18T20:06:29.331255Z,0.497375,0.5112300000000001,-0.706238
2018-10-18T20:06:29.527255Z,-0.878784,2.071167,0.038025
2018-10-18T20:06:29.726255Z,-0.52594,1.525513,-0.17865
2018-10-18T20:06:29.926255Z,-2.090576,-1.035339,-0.5237430000000001
2018-10-18T20:06:30.126255Z,-0.529053,-0.9272459999999999,-2.825012
2018-10-18T20:06:30.326255Z,0.097961,0.722229,1.804932
2018-10-18T20:06:30.527255Z,-0.9652709999999999,-0.41278100000000006,0.7071529999999999
2018-10-18T20:06:30.729255Z,-0.716248,0.560791,-1.212769
2018-10-18T20:06:30.928255Z,-0.552612,1.404907,-0.002625
2018-10-18T20:06:31.127255Z,-2.068359,-2.293457,0.6995239999999999
2018-10-18T20:06:31.325255Z,-1.4437870000000002,-1.039368,0.388306
2018-10-18T20:06:31.525255Z,-0.446899,-0.11950699999999999,-1.0996700000000001
2018-10-18T20:06:31.726255Z,-0.154114,0.25756799999999996,1.2841799999999999
2018-10-18T20:06:31.926255Z,0.973633,2.256653,-0.8486940000000001
2018-10-18T20:06:32.125255Z,-1.1937870000000002,1.385498,-0.233154
2018-10-18T20:06:32.327255Z,-1.215271,-1.587585,-0.408447
2018-10-18T20:06:32.526255Z,-0.079407,-1.1359860000000002,-1.76593
2018-10-18T20:06:32.726255Z,0.6423949999999999,-0.046997000000000004,2.62793
2018-10-18T20:06:32.926255Z,-0.288269,1.350708,-3.50769
2018-10-18T20:06:33.128255Z,0.44659399999999994,1.505981,2.587708
2018-10-18T20:06:33.326255Z,-3.181824,-2.118652,0.823242
2018-10-18T20:06:33.526255Z,-1.359009,-1.449707,0.390015
2018-10-18T20:06:33.728255Z,-1.196045,-0.9340209999999999,-0.022765999999999998
2018-10-18T20:06:33.926255Z,-1.46344,-0.276855,1.2886959999999998
2018-10-18T20:06:34.125255Z,0.811584,0.778809,-2.701538
2018-10-18T20:06:34.325255Z,0.123169,1.419861,-1.497681
2018-10-18T20:06:34.526255Z,0.263428,2.191528,-1.439697
2018-10-18T20:06:34.725255Z,-0.9950559999999999,-1.246887,1.855347
2018-10-18T20:06:34.926255Z,-2.175842,-1.43103,-0.361877
2018-10-18T20:06:35.131255Z,-2.389282,0.201721,0.938293
2018-10-18T20:06:35.325255Z,-1.410828,1.261719,-0.683716
2018-10-18T20:06:35.526255Z,-1.01532,1.671936,-0.313843
2018-10-18T20:06:35.726255Z,-0.710938,-0.9475709999999999,1.472717
2018-10-18T20:06:35.927255Z,0.28881799999999996,-0.33013899999999996,-3.5429690000000003
2018-10-18T20:06:36.128255Z,0.716309,2.3565669999999996,-0.385437
2018-10-18T20:06:36.326255Z,-1.4918209999999998,1.5268549999999999,0.385254
2018-10-18T20:06:36.528255Z,-1.9837650000000002,-1.951416,-1.3889770000000001
2018-10-18T20:06:36.730255Z,-0.669006,-0.8280639999999999,-1.514282
2018-10-18T20:06:36.930255Z,-0.937622,1.33606,-0.651672
2018-10-18T20:06:37.131255Z,0.151489,0.848083,-1.2632450000000002
2018-10-18T20:06:37.328255Z,-2.337341,-0.834656,-2.068542
2018-10-18T20:06:37.525255Z,-1.6717529999999998,0.5875239999999999,-1.910828
2018-10-18T20:06:37.725255Z,1.642883,0.657471,-0.11413599999999999
2018-10-18T20:06:37.925255Z,-2.18158,-0.259338,-1.4750370000000002
2018-10-18T20:06:38.125255Z,-2.649658,-1.4449459999999998,0.092712
2018-10-18T20:06:38.327255Z,-1.005676,-0.799194,0.403748
2018-10-18T20:06:38.525255Z,-1.097351,0.33361799999999997,-0.827942
2018-10-18T20:06:38.725255Z,-1.354248,0.43811000000000005,0.941895
2018-10-18T20:06:38.926255Z,-1.517944,0.171021,-0.155884
2018-10-18T20:06:39.126255Z,-0.869568,0.047668,0.039062
2018-10-18T20:06:39.337255Z,-0.76062,-0.066345,-0.510681
2018-10-18T20:06:39.527255Z,-0.596497,0.324829,-0.560547
2018-10-18T20:06:39.726255Z,-0.31054699999999996,0.413879,-0.606323
2018-10-18T20:06:39.926255Z,-0.287659,0.48095699999999997,-0.0035399999999999997
2018-10-18T20:06:40.126255Z,0.17334000000000002,0.174438,0.004089
2018-10-18T20:06:40.326255Z,-0.049316000000000006,-0.010559,0.07067899999999999
2018-10-18T20:06:40.726255Z,-2.054932,0.127136,0.403198
2018-10-18T20:06:40.926255Z,-1.8562619999999999,-0.31652800000000003,-0.30426
2018-10-18T20:06:41.133255Z,-0.88031,-0.149048,-0.250977
2018-10-18T20:06:41.327255Z,-0.8833620000000001,0.044556,-0.033142000000000005
2018-10-18T20:06:41.526255Z,-0.10528599999999999,0.4646,-0.911438
2018-10-18T20:06:41.725255Z,-0.032898000000000004,0.599548,-1.099426
2018-10-18T20:06:41.925255Z,0.184753,0.783752,0.167725
2018-10-18T20:06:42.126255Z,0.46991000000000005,-0.688232,0.319153
2018-10-18T20:06:42.325255Z,0.48321499999999995,-1.199524,1.658569
2018-10-18T20:06:42.526255Z,1.246216,0.742676,0.952209
2018-10-18T20:06:42.731255Z,0.312256,0.48187299999999994,0.37677
2018-10-18T20:06:42.930255Z,-1.9764400000000002,-1.106262,0.138428
2018-10-18T20:06:43.131255Z,-0.463135,-0.066467,-0.995667
2018-10-18T20:06:43.326255Z,0.151672,0.705994,0.201965
2018-10-18T20:06:43.526255Z,0.24041700000000002,-1.041565,0.287659
2018-10-18T20:06:43.728255Z,-0.368225,-1.307312,-0.44000200000000006
2018-10-18T20:06:43.926255Z,1.4159549999999999,-0.27368200000000004,-0.618286
2018-10-18T20:06:44.126255Z,1.2197879999999999,1.018799,0.531433
2018-10-18T20:06:44.326255Z,-0.274353,-0.056824,-1.124207
2018-10-18T20:06:44.526255Z,-0.626953,-0.739929,1.5396729999999998
2018-10-18T20:06:44.725255Z,-0.30426,-0.160645,-0.811768
2018-10-18T20:06:44.925255Z,0.085266,-0.05011,-0.5406489999999999
2018-10-18T20:06:45.126255Z,0.07006799999999999,0.11755399999999999,0.45629899999999995
2018-10-18T20:06:45.329255Z,0.7418819999999999,0.6755979999999999,0.160217
2018-10-18T20:06:45.526255Z,0.010315000000000001,0.591064,-0.768066
2018-10-18T20:06:45.727255Z,-0.123901,1.042664,-1.185303
2018-10-18T20:06:45.929255Z,0.338196,1.338501,-0.45556599999999997
2018-10-18T20:06:46.131255Z,1.690186,0.509216,0.12725799999999998
2018-10-18T20:06:46.326255Z,1.317383,-1.490784,0.770996
2018-10-18T20:06:46.526255Z,0.671814,0.325928,1.084961
2018-10-18T20:06:46.726255Z,-0.400269,-0.503967,0.9401860000000001
2018-10-18T20:06:46.926255Z,-0.627197,-1.537109,1.0164790000000001
2018-10-18T20:06:47.127255Z,0.29870599999999997,-0.803711,-0.384338
2018-10-18T20:06:47.371255Z,0.13208,-1.234741,2.7817990000000004
2018-10-18T20:06:47.537255Z,-0.0017699999999999999,0.047607,-0.947815
2018-10-18T20:06:47.725255Z,-0.239197,-0.014282,-0.176086
2018-10-18T20:06:47.925255Z,-1.4835209999999999,-0.996948,-3.1060790000000003
2018-10-18T20:06:48.125255Z,-0.462341,0.396729,-1.838257
2018-10-18T20:06:48.326255Z,-0.126831,0.614136,-0.539856
2018-10-18T20:06:48.525255Z,0.304199,-2.2684330000000004,1.809204
2018-10-18T20:06:48.726255Z,-0.464783,0.0037840000000000005,-0.36193800000000004
2018-10-18T20:06:48.927255Z,-1.4677120000000001,-1.441162,-1.2098389999999999
2018-10-18T20:06:49.125255Z,-0.913452,-1.727051,0.44677700000000004
2018-10-18T20:06:49.326255Z,-0.35968,-0.830627,-0.310242
2018-10-18T20:06:49.526255Z,-0.263,-0.112854,0.135681
2018-10-18T20:06:49.726255Z,0.37915,-1.841736,0.741455
2018-10-18T20:06:49.941255Z,-0.375854,-1.286743,0.332703
2018-10-18T20:06:50.127255Z,0.340088,-0.461609,-0.161133
2018-10-18T20:06:50.329255Z,-0.114075,-1.601746,1.6716919999999997
2018-10-18T20:06:50.526255Z,0.13250699999999999,-1.560242,0.154297
2018-10-18T20:06:50.725255Z,-0.602051,-0.32409699999999997,-0.138123
2018-10-18T20:06:50.926255Z,0.101562,0.303772,0.798462
2018-10-18T20:06:51.128255Z,0.9448850000000001,-1.032837,2.115601
2018-10-18T20:06:51.326255Z,0.293823,-0.540039,-2.5025630000000003
2018-10-18T20:06:51.526255Z,2.131348,0.42480500000000004,-0.25354
2018-10-18T20:06:51.726255Z,0.365967,1.242981,0.5218510000000001
2018-10-18T20:06:51.926255Z,0.5665279999999999,-2.106506,0.548828
2018-10-18T20:06:52.126255Z,-0.36236599999999997,-0.849915,-0.42688000000000004
2018-10-18T20:06:52.325255Z,-0.206604,0.633545,-0.667664
2018-10-18T20:06:52.526255Z,0.381775,0.326782,0.384827
2018-10-18T20:06:52.725255Z,0.974548,-0.739197,0.120728
2018-10-18T20:06:52.926255Z,0.436829,-0.36993400000000004,-0.48181199999999996
2018-10-18T20:06:53.127255Z,-0.064514,0.29394499999999996,0.5405270000000001
2018-10-18T20:06:53.326255Z,-0.720398,-0.405273,-0.546509
2018-10-18T20:06:53.527255Z,-0.07428,-1.371765,-1.398682
2018-10-18T20:06:53.926255Z,-0.399292,0.041443,0.998291
2018-10-18T20:06:54.126255Z,0.79364,-0.940369,0.797485
2018-10-18T20:06:54.326255Z,0.687439,-0.755981,0.374329
2018-10-18T20:06:54.526255Z,-0.13562000000000002,-0.443665,0.12200899999999999
2018-10-18T20:06:54.725255Z,-1.097046,-0.43676800000000005,-0.10803199999999999
2018-10-18T20:06:54.925255Z,-0.5112300000000001,-0.153748,-0.00946
2018-10-18T20:06:55.125255Z,-0.031494,-0.022156,-0.732056
2018-10-18T20:06:55.326255Z,0.321777,0.30004899999999995,-0.721558
2018-10-18T20:06:55.525255Z,0.071411,-0.088928,0.014709
2018-10-18T20:06:55.727255Z,-0.399109,0.53595,-0.031432999999999996
2018-10-18T20:06:55.935255Z,0.16162100000000001,0.651001,0.051208000000000004
2018-10-18T20:06:56.136255Z,0.24078400000000003,1.1362299999999999,-0.359192
2018-10-18T20:06:56.327255Z,-0.009155,-0.717102,0.7479859999999999
2018-10-18T20:06:56.526255Z,0.9353030000000001,-0.48748800000000003,-0.610535
2018-10-18T20:06:56.726255Z,0.251587,0.1026,-0.661621
2018-10-18T20:06:56.928255Z,2.288513,1.689209,0.874023
2018-10-18T20:06:57.127255Z,0.022461000000000002,0.718567,-1.567871
2018-10-18T20:06:57.328255Z,-2.3949580000000004,-0.785767,-2.288879
2018-10-18T20:06:57.527255Z,-1.1586299999999998,-0.272949,-0.912292
2018-10-18T20:06:57.726255Z,0.129578,0.184875,0.49926800000000005
2018-10-18T20:06:57.926255Z,-0.7191770000000001,-0.833191,1.330811
2018-10-18T20:06:58.125255Z,-0.440796,-0.42498800000000003,-0.455933
2018-10-18T20:06:58.325255Z,-0.577332,-0.41888400000000003,-0.12176500000000001
2018-10-18T20:06:58.526255Z,-2.956543,-1.331909,1.2730709999999998
2018-10-18T20:06:58.725255Z,-1.894714,-0.538513,0.9488530000000001
2018-10-18T20:06:58.926255Z,-0.7868649999999999,1.4696040000000001,0.037842
2018-10-18T20:06:59.125255Z,-1.552124,-0.279907,2.499146
2018-10-18T20:06:59.325255Z,-0.5218510000000001,-1.289124,0.35168499999999997
2018-10-18T20:06:59.525255Z,-0.228516,0.810974,0.49890100000000004
2018-10-18T20:06:59.726255Z,-1.431396,0.432983,0.112
2018-10-18T20:06:59.928255Z,-1.9448849999999998,-0.864685,1.193726
2018-10-18T20:07:00.148255Z,-0.637451,-0.204773,-0.324768
2018-10-18T20:07:00.327255Z,-0.43493699999999996,0.22210700000000003,-0.41467299999999996
2018-10-18T20:07:00.528255Z,-0.303833,-2.59729,-0.039368
2018-10-18T20:07:00.727255Z,-0.40863,-0.140259,3.9480589999999998
2018-10-18T20:07:00.927255Z,1.2680049999999998,0.125305,-3.844849
2018-10-18T20:07:01.128255Z,-5.191711,-1.6607669999999999,-2.740051
2018-10-18T20:07:01.326255Z,-4.5534669999999995,1.071777,1.027161
2018-10-18T20:07:01.527255Z,-1.790344,0.432251,0.039307
2018-10-18T20:07:01.726255Z,-2.528198,-0.286804,-2.272766
2018-10-18T20:07:01.928255Z,-3.075256,3.390625,-0.877441
2018-10-18T20:07:02.129255Z,0.540588,0.567566,-0.17938199999999999
2018-10-18T20:07:02.325255Z,0.9566040000000001,-1.242004,-2.908386
2018-10-18T20:07:02.526255Z,-1.3203120000000002,2.334351,4.381775
2018-10-18T20:07:02.725255Z,-0.706665,-2.414734,-3.656799
2018-10-18T20:07:02.926255Z,-4.640564,-1.4410399999999999,2.96814
2018-10-18T20:07:03.140255Z,-4.197571,0.46630900000000003,1.462646
2018-10-18T20:07:03.328255Z,-2.0123900000000003,0.611938,-1.379089
2018-10-18T20:07:03.529255Z,-1.208008,0.534424,-0.9035639999999999
2018-10-18T20:07:03.729255Z,-0.142395,0.9531860000000001,0.271851
2018-10-18T20:07:03.927255Z,0.5795899999999999,1.439392,-1.002686
2018-10-18T20:07:04.126255Z,-0.45184300000000005,1.118103,-0.172485
2018-10-18T20:07:04.326255Z,0.185974,1.121643,1.180908
2018-10-18T20:07:04.528255Z,-2.1849979999999998,-1.119446,-0.802002
2018-10-18T20:07:04.726255Z,-1.9625849999999998,-0.157166,-1.356934
2018-10-18T20:07:05.125255Z,-1.612671,0.835205,-0.75354
2018-10-18T20:07:05.325255Z,-0.8639530000000001,1.252625,0.901001
2018-10-18T20:07:05.525255Z,-0.128235,-1.612244,1.420776
2018-10-18T20:07:05.730255Z,-1.291992,-1.244873,-0.11413599999999999
