Datetime,accx,accy,accz
2018-10-23T20:57:54.644093Z,1.368835,2.3485720000000003,-0.500183
2018-10-23T20:57:54.845093Z,-0.26123,0.053833000000000006,-1.0040280000000001
2018-10-23T20:57:55.045093Z,-0.795715,0.6733399999999999,-0.379089
2018-10-23T20:57:55.244093Z,-0.6283569999999999,0.386108,-0.30938699999999997
2018-10-23T20:57:55.645093Z,0.45025600000000005,-0.000671,0.09979199999999999
2018-10-23T20:57:56.045093Z,1.572449,-1.384277,-1.199036
2018-10-23T20:57:56.246093Z,0.766907,0.287231,-2.0823970000000003
2018-10-23T20:57:56.444093Z,-0.196716,0.8726200000000001,1.052917
2018-10-23T20:57:56.645093Z,-1.978027,-1.458618,2.076782
2018-10-23T20:57:56.845093Z,-0.656067,-1.0377809999999998,-1.8103639999999999
2018-10-23T20:57:57.045093Z,-0.049011,0.803345,0.8667600000000001
2018-10-23T20:57:57.245093Z,-0.21405,-1.537354,1.799438
2018-10-23T20:57:57.444093Z,0.891968,-0.227661,-2.03241
2018-10-23T20:57:57.645093Z,-0.631897,0.8247680000000001,1.5072020000000002
2018-10-23T20:57:57.849093Z,-0.766663,-1.7950439999999999,0.10845899999999999
2018-10-23T20:57:58.049093Z,-0.826843,-0.9238280000000001,-0.24969499999999997
2018-10-23T20:57:58.244093Z,0.273499,0.07019,1.346741
2018-10-23T20:57:58.447093Z,0.638306,-1.406189,-1.808655
2018-10-23T20:57:58.645093Z,-0.12402300000000001,0.357788,-0.11218299999999999
2018-10-23T20:57:58.844093Z,-0.449036,0.6053470000000001,0.898071
2018-10-23T20:57:59.045093Z,0.192993,-1.6944580000000002,0.13610799999999998
2018-10-23T20:57:59.245093Z,-0.6990970000000001,-0.127441,-0.9664309999999999
2018-10-23T20:57:59.447093Z,0.8344729999999999,-0.31750500000000004,1.003052
2018-10-23T20:57:59.645093Z,0.665161,-1.225647,0.5352779999999999
2018-10-23T20:57:59.893093Z,-0.8897709999999999,0.321167,-0.926758
2018-10-23T20:58:00.053093Z,-0.38147,0.31799299999999997,1.5963129999999999
2018-10-23T20:58:00.247093Z,-0.7520140000000001,-1.675171,1.136047
2018-10-23T20:58:00.454093Z,-0.23968499999999998,-0.46521,0.803589
2018-10-23T20:58:00.646093Z,2.2940669999999996,-0.9274899999999999,0.80188
2018-10-23T20:58:00.847093Z,1.212891,-0.514282,-0.16986099999999998
2018-10-23T20:58:01.045093Z,0.697449,0.684998,0.05426
2018-10-23T20:58:01.244093Z,-0.054199000000000004,-0.50116,0.780212
2018-10-23T20:58:01.444093Z,0.35943600000000003,-2.57605,0.5238649999999999
2018-10-23T20:58:01.644093Z,0.623047,-1.622498,-0.45385699999999995
2018-10-23T20:58:01.844093Z,0.656616,-1.406433,-0.212646
2018-10-23T20:58:02.044093Z,0.73407,-0.612366,1.284851
2018-10-23T20:58:02.244093Z,0.106201,-0.947693,0.26416
2018-10-23T20:58:02.444093Z,0.197449,-0.45251499999999995,-0.094421
2018-10-23T20:58:02.645093Z,0.14935299999999999,-0.41888400000000003,-0.234192
2018-10-23T20:58:02.845093Z,-0.257812,-0.7768550000000001,0.577576
2018-10-23T20:58:03.045093Z,0.020508000000000002,-0.641602,0.198914
2018-10-23T20:58:03.245093Z,0.8688959999999999,-0.17871099999999998,-1.6386720000000001
2018-10-23T20:58:03.445093Z,-0.610962,-0.234436,0.198486
2018-10-23T20:58:03.649093Z,0.062073,-0.077271,1.2028809999999999
2018-10-23T20:58:03.845093Z,-0.360168,-0.360046,-0.364197
2018-10-23T20:58:04.045093Z,-0.46002200000000004,-0.198547,-0.160645
2018-10-23T20:58:04.245093Z,-0.88031,-0.31237800000000004,-0.153381
2018-10-23T20:58:04.445093Z,-3.5661620000000003,-0.130432,-0.694397
2018-10-23T20:58:04.644093Z,-2.770874,-0.716248,1.377075
2018-10-23T20:58:04.845093Z,-0.944153,-0.820801,0.87085
2018-10-23T20:58:05.044093Z,-0.667114,-1.296814,-0.5405270000000001
2018-10-23T20:58:05.244093Z,-0.535583,0.343079,-0.641602
2018-10-23T20:58:05.455093Z,-0.6015010000000001,1.1883540000000001,-1.406433
2018-10-23T20:58:05.644093Z,-1.645996,0.541809,1.803711
2018-10-23T20:58:05.848093Z,-2.383118,-0.561584,-0.649475
2018-10-23T20:58:06.046093Z,-1.338013,1.523743,-0.427368
2018-10-23T20:58:06.245093Z,-1.7355349999999998,-0.027405000000000002,2.359619
2018-10-23T20:58:06.445093Z,-1.18927,-1.216797,-0.485962
2018-10-23T20:58:06.645093Z,-1.764404,0.072021,0.783569
2018-10-23T20:58:06.845093Z,-0.804565,-0.420105,-1.39209
2018-10-23T20:58:07.046093Z,-1.240601,-0.250916,-0.321472
2018-10-23T20:58:07.245093Z,-3.368958,-0.7443850000000001,0.8773190000000001
2018-10-23T20:58:07.445093Z,-2.291809,-0.012938999999999999,-0.441956
2018-10-23T20:58:07.645093Z,-0.631775,0.762939,0.306213
2018-10-23T20:58:07.864093Z,-1.1098629999999998,0.215759,2.69751
2018-10-23T20:58:08.045093Z,-1.328491,0.259033,-0.274475
2018-10-23T20:58:08.244093Z,-1.149231,0.405396,-0.12396199999999999
2018-10-23T20:58:08.644093Z,-0.694336,0.11969,-0.260925
2018-10-23T20:58:08.844093Z,-0.13525399999999999,0.176086,-0.309814
2018-10-23T20:58:09.044093Z,-1.083069,0.21166999999999997,0.095276
2018-10-23T20:58:09.245093Z,-1.6408080000000003,0.8974610000000001,1.334167
2018-10-23T20:58:09.445093Z,-0.793091,0.807251,-0.146973
2018-10-23T20:58:09.645093Z,0.8709110000000001,-0.930542,-0.740417
2018-10-23T20:58:09.846093Z,0.522583,-1.053711,0.6251220000000001
2018-10-23T20:58:10.046093Z,0.74707,-0.319458,0.072388
2018-10-23T20:58:10.248093Z,-0.309753,-0.164001,-0.224854
2018-10-23T20:58:10.448093Z,1.054504,1.143738,-0.764954
2018-10-23T20:58:10.645093Z,-0.059509000000000006,1.3880620000000001,1.286194
2018-10-23T20:58:10.845093Z,-0.480774,-0.442749,-0.743591
2018-10-23T20:58:11.046093Z,-1.317017,-0.000732,-1.002808
2018-10-23T20:58:11.244093Z,-0.6929930000000001,0.811462,-1.069153
2018-10-23T20:58:11.444093Z,-0.541626,0.55304,-0.271912
2018-10-23T20:58:11.644093Z,0.5349119999999999,-0.910278,-0.164246
2018-10-23T20:58:11.871093Z,-0.48706099999999997,0.505005,-1.040649
2018-10-23T20:58:12.044093Z,0.919739,0.315735,-0.514893
2018-10-23T20:58:12.244093Z,0.895508,-1.7337650000000002,1.5996700000000001
2018-10-23T20:58:12.444093Z,0.200684,-2.1309810000000002,-0.49505600000000005
2018-10-23T20:58:12.645093Z,2.4946900000000003,-0.397827,0.531921
2018-10-23T20:58:12.846093Z,1.6516110000000002,0.8218989999999999,-1.349731
2018-10-23T20:58:13.046093Z,0.5020140000000001,2.1658939999999998,-0.645081
2018-10-23T20:58:13.246093Z,-0.811157,1.640625,-0.534302
2018-10-23T20:58:13.445093Z,-0.078735,0.5062260000000001,-0.792542
2018-10-23T20:58:13.644093Z,-0.788452,0.653015,-0.5818479999999999
2018-10-23T20:58:13.846093Z,-0.178223,0.883423,0.476624
2018-10-23T20:58:14.045093Z,0.665955,0.6522220000000001,-1.5896
2018-10-23T20:58:14.245093Z,-0.761841,1.982666,-1.5479129999999999
2018-10-23T20:58:14.445093Z,-0.26672399999999996,2.7528080000000004,0.164795
2018-10-23T20:58:14.644093Z,-0.9104,-0.003967,2.162903
2018-10-23T20:58:14.844093Z,0.237671,-0.7153930000000001,-2.058777
2018-10-23T20:58:15.045093Z,0.204163,1.999695,-0.489624
2018-10-23T20:58:15.259093Z,1.100708,0.57489,0.396851
2018-10-23T20:58:15.444093Z,-0.3255,0.716919,-2.009399
2018-10-23T20:58:15.644093Z,-0.084656,1.7584229999999998,-0.6195069999999999
2018-10-23T20:58:15.845093Z,-2.0171509999999997,0.553345,1.7425540000000002
2018-10-23T20:58:16.044093Z,-1.387451,0.575439,-1.4277950000000001
2018-10-23T20:58:16.244093Z,0.685669,1.477417,-0.9790040000000001
2018-10-23T20:58:16.445093Z,0.996033,0.488098,0.892151
2018-10-23T20:58:16.645093Z,-2.2666020000000002,1.548767,2.212341
2018-10-23T20:58:16.845093Z,-0.539246,1.3168950000000001,0.64978
2018-10-23T20:58:17.056093Z,-1.308716,-0.145752,-0.463379
2018-10-23T20:58:17.245093Z,0.010193,0.31506300000000004,-0.966125
2018-10-23T20:58:17.445093Z,-1.186035,0.572693,0.065125
2018-10-23T20:58:17.651093Z,-0.9893799999999999,-0.20764200000000002,-0.162109
2018-10-23T20:58:17.845093Z,-1.201416,0.8244020000000001,-0.364624
2018-10-23T20:58:18.045093Z,-0.891907,1.014893,0.394043
2018-10-23T20:58:18.245093Z,-1.972229,-0.106201,-1.556824
2018-10-23T20:58:18.444093Z,-0.838501,-0.028442000000000002,-1.885864
2018-10-23T20:58:18.644093Z,0.7931520000000001,0.606201,-0.11987300000000001
2018-10-23T20:58:18.844093Z,0.8202510000000001,-0.895142,-0.277466
2018-10-23T20:58:19.052093Z,-0.838623,0.255554,-1.5582280000000002
2018-10-23T20:58:19.248093Z,-1.407593,0.921509,0.076111
2018-10-23T20:58:19.445093Z,-2.684082,-1.1233520000000001,0.842407
2018-10-23T20:58:19.644093Z,-2.970093,-0.8438110000000001,-0.9084469999999999
2018-10-23T20:58:19.845093Z,-2.761536,0.139709,0.569763
2018-10-23T20:58:20.045093Z,-0.499634,0.20770300000000003,-0.660217
2018-10-23T20:58:20.246093Z,-0.814331,-0.288269,0.583923
2018-10-23T20:58:20.445093Z,-0.761108,0.511353,-1.5414430000000001
2018-10-23T20:58:20.649093Z,-0.883972,1.365479,-2.5082400000000002
2018-10-23T20:58:20.844093Z,-1.086853,0.49420200000000003,-0.613159
2018-10-23T20:58:21.045093Z,-2.018738,-1.1160889999999999,-0.015686000000000002
2018-10-23T20:58:21.245093Z,-0.49365200000000004,0.6801149999999999,-0.84259
2018-10-23T20:58:21.445093Z,1.3259889999999999,0.64032,0.046814
2018-10-23T20:58:21.644093Z,-1.333923,-0.747742,-0.5856319999999999
2018-10-23T20:58:21.845093Z,-1.586609,1.2680049999999998,-0.170227
2018-10-23T20:58:22.046093Z,-1.645935,-0.84491,1.7864380000000002
2018-10-23T20:58:22.302093Z,0.48181199999999996,-0.737183,1.4752809999999998
2018-10-23T20:58:22.445093Z,-0.704834,-1.060242,-0.534241
2018-10-23T20:58:22.658093Z,0.318176,-0.865967,0.08984400000000001
2018-10-23T20:58:22.845093Z,-0.532837,-0.708557,0.308228
2018-10-23T20:58:23.047093Z,-0.21417199999999997,-0.057129,1.469299
2018-10-23T20:58:23.251093Z,0.18634,0.005615,-0.19635
2018-10-23T20:58:23.645093Z,1.111877,0.6370239999999999,-0.155334
2018-10-23T20:58:23.844093Z,0.311096,-0.052673000000000005,0.344482
2018-10-23T20:58:24.045093Z,-1.221191,-0.319275,-1.193176
2018-10-23T20:58:24.246093Z,-0.961792,0.260986,-0.795471
2018-10-23T20:58:24.446093Z,0.716492,0.9400629999999999,1.183716
2018-10-23T20:58:24.645093Z,-0.948792,0.13311800000000001,-0.827209
2018-10-23T20:58:24.845093Z,-0.084717,0.07989500000000001,-1.6828
2018-10-23T20:58:25.044093Z,0.727478,1.149109,-0.948608
2018-10-23T20:58:25.244093Z,0.16217,-0.42218,0.451416
2018-10-23T20:58:25.468093Z,-1.9705810000000001,-0.96936,1.1072389999999999
2018-10-23T20:58:25.645093Z,-1.598755,-0.770203,-0.5122680000000001
2018-10-23T20:58:25.845093Z,-1.5177610000000001,0.370361,0.167114
2018-10-23T20:58:26.045093Z,-2.860474,0.030762,-0.26757800000000004
2018-10-23T20:58:26.244093Z,-2.442078,0.159302,0.26074200000000003
2018-10-23T20:58:26.444093Z,-0.5698850000000001,-0.13269,0.378601
2018-10-23T20:58:26.657093Z,0.49145500000000003,-1.451233,-0.507324
2018-10-23T20:58:26.844093Z,0.892639,-0.749817,1.069885
2018-10-23T20:58:27.045093Z,-0.554871,0.098022,-0.756897
2018-10-23T20:58:27.245093Z,-1.6602169999999998,-0.457397,0.394043
2018-10-23T20:58:27.445093Z,-1.968445,0.304504,0.8756709999999999
2018-10-23T20:58:27.645093Z,-1.0228270000000002,1.481018,-0.458557
2018-10-23T20:58:27.845093Z,0.126892,0.21728499999999998,0.5546260000000001
2018-10-23T20:58:28.045093Z,-0.998108,-0.06915299999999999,-1.044373
2018-10-23T20:58:28.246093Z,-1.301025,1.165222,0.36340300000000003
2018-10-23T20:58:28.445093Z,-0.88269,-0.429871,1.624634
2018-10-23T20:58:28.705093Z,-0.751892,-1.924316,-0.395874
2018-10-23T20:58:28.844093Z,-0.889343,-0.676025,-0.6271359999999999
2018-10-23T20:58:29.045093Z,-0.040955,-0.8901370000000001,-0.42480500000000004
2018-10-23T20:58:29.244093Z,-0.13763399999999998,-1.252686,2.427795
2018-10-23T20:58:29.444093Z,-0.045654,0.055603,0.34429899999999997
2018-10-23T20:58:29.645093Z,-1.061951,2.4039919999999997,2.896057
2018-10-23T20:58:29.845093Z,-0.654297,-0.93634,2.517212
2018-10-23T20:58:30.045093Z,-1.117981,-2.578369,-0.988708
2018-10-23T20:58:30.245093Z,-1.377991,-0.144836,-0.34173600000000004
2018-10-23T20:58:30.445093Z,-2.4508669999999997,1.656006,-0.095459
2018-10-23T20:58:30.646093Z,-0.066833,0.711731,1.0454709999999998
2018-10-23T20:58:30.847093Z,-0.306824,-0.7016600000000001,-0.256958
2018-10-23T20:58:31.048093Z,1.2386469999999998,-0.851562,-0.768677
2018-10-23T20:58:31.281093Z,2.299316,-0.55188,-1.583923
2018-10-23T20:58:31.453093Z,-0.042358,-0.406921,-0.16333
2018-10-23T20:58:31.646093Z,0.6232300000000001,-0.131714,-1.095093
2018-10-23T20:58:31.845093Z,1.117859,1.273376,0.38861100000000004
2018-10-23T20:58:32.045093Z,0.11633299999999999,1.342407,-0.107422
2018-10-23T20:58:32.245093Z,-1.182373,-0.23266599999999998,1.363708
2018-10-23T20:58:32.444093Z,-1.333435,-0.577332,-1.1896360000000001
2018-10-23T20:58:32.644093Z,-0.985107,0.5231319999999999,-1.314331
2018-10-23T20:58:32.844093Z,-0.178833,1.525635,-0.12878399999999998
2018-10-23T20:58:33.109093Z,-0.846008,0.15448,2.466919
2018-10-23T20:58:33.244093Z,0.9714969999999999,-0.414001,-2.39856
2018-10-23T20:58:33.445093Z,0.138977,1.5625,0.303467
2018-10-23T20:58:33.647093Z,-0.913208,-0.6908569999999999,1.626709
2018-10-23T20:58:33.845093Z,-0.493896,-0.21533200000000002,-1.0428469999999999
2018-10-23T20:58:34.245093Z,0.181641,0.301636,0.596741
2018-10-23T20:58:34.445093Z,0.5004270000000001,-0.677307,-0.480042
2018-10-23T20:58:34.645093Z,-0.480774,0.41278100000000006,-0.678711
2018-10-23T20:58:34.845093Z,-1.143066,0.375488,0.023499000000000003
2018-10-23T20:58:35.047093Z,0.34619099999999997,-0.275879,-0.967102
2018-10-23T20:58:35.248093Z,-0.524414,-0.046326,-1.6707150000000002
2018-10-23T20:58:35.444093Z,0.39550799999999997,1.476501,0.6583859999999999
2018-10-23T20:58:35.644093Z,0.423096,0.615173,0.08819600000000001
2018-10-23T20:58:35.844093Z,3.9752199999999998,-0.453308,0.606506
2018-10-23T20:58:36.044093Z,-0.975403,-0.705872,-1.9212650000000002
2018-10-23T20:58:36.244093Z,-0.105225,0.065491,-1.090149
2018-10-23T20:58:36.445093Z,-0.654602,-0.872925,2.257507
2018-10-23T20:58:36.644093Z,0.186462,-1.110718,0.575073
2018-10-23T20:58:36.844093Z,-0.643799,-0.894958,-0.079651
2018-10-23T20:58:37.073093Z,-0.7655029999999999,0.07104500000000001,-0.7951050000000001
2018-10-23T20:58:37.246093Z,-2.028137,0.744873,1.01825
2018-10-23T20:58:37.444093Z,-2.700989,0.20721399999999998,0.945435
2018-10-23T20:58:37.646093Z,-2.517456,-0.5515140000000001,-0.43396
2018-10-23T20:58:37.845093Z,-1.2521360000000001,-1.315857,-1.1664430000000001
2018-10-23T20:58:38.045093Z,1.122314,-1.876587,0.9678959999999999
2018-10-23T20:58:38.254093Z,2.6083369999999997,-0.613647,0.556335
2018-10-23T20:58:38.446093Z,1.6087040000000001,0.352539,-0.559753
2018-10-23T20:58:38.644093Z,-0.363464,0.866943,0.660095
2018-10-23T20:58:38.844093Z,-2.173645,-0.559753,0.656799
2018-10-23T20:58:39.044093Z,-1.586731,-0.0896,-0.99115
2018-10-23T20:58:39.247093Z,-1.688721,0.9638059999999999,-0.36377
2018-10-23T20:58:39.445093Z,-1.493103,-0.37512199999999996,1.017822
2018-10-23T20:58:39.644093Z,-0.707825,0.17218,-1.0084229999999998
2018-10-23T20:58:39.896093Z,-0.5451050000000001,0.531921,1.7857060000000002
2018-10-23T20:58:40.044093Z,-0.210144,-0.835144,-0.36554000000000003
2018-10-23T20:58:40.246093Z,-2.505249,-1.205994,0.476562
2018-10-23T20:58:40.445093Z,-2.8931270000000002,-0.05798300000000001,-0.48394799999999993
2018-10-23T20:58:40.646093Z,-2.90979,0.6206050000000001,0.09765599999999999
2018-10-23T20:58:40.845093Z,-2.110168,1.07605,0.43963599999999997
2018-10-23T20:58:41.045093Z,-2.067688,0.197266,0.31567399999999995
2018-10-23T20:58:41.245093Z,-0.815491,-0.616211,-0.563477
2018-10-23T20:58:41.496093Z,-0.545959,0.741638,-0.080322
2018-10-23T20:58:41.645093Z,0.051575,1.6914669999999998,-0.682739
2018-10-23T20:58:41.847093Z,-2.320129,0.4505,0.540039
2018-10-23T20:58:42.045093Z,-0.7417600000000001,1.080811,-2.201538
2018-10-23T20:58:42.245093Z,-1.095215,1.4339600000000001,0.502258
2018-10-23T20:58:42.444093Z,-0.640625,-0.606201,0.068176
2018-10-23T20:58:42.647093Z,-1.288818,0.738342,-1.6788330000000002
2018-10-23T20:58:42.930093Z,0.735107,0.425354,1.091736
2018-10-23T20:58:43.044093Z,0.477966,-0.23791500000000002,0.229675
2018-10-23T20:58:43.247093Z,0.016174,-0.684326,-1.2014770000000001
2018-10-23T20:58:43.444093Z,-0.079468,-0.062683,0.338379
2018-10-23T20:58:43.647093Z,0.028442000000000002,-1.76416,0.015686000000000002
2018-10-23T20:58:43.844093Z,-0.645081,-0.33075,-0.866821
2018-10-23T20:58:44.054093Z,-1.494141,1.250427,-0.299561
2018-10-23T20:58:44.245093Z,-1.071533,0.086853,0.809753
2018-10-23T20:58:44.446093Z,-2.009888,-0.160889,0.268433
2018-10-23T20:58:44.645093Z,-1.203186,0.598877,-1.2352290000000001
2018-10-23T20:58:44.845093Z,0.209473,1.0733030000000001,0.172241
2018-10-23T20:58:45.047093Z,-0.942932,-0.680176,2.32666
2018-10-23T20:58:45.245093Z,-0.664551,-0.198853,-1.332336
2018-10-23T20:58:45.445093Z,-0.228149,0.696045,-0.251526
2018-10-23T20:58:45.645093Z,-2.301819,-0.684509,1.7076419999999999
2018-10-23T20:58:46.044093Z,-1.022888,-1.4682620000000002,-0.6171260000000001
2018-10-23T20:58:46.245093Z,-0.933105,-0.780518,0.20764200000000002
2018-10-23T20:58:46.445093Z,-0.380981,-0.086243,0.249268
2018-10-23T20:58:46.659093Z,-1.380005,-0.160706,0.323669
2018-10-23T20:58:46.861093Z,-0.514221,0.559509,1.095459
2018-10-23T20:58:47.046093Z,-1.0578,0.405945,0.043274
2018-10-23T20:58:47.248093Z,-1.273987,0.120972,-0.46166999999999997
2018-10-23T20:58:47.445093Z,-0.797668,0.169922,0.017883
2018-10-23T20:58:47.646093Z,-1.798401,0.23999,-0.08038300000000001
2018-10-23T20:58:47.845093Z,-1.9356080000000002,0.34368899999999997,0.23968499999999998
2018-10-23T20:58:48.045093Z,-0.62793,0.41156000000000004,0.189392
2018-10-23T20:58:48.245093Z,-0.554504,-0.631958,0.795593
2018-10-23T20:58:48.445093Z,0.898315,-0.497192,-0.582092
2018-10-23T20:58:48.645093Z,1.23114,0.313721,-1.276123
2018-10-23T20:58:48.850093Z,0.215698,0.836975,0.9697879999999999
2018-10-23T20:58:49.045093Z,0.362183,-1.413879,0.536621
2018-10-23T20:58:49.244093Z,0.676392,-1.1239620000000001,0.094421
2018-10-23T20:58:49.444093Z,-0.0849,0.447571,-0.24212600000000004
2018-10-23T20:58:49.646093Z,0.083618,-1.409058,1.961243
2018-10-23T20:58:49.850093Z,1.212891,-0.10607899999999999,-0.5702510000000001
2018-10-23T20:58:50.044093Z,-0.073303,1.056152,1.1702270000000001
2018-10-23T20:58:50.244093Z,-0.609863,-0.600708,1.653564
2018-10-23T20:58:50.445093Z,0.603699,-0.090271,-1.333435
2018-10-23T20:58:50.644093Z,0.048767000000000005,0.352539,1.3082280000000002
2018-10-23T20:58:50.845093Z,0.526245,0.09729,0.073425
2018-10-23T20:58:51.133093Z,1.9989009999999998,1.041687,1.599304
2018-10-23T20:58:51.246093Z,1.9729,0.40918000000000004,-0.590881
2018-10-23T20:58:51.446093Z,1.765259,-1.399414,1.81427
2018-10-23T20:58:51.645093Z,0.28137199999999996,0.338623,-0.657104
2018-10-23T20:58:51.845093Z,-1.230286,2.003357,-0.186951
2018-10-23T20:58:52.045093Z,-1.115479,0.8487549999999999,0.580505
2018-10-23T20:58:52.245093Z,0.16650399999999999,1.391541,-2.193359
2018-10-23T20:58:52.445093Z,0.285522,2.2926029999999997,-1.162048
2018-10-23T20:58:52.644093Z,-0.032349,2.6917720000000003,-0.302185
2018-10-23T20:58:52.844093Z,-1.371704,0.8794559999999999,2.210632
2018-10-23T20:58:53.044093Z,-1.022888,-0.045044,-0.263367
2018-10-23T20:58:53.244093Z,-0.7089840000000001,1.12616,-0.349731
2018-10-23T20:58:53.444093Z,0.45214799999999994,1.370422,-1.8920290000000002
2018-10-23T20:58:53.644093Z,-0.751587,0.410522,1.682739
2018-10-23T20:58:53.844093Z,-0.942932,0.6484989999999999,-1.384766
2018-10-23T20:58:54.093093Z,1.152832,1.510681,1.327209
2018-10-23T20:58:54.246093Z,1.783752,1.7427979999999998,-0.810303
2018-10-23T20:58:54.446093Z,0.406067,1.7988279999999999,-0.082092
2018-10-23T20:58:54.650093Z,-0.804932,-0.035033999999999996,1.048828
2018-10-23T20:58:54.845093Z,-0.781311,-0.313232,-0.752075
2018-10-23T20:58:55.045093Z,-1.787598,1.512512,-0.610718
2018-10-23T20:58:55.245093Z,0.7070310000000001,0.586609,-0.030579000000000002
2018-10-23T20:58:55.445093Z,-0.792114,-0.47772200000000004,-0.142029
2018-10-23T20:58:55.646093Z,-1.120239,1.5616459999999999,-0.971375
2018-10-23T20:58:55.905093Z,-1.590698,1.509644,1.394958
2018-10-23T20:58:56.049093Z,-1.1140139999999998,-0.755127,0.183228
2018-10-23T20:58:56.249093Z,-0.814941,0.582581,-0.323914
2018-10-23T20:58:56.444093Z,-0.169312,0.759827,-0.172241
2018-10-23T20:58:56.644093Z,0.13324,0.036438,-1.228699
2018-10-23T20:58:56.844093Z,-0.867554,0.731934,-0.545227
2018-10-23T20:58:57.044093Z,-1.221863,1.3660889999999999,0.277588
2018-10-23T20:58:57.244093Z,-2.0128779999999997,-1.159973,0.368774
2018-10-23T20:58:57.444093Z,-0.579956,0.24987800000000002,-0.9230959999999999
2018-10-23T20:58:57.645093Z,-0.437561,0.6370239999999999,0.50592
2018-10-23T20:58:57.845093Z,-0.355652,-0.7202149999999999,-0.117065
2018-10-23T20:58:58.064093Z,0.8776860000000001,0.263733,-0.825073
2018-10-23T20:58:58.245093Z,-0.636536,1.553894,-0.314026
2018-10-23T20:58:58.458093Z,-2.441589,-0.726318,1.4780879999999998
2018-10-23T20:58:58.647093Z,-1.28009,-0.24536100000000002,-0.76355
2018-10-23T20:58:58.844093Z,-0.656555,1.209778,0.061401
2018-10-23T20:58:59.045093Z,-1.154358,-0.337036,1.6842650000000001
2018-10-23T20:58:59.245093Z,-0.300598,0.11114500000000001,-2.0005490000000004
2018-10-23T20:58:59.466093Z,0.45282,0.931458,1.2620850000000001
2018-10-23T20:58:59.844093Z,0.08770800000000001,0.142151,-0.105347
2018-10-23T20:59:00.044093Z,0.31262199999999996,-2.0985110000000002,0.72467
2018-10-23T20:59:00.244093Z,1.479004,-2.245605,-1.593201
2018-10-23T20:59:00.444093Z,0.082947,-1.175659,0.151123
2018-10-23T20:59:00.644093Z,-1.548828,-0.36340300000000003,-0.21234099999999997
2018-10-23T20:59:00.844093Z,-0.366699,0.8867799999999999,0.08252000000000001
2018-10-23T20:59:01.047093Z,-0.375183,0.6130979999999999,1.056274
2018-10-23T20:59:01.244093Z,-0.664246,-0.793457,-0.35638400000000003
2018-10-23T20:59:01.453093Z,-0.24285900000000002,0.397095,-0.340271
2018-10-23T20:59:01.647093Z,0.277405,0.9568479999999999,-0.72406
2018-10-23T20:59:01.846093Z,1.3510739999999999,-0.457642,1.8760990000000002
2018-10-23T20:59:02.045093Z,0.9371950000000001,-0.00885,-0.9281010000000001
2018-10-23T20:59:02.245093Z,1.577576,1.145508,-0.5993649999999999
2018-10-23T20:59:02.445093Z,0.987366,0.65271,-0.845459
2018-10-23T20:59:02.645093Z,-1.058044,-0.5645140000000001,-2.167786
2018-10-23T20:59:02.844093Z,-0.977234,0.925415,-1.5534059999999998
2018-10-23T20:59:03.044093Z,-0.520203,1.878723,-0.597046
2018-10-23T20:59:03.244093Z,-1.100098,-0.803772,1.853027
2018-10-23T20:59:03.453093Z,0.847656,0.102905,-0.792786
2018-10-23T20:59:03.644093Z,0.31445300000000004,0.885742,-1.116638
2018-10-23T20:59:03.844093Z,0.039917,1.027649,-1.026245
2018-10-23T20:59:04.044093Z,-0.77478,-0.129761,-1.204407
2018-10-23T20:59:04.245093Z,-0.295227,0.68158,-0.948975
2018-10-23T20:59:04.444093Z,0.575317,-0.079468,1.391968
2018-10-23T20:59:04.644093Z,-0.45648199999999994,0.480835,-2.1922610000000002
2018-10-23T20:59:04.845093Z,0.6793819999999999,2.111389,1.959229
2018-10-23T20:59:05.045093Z,-0.27301,-1.3491819999999999,-0.30249000000000004
2018-10-23T20:59:05.245093Z,-0.766174,-0.44732700000000003,-1.023743
2018-10-23T20:59:05.445093Z,-1.7405400000000002,0.638306,0.39679000000000003
2018-10-23T20:59:05.645093Z,-0.99884,2.543457,-1.099792
2018-10-23T20:59:05.845093Z,0.810303,1.251953,0.268494
2018-10-23T20:59:06.044093Z,-0.259521,0.057616999999999995,-0.385925
2018-10-23T20:59:06.256093Z,-1.070129,0.809875,-0.573547
2018-10-23T20:59:06.460093Z,-0.611755,0.91394,-0.092102
2018-10-23T20:59:06.644093Z,-0.692688,-1.349915,0.48413100000000003
2018-10-23T20:59:06.843093Z,-0.554443,-0.051086,-0.740173
2018-10-23T20:59:07.049093Z,0.290588,0.922974,-0.645935
2018-10-23T20:59:07.252093Z,-1.0021360000000001,-0.469238,1.013672
2018-10-23T20:59:07.458093Z,0.09552000000000001,-0.12561,-0.443359
2018-10-23T20:59:07.644093Z,-0.229431,-0.049377,0.520752
2018-10-23T20:59:07.865093Z,0.084106,0.27301,-0.46661400000000003
2018-10-23T20:59:08.049093Z,-0.263977,0.864258,0.5200199999999999
2018-10-23T20:59:08.246093Z,-0.138855,0.49487299999999995,-0.631409
2018-10-23T20:59:08.446093Z,1.34436,0.348511,-0.371033
2018-10-23T20:59:08.647093Z,1.8963619999999999,-0.21520999999999998,-1.124084
2018-10-23T20:59:08.845093Z,0.812134,0.919617,-0.07470700000000001
2018-10-23T20:59:09.045093Z,-1.562073,0.698608,1.456543
2018-10-23T20:59:09.246093Z,-1.4400629999999999,-0.421387,0.673706
2018-10-23T20:59:09.445093Z,-1.381104,0.228027,-1.800659
2018-10-23T20:59:09.645093Z,-0.56781,1.098267,-0.44873
2018-10-23T20:59:09.844093Z,-1.021423,-0.408386,0.287109
2018-10-23T20:59:10.044093Z,0.12445099999999999,0.634033,-1.033936
2018-10-23T20:59:10.244093Z,-0.045044,1.171082,-0.628052
2018-10-23T20:59:10.445093Z,-0.5170899999999999,-0.447205,-0.32818600000000003
2018-10-23T20:59:10.645093Z,-0.759827,-1.113586,-0.762146
2018-10-23T20:59:10.844093Z,-0.29388400000000003,-0.068481,0.246338
2018-10-23T20:59:11.044093Z,-1.01355,-0.25750700000000004,-0.091187
2018-10-23T20:59:11.244093Z,-0.47979700000000003,0.17413299999999998,-0.282227
2018-10-23T20:59:11.446093Z,0.079773,0.687195,-0.956116
2018-10-23T20:59:11.651093Z,-0.361633,0.9835209999999999,-1.25
2018-10-23T20:59:11.846093Z,0.351501,0.625061,-0.9962770000000001
2018-10-23T20:59:12.046093Z,0.43804899999999997,1.4972530000000002,-0.797974
2018-10-23T20:59:12.249093Z,0.461792,1.308838,-0.33197
2018-10-23T20:59:12.445093Z,-1.112488,0.056763,1.244141
2018-10-23T20:59:12.646093Z,-1.363037,0.025695999999999997,-0.205017
2018-10-23T20:59:12.845093Z,-1.6077270000000001,-0.18573,-0.539429
2018-10-23T20:59:13.046093Z,0.018311,0.6499020000000001,-0.013123
2018-10-23T20:59:13.251093Z,-0.054077,-1.131653,0.863525
2018-10-23T20:59:13.444093Z,0.259338,-0.010376,-0.8704219999999999
2018-10-23T20:59:13.644093Z,0.540405,0.35907,0.137756
2018-10-23T20:59:13.847093Z,1.0065309999999998,1.125305,0.7597659999999999
2018-10-23T20:59:14.044093Z,-1.465027,-1.396973,-0.09906000000000001
2018-10-23T20:59:14.245093Z,-0.11950699999999999,-1.0755620000000001,-1.163391
2018-10-23T20:59:14.456093Z,-0.39361599999999997,0.07959,-0.22961399999999998
2018-10-23T20:59:14.644093Z,-0.48303199999999996,0.357788,0.26318400000000003
2018-10-23T20:59:14.845093Z,-0.130432,0.746033,-0.764099
2018-10-23T20:59:15.045093Z,0.794434,-0.264404,-0.364197
2018-10-23T20:59:15.245093Z,1.531555,-0.778748,-1.8075560000000002
2018-10-23T20:59:15.446093Z,0.888916,-0.371033,-0.427612
2018-10-23T20:59:15.847093Z,1.1160889999999999,0.017822,-0.072632
2018-10-23T20:59:16.046093Z,0.456665,0.643921,-0.407104
2018-10-23T20:59:16.245093Z,-0.118408,1.486267,0.254211
2018-10-23T20:59:16.445093Z,-0.200317,-0.815063,-1.240784
2018-10-23T20:59:16.647093Z,-0.612671,0.412292,-1.270508
2018-10-23T20:59:16.850093Z,-0.473145,1.588745,-0.8442379999999999
2018-10-23T20:59:17.045093Z,-0.696716,1.204041,0.18988
2018-10-23T20:59:17.244093Z,0.8803709999999999,-0.9189450000000001,0.066833
2018-10-23T20:59:17.458093Z,-0.48571800000000004,0.317627,-0.429871
2018-10-23T20:59:17.644093Z,-0.7128909999999999,-0.389099,-0.584534
2018-10-23T20:59:17.845093Z,-0.803711,-0.950989,-0.015015
2018-10-23T20:59:18.046093Z,-1.977295,-0.13250699999999999,-1.311279
2018-10-23T20:59:18.245093Z,-1.265625,0.342896,0.771423
2018-10-23T20:59:18.446093Z,-0.525269,0.631897,0.009216
2018-10-23T20:59:18.646093Z,-0.549377,-0.920715,0.122681
2018-10-23T20:59:18.845093Z,-0.6606449999999999,-0.445068,0.564453
2018-10-23T20:59:19.045093Z,-0.39318800000000004,0.417175,-0.861877
2018-10-23T20:59:19.245093Z,-2.628662,0.171631,1.372009
2018-10-23T20:59:19.445093Z,-1.754578,-0.129089,-1.518433
2018-10-23T20:59:19.645093Z,-0.867188,0.25061,-0.736633
2018-10-23T20:59:19.846093Z,-1.2133180000000001,-0.914307,2.0048220000000003
2018-10-23T20:59:20.045093Z,0.03772,-0.129822,-1.070435
2018-10-23T20:59:20.244093Z,0.718018,0.186951,-0.016968
2018-10-23T20:59:20.444093Z,0.11438,0.337097,-0.264709
2018-10-23T20:59:20.644093Z,-0.109009,-0.339172,0.10394300000000001
2018-10-23T20:59:20.848093Z,-0.8956299999999999,-0.455933,-1.415894
2018-10-23T20:59:21.047093Z,-0.726196,0.14221199999999998,-0.7922359999999999
2018-10-23T20:59:21.269093Z,1.0016479999999999,-1.0930790000000001,0.734985
2018-10-23T20:59:21.445093Z,-0.600586,-0.29425,-0.203552
2018-10-23T20:59:21.644093Z,-0.8187260000000001,0.044189,0.285645
2018-10-23T20:59:21.847093Z,-0.105103,-0.35375999999999996,-0.22607399999999997
2018-10-23T20:59:22.049093Z,0.039612,0.076538,-1.4555049999999998
2018-10-23T20:59:22.246093Z,-0.103027,0.531616,-0.026123
2018-10-23T20:59:22.445093Z,0.7737430000000001,-0.15240499999999998,-0.174438
2018-10-23T20:59:22.645093Z,0.334412,0.35449200000000003,-0.021240000000000002
2018-10-23T20:59:22.845093Z,0.914795,1.1323239999999999,0.363647
2018-10-23T20:59:23.045093Z,0.727783,-0.947998,0.482666
2018-10-23T20:59:23.263093Z,1.374939,-0.53479,-0.034973000000000004
2018-10-23T20:59:23.444093Z,-0.5428470000000001,0.19873,-0.599854
2018-10-23T20:59:23.645093Z,0.334106,1.393616,0.236389
2018-10-23T20:59:23.845093Z,-0.546692,0.865051,-0.729004
2018-10-23T20:59:24.044093Z,0.295349,1.0048219999999999,-1.360962
2018-10-23T20:59:24.244093Z,-0.234131,2.143494,0.48407
2018-10-23T20:59:24.445093Z,0.187134,0.044495,-1.284851
2018-10-23T20:59:24.657093Z,0.801086,0.169922,-0.575195
2018-10-23T20:59:24.844093Z,0.58783,0.12561,0.9692379999999999
2018-10-23T20:59:25.044093Z,0.697083,-0.246704,-0.321777
2018-10-23T20:59:25.246093Z,0.514954,1.429016,-1.2901610000000001
2018-10-23T20:59:25.454093Z,1.061218,1.815857,1.036987
2018-10-23T20:59:25.656093Z,-0.230469,-0.873291,-0.6521
2018-10-23T20:59:25.845093Z,0.953003,0.17157,-0.804932
2018-10-23T20:59:26.044093Z,1.763,-1.062927,1.328491
2018-10-23T20:59:26.245093Z,1.663391,0.089172,-1.7844849999999999
2018-10-23T20:59:26.446093Z,-0.12402300000000001,2.1141970000000003,0.43438699999999997
2018-10-23T20:59:26.647093Z,1.606262,-0.128296,-0.431091
2018-10-23T20:59:26.846093Z,0.126709,0.713989,-1.331604
2018-10-23T20:59:27.244093Z,-0.031555,1.7156369999999999,0.332764
2018-10-23T20:59:27.446093Z,0.360413,0.46014399999999994,-0.329651
2018-10-23T20:59:27.644093Z,-0.501404,1.704712,-0.533936
2018-10-23T20:59:27.844093Z,0.376892,2.47168,-0.0849
2018-10-23T20:59:28.044093Z,-2.402893,0.065063,2.820557
2018-10-23T20:59:28.245093Z,0.683411,0.559692,-1.831848
2018-10-23T20:59:28.444093Z,0.35675,1.9786380000000001,-0.567932
2018-10-23T20:59:28.645093Z,1.453125,0.18365499999999998,0.585083
2018-10-23T20:59:28.845093Z,1.36969,0.814209,-1.7243650000000001
2018-10-23T20:59:29.066093Z,0.790161,1.11554,-1.3840940000000002
2018-10-23T20:59:29.245093Z,0.608032,1.551575,-0.23175
2018-10-23T20:59:29.446093Z,-0.7546390000000001,0.3797,-0.049622
2018-10-23T20:59:29.645093Z,-0.204285,-0.11456300000000001,-1.303101
2018-10-23T20:59:29.846093Z,-1.035828,1.7861330000000002,-0.78064
2018-10-23T20:59:30.045093Z,-0.23730500000000002,1.989136,0.441528
2018-10-23T20:59:30.245093Z,0.489807,0.387878,-2.37146
2018-10-23T20:59:30.444093Z,-0.632202,1.7205810000000001,-1.630371
2018-10-23T20:59:30.644093Z,0.15118399999999999,2.568115,-0.114075
2018-10-23T20:59:30.844093Z,-0.7951050000000001,-0.471497,-0.532104
2018-10-23T20:59:31.045093Z,-0.051819000000000004,0.22906500000000002,-1.269348
2018-10-23T20:59:31.245093Z,-0.974426,0.8524780000000001,-0.42077600000000004
2018-10-23T20:59:31.454093Z,-0.290527,1.468201,-0.10803199999999999
2018-10-23T20:59:31.644093Z,-1.211182,0.007384999999999999,2.683777
2018-10-23T20:59:31.844093Z,0.315308,-0.509705,-0.934448
2018-10-23T20:59:32.045093Z,1.2143549999999999,-0.167053,0.282288
2018-10-23T20:59:32.246093Z,1.338379,0.860718,-0.565552
2018-10-23T20:59:32.445093Z,-0.002075,1.197144,0.529541
2018-10-23T20:59:32.645093Z,-1.693604,-0.029541,-1.0142209999999998
2018-10-23T20:59:32.845093Z,-1.629517,0.151611,-0.547058
2018-10-23T20:59:33.046093Z,-0.304504,1.2427979999999998,-0.31811500000000004
2018-10-23T20:59:33.245093Z,-0.714966,-0.623901,0.940552
2018-10-23T20:59:33.444093Z,0.031127999999999996,0.167847,-0.7096560000000001
2018-10-23T20:59:33.646093Z,0.084595,1.500366,-0.15246600000000002
2018-10-23T20:59:33.844093Z,-1.9814450000000001,-0.292725,1.440857
2018-10-23T20:59:34.044093Z,-1.263855,-0.098999,-0.803162
2018-10-23T20:59:34.244093Z,-0.105225,0.802917,-0.27807600000000005
2018-10-23T20:59:34.445093Z,-0.375793,-0.700195,1.111206
2018-10-23T20:59:34.645093Z,-0.264771,1.104919,-2.898254
2018-10-23T20:59:34.844093Z,-0.49883999999999995,1.597473,1.894043
2018-10-23T20:59:35.044093Z,-2.4193119999999997,-0.8713989999999999,1.8572389999999999
2018-10-23T20:59:35.244093Z,-1.443481,0.007812,-0.46948199999999995
2018-10-23T20:59:35.517093Z,-0.009094,0.806213,-0.624329
2018-10-23T20:59:35.644093Z,0.8696290000000001,0.27807600000000005,0.08770800000000001
2018-10-23T20:59:35.845093Z,-0.624329,-0.403992,0.559509
2018-10-23T20:59:36.045093Z,-0.6132810000000001,0.847412,-0.5971069999999999
2018-10-23T20:59:36.245093Z,-0.47338900000000006,1.177551,-0.42144799999999993
2018-10-23T20:59:36.445093Z,-1.183655,-0.625305,0.35553
2018-10-23T20:59:36.646093Z,-0.272949,0.26178,-1.304504
2018-10-23T20:59:36.845093Z,1.282715,-0.347656,0.18988
2018-10-23T20:59:37.045093Z,-0.008057,-0.299377,-0.9931030000000001
2018-10-23T20:59:37.245093Z,-0.678589,0.6235350000000001,-0.023681999999999998
2018-10-23T20:59:37.451093Z,-1.1087040000000001,-0.645081,1.3823239999999999
2018-10-23T20:59:37.644093Z,-1.0164790000000001,-1.207458,-1.0385739999999999
2018-10-23T20:59:37.844093Z,-0.43432600000000005,-0.34484899999999996,-0.532104
2018-10-23T20:59:38.045093Z,-0.681458,1.023132,-0.197021
2018-10-23T20:59:38.259093Z,0.129333,-0.663086,-0.47161899999999995
2018-10-23T20:59:38.444093Z,0.050842,-1.107788,-1.141602
2018-10-23T20:59:38.645093Z,-0.191956,-0.632019,1.060913
2018-10-23T20:59:38.845093Z,0.819092,-0.698181,-1.012024
2018-10-23T20:59:39.046093Z,0.579163,2.651062,4.751892
2018-10-23T20:59:39.245093Z,0.766418,1.723511,-2.287048
2018-10-23T20:59:39.445093Z,-1.496155,0.025879000000000003,1.094543
2018-10-23T20:59:39.645093Z,-1.8206790000000002,-1.2894290000000002,-1.7611080000000001
2018-10-23T20:59:39.845093Z,-0.924316,-0.31958000000000003,-1.156067
2018-10-23T20:59:40.046093Z,-0.270386,0.8460690000000001,-0.021851
2018-10-23T20:59:40.248093Z,-0.43048100000000006,-1.222046,2.031311
2018-10-23T20:59:40.449093Z,-0.459045,0.024597,-1.027283
2018-10-23T20:59:40.646093Z,-0.176636,1.028748,-0.934204
2018-10-23T20:59:40.844093Z,-0.531433,-0.042480000000000004,0.44854700000000003
2018-10-23T20:59:41.044093Z,-1.157959,-0.792175,-0.157288
2018-10-23T20:59:41.244093Z,-1.449646,-0.8318479999999999,-0.047424
2018-10-23T20:59:41.470093Z,0.200989,0.39245599999999997,-0.31140100000000004
2018-10-23T20:59:41.645093Z,-1.851746,0.11370799999999999,0.07434099999999999
2018-10-23T20:59:41.848093Z,-0.848633,0.5661010000000001,-0.269043
2018-10-23T20:59:42.045093Z,-0.6915279999999999,0.759338,0.308228
2018-10-23T20:59:42.445093Z,0.591919,-0.44043000000000004,-0.298096
2018-10-23T20:59:42.645093Z,0.143188,0.042053,-0.285583
2018-10-23T20:59:42.846093Z,0.384705,0.303833,-0.626526
2018-10-23T20:59:43.046093Z,-0.694763,0.24273699999999998,0.747742
2018-10-23T20:59:43.245093Z,-1.8682860000000001,-1.636169,1.029236
2018-10-23T20:59:43.445093Z,-1.832886,-1.423462,-0.596375
2018-10-23T20:59:43.645093Z,-0.9569700000000001,-0.12322999999999999,0.848877
2018-10-23T20:59:43.845093Z,2.549011,1.203491,0.081116
2018-10-23T20:59:44.045093Z,-2.6880490000000004,-2.7005619999999997,-0.770691
2018-10-23T20:59:44.244093Z,-0.921509,-0.642822,-0.230713
2018-10-23T20:59:44.444093Z,0.47564700000000004,-0.247986,-0.34118699999999996
2018-10-23T20:59:44.644093Z,-0.281921,-0.52179,0.09185800000000001
2018-10-23T20:59:44.844093Z,-1.7821040000000001,-0.386475,0.030701
2018-10-23T20:59:45.044093Z,-1.307434,0.30956999999999996,0.758789
2018-10-23T20:59:45.244093Z,-1.704834,-0.268921,-0.347229
2018-10-23T20:59:45.458093Z,-0.192261,0.029236,-0.350769
2018-10-23T20:59:45.644093Z,-0.06311,0.121643,1.172241
2018-10-23T20:59:45.849093Z,-0.130188,0.208984,-0.711548
2018-10-23T20:59:46.047093Z,-1.181702,0.140747,0.089783
2018-10-23T20:59:46.255093Z,-2.282349,1.0966799999999999,-0.5195310000000001
2018-10-23T20:59:46.445093Z,-0.522949,1.2060549999999999,-0.901917
2018-10-23T20:59:46.646093Z,-0.69635,0.955933,1.196045
2018-10-23T20:59:46.847093Z,0.39209,-0.678772,0.583801
2018-10-23T20:59:47.045093Z,-0.34387199999999996,-0.206909,-0.986389
2018-10-23T20:59:47.245093Z,-0.27929699999999996,0.9921260000000001,0.192322
2018-10-23T20:59:47.445093Z,-1.903687,-0.421509,2.144592
2018-10-23T20:59:47.649093Z,-2.437256,-0.9430540000000001,-0.605103
2018-10-23T20:59:47.844093Z,-0.48681599999999997,1.062683,1.2379149999999999
2018-10-23T20:59:48.044093Z,-1.062439,-0.9688110000000001,-0.67981
2018-10-23T20:59:48.244093Z,-0.9182739999999999,0.026917,-0.9161379999999999
2018-10-23T20:59:48.445093Z,-2.275452,0.899963,1.7710569999999999
2018-10-23T20:59:48.644093Z,-2.180176,-1.266174,-0.143738
2018-10-23T20:59:48.844093Z,-1.532471,0.492676,-1.476318
2018-10-23T20:59:49.045093Z,-0.309631,-0.095886,2.077515
2018-10-23T20:59:49.244093Z,-1.707336,-0.256958,-1.756775
2018-10-23T20:59:49.445093Z,-1.1365969999999999,1.046143,2.8724369999999997
2018-10-23T20:59:49.645093Z,-2.798828,-1.294861,0.535706
2018-10-23T20:59:49.845093Z,-1.090332,0.418213,-2.324158
2018-10-23T20:59:50.045093Z,-0.6972659999999999,0.256958,1.199036
2018-10-23T20:59:50.245093Z,0.283997,0.0021969999999999997,-0.522705
2018-10-23T20:59:50.445093Z,-0.9963989999999999,1.2504879999999998,-0.628235
2018-10-23T20:59:50.646093Z,-2.34198,-1.1826780000000001,0.8334959999999999
2018-10-23T20:59:50.845093Z,-1.447632,-0.46014399999999994,-0.082336
2018-10-23T20:59:51.045093Z,-0.7399899999999999,0.565735,0.455017
2018-10-23T20:59:51.244093Z,-0.735657,-0.863403,0.394897
2018-10-23T20:59:51.446093Z,-0.313354,-0.176758,-1.440979
2018-10-23T20:59:51.646093Z,-0.19287100000000001,0.148376,-0.757263
2018-10-23T20:59:51.845093Z,-1.766541,-1.044067,0.26416
2018-10-23T20:59:52.044093Z,-1.011719,0.312012,-1.178284
2018-10-23T20:59:52.245093Z,0.126404,-0.5818479999999999,2.094177
2018-10-23T20:59:52.461093Z,0.365906,-1.564026,0.74939
2018-10-23T20:59:52.645093Z,-0.023621,-0.9586180000000001,0.407959
2018-10-23T20:59:52.845093Z,-1.362366,-1.190979,2.154114
2018-10-23T20:59:53.045093Z,0.679321,-0.6115109999999999,-1.671936
2018-10-23T20:59:53.246093Z,-0.07910199999999999,0.9607540000000001,-0.12262
2018-10-23T20:59:53.445093Z,-0.49072299999999996,-1.293152,3.596313
2018-10-23T20:59:53.645093Z,0.06543,-0.39868200000000004,-1.627869
2018-10-23T20:59:53.845093Z,-0.132751,0.1026,0.562012
2018-10-23T20:59:54.047093Z,-0.22052,-1.289185,-3.680847
2018-10-23T20:59:54.246093Z,0.052002,-1.131165,-2.081604
2018-10-23T20:59:54.447093Z,-0.144958,0.33013899999999996,0.733521
2018-10-23T20:59:54.651093Z,0.8216549999999999,-0.739929,1.293579
2018-10-23T20:59:54.853093Z,0.58136,-0.884216,-0.139221
2018-10-23T20:59:55.044093Z,1.128052,-0.16961700000000002,0.003296
2018-10-23T20:59:55.245093Z,0.128967,-0.150391,-0.17114300000000002
2018-10-23T20:59:55.644093Z,0.259888,-0.773193,-0.334717
2018-10-23T20:59:55.875093Z,-0.1698,0.064575,0.35644499999999996
2018-10-23T20:59:56.045093Z,0.12054400000000001,1.174072,-0.573914
2018-10-23T20:59:56.245093Z,-0.967468,-0.787659,1.994629
2018-10-23T20:59:56.445093Z,0.261536,-2.025146,0.017029
2018-10-23T20:59:56.651093Z,0.759033,-0.183105,0.320129
2018-10-23T20:59:56.846093Z,0.419617,1.649719,0.698181
2018-10-23T20:59:57.044093Z,-2.256653,-1.094055,2.20343
2018-10-23T20:59:57.245093Z,-1.4916989999999999,-0.74646,-0.200623
2018-10-23T20:59:57.445093Z,0.032837,0.7105100000000001,0.81488
2018-10-23T20:59:57.645093Z,0.046448,-1.680908,1.591858
2018-10-23T20:59:57.846093Z,-0.284607,0.091736,-1.385071
2018-10-23T20:59:58.047093Z,0.047852,0.36322,0.235046
2018-10-23T20:59:58.290093Z,-1.659729,-1.186157,1.3251950000000001
2018-10-23T20:59:58.444093Z,-0.713684,-0.733093,-1.855652
2018-10-23T20:59:58.645093Z,-0.22894299999999998,0.202087,0.9292600000000001
2018-10-23T20:59:58.848093Z,-0.216736,-1.104187,1.9498900000000001
2018-10-23T20:59:59.049093Z,0.514221,-0.197876,-0.6857300000000001
2018-10-23T20:59:59.244093Z,-0.170837,0.5136109999999999,0.684387
2018-10-23T20:59:59.444093Z,-0.640076,-1.25177,0.297607
2018-10-23T20:59:59.646093Z,0.068848,-0.239075,-0.637512
2018-10-23T20:59:59.845093Z,0.071899,-0.20532199999999998,1.1087040000000001
2018-10-23T21:00:00.104093Z,-0.43255600000000005,-1.0816649999999999,-2.380615
2018-10-23T21:00:00.246093Z,0.466797,-0.417725,-1.019104
2018-10-23T21:00:00.445093Z,-0.34362800000000004,0.682678,0.603455
2018-10-23T21:00:00.645093Z,-0.005065999999999999,-0.671082,0.9199219999999999
2018-10-23T21:00:00.845093Z,-0.543701,0.143372,-0.21722399999999997
2018-10-23T21:00:01.045093Z,0.211853,0.148071,0.243164
2018-10-23T21:00:01.245093Z,0.876099,-0.8446040000000001,-0.095764
2018-10-23T21:00:01.522093Z,0.15850799999999998,0.146912,-0.9495239999999999
2018-10-23T21:00:01.644093Z,0.035156,-0.128723,-0.20153800000000002
2018-10-23T21:00:01.844093Z,-0.696838,-1.0247190000000002,0.635193
2018-10-23T21:00:02.044093Z,-0.32495100000000005,0.046448,-0.822693
2018-10-23T21:00:02.254093Z,-0.23114,-0.661682,3.076111
2018-10-23T21:00:02.445093Z,0.252869,-0.810974,-1.627075
2018-10-23T21:00:02.644093Z,0.492249,0.703857,0.530212
2018-10-23T21:00:02.844093Z,-2.1828,-1.315735,1.25531
2018-10-23T21:00:03.046093Z,-0.809387,-0.44238299999999997,-1.230652
2018-10-23T21:00:03.246093Z,0.447632,-0.374817,0.988892
2018-10-23T21:00:03.445093Z,0.7131350000000001,-0.9996950000000001,-0.17749
2018-10-23T21:00:03.668093Z,-0.9545899999999999,-0.672058,0.822876
2018-10-23T21:00:03.846093Z,-0.568054,-0.165588,-0.011719
2018-10-23T21:00:04.046093Z,-0.11389200000000001,-0.41156000000000004,0.172913
2018-10-23T21:00:04.244093Z,-0.18212899999999999,0.135986,0.210632
2018-10-23T21:00:04.446093Z,0.808167,-0.5502319999999999,1.767334
2018-10-23T21:00:04.646093Z,-0.49926800000000005,-0.6799930000000001,-0.957092
2018-10-23T21:00:04.897093Z,0.137268,0.7497560000000001,1.9892580000000002
2018-10-23T21:00:05.050093Z,-1.9747919999999999,-1.280518,2.2787479999999998
2018-10-23T21:00:05.246093Z,-0.915466,-0.9799190000000001,-0.143127
2018-10-23T21:00:05.447093Z,-0.480774,0.314819,-0.07147200000000001
2018-10-23T21:00:05.644093Z,-1.519958,-0.570312,-0.20648200000000003
2018-10-23T21:00:05.845093Z,-1.086243,-0.77594,-1.7264400000000002
2018-10-23T21:00:06.044093Z,-1.271423,-0.498169,-0.322449
2018-10-23T21:00:06.244093Z,-3.050598,-0.99054,3.442627
2018-10-23T21:00:06.444093Z,-1.934753,-0.8473510000000001,-0.671204
2018-10-23T21:00:06.646093Z,-1.313782,0.299011,-0.238525
2018-10-23T21:00:06.846093Z,-0.595154,0.126526,1.635681
2018-10-23T21:00:07.076093Z,-1.121216,-1.503845,0.794922
2018-10-23T21:00:07.245093Z,-0.200317,-0.871033,0.5646359999999999
2018-10-23T21:00:07.455093Z,0.5075069999999999,-0.803772,-0.2052
2018-10-23T21:00:07.645093Z,0.297852,-0.711487,0.072449
2018-10-23T21:00:07.845093Z,-0.415588,-0.429199,0.9612430000000001
2018-10-23T21:00:08.045093Z,-1.9002080000000001,-1.675415,-0.81781
2018-10-23T21:00:08.245093Z,-0.985657,-0.641479,-0.651062
2018-10-23T21:00:08.447093Z,-0.44061300000000003,0.6461180000000001,0.21728499999999998
2018-10-23T21:00:08.644093Z,-0.321533,0.39569099999999996,0.913208
2018-10-23T21:00:09.044093Z,1.347107,-0.703308,-1.026367
2018-10-23T21:00:09.253093Z,0.14325,0.45629899999999995,-0.583313
2018-10-23T21:00:09.444093Z,0.315552,0.7185060000000001,1.9620360000000001
2018-10-23T21:00:09.645093Z,-0.672852,-1.033203,0.035706
2018-10-23T21:00:09.844093Z,-1.345215,0.254578,-0.297729
2018-10-23T21:00:10.045093Z,0.191223,0.44818100000000005,1.711182
2018-10-23T21:00:10.245093Z,0.5292359999999999,-1.630127,-0.245117
2018-10-23T21:00:10.447093Z,-0.11071800000000001,-0.085266,0.028198
2018-10-23T21:00:10.646093Z,-0.071655,-0.162109,1.6333010000000001
2018-10-23T21:00:10.846093Z,0.199402,-0.7547,0.957153
2018-10-23T21:00:11.049093Z,-0.598755,-0.08770800000000001,-0.272766
2018-10-23T21:00:11.252093Z,-0.067749,-0.05365,0.739441
2018-10-23T21:00:11.445093Z,-0.1474,-1.205139,-1.253723
2018-10-23T21:00:11.645093Z,-0.338196,0.106995,0.16381800000000002
2018-10-23T21:00:11.844093Z,-0.215698,0.208679,0.174011
2018-10-23T21:00:12.044093Z,0.155823,-1.53186,1.357483
2018-10-23T21:00:12.244093Z,-0.48309300000000005,-0.443115,-0.334167
2018-10-23T21:00:12.445093Z,-0.888977,-0.461426,0.9963989999999999
2018-10-23T21:00:12.650093Z,-0.006287,-1.0,-0.096741
2018-10-23T21:00:12.845093Z,0.171753,-0.024902,-0.6911619999999999
2018-10-23T21:00:13.045093Z,0.25,0.7108760000000001,-0.138062
2018-10-23T21:00:13.245093Z,0.268311,-0.513794,2.0053099999999997
2018-10-23T21:00:13.445093Z,-0.7048949999999999,-2.079773,-0.266541
2018-10-23T21:00:13.645093Z,-0.07257100000000001,0.06781000000000001,-0.301453
2018-10-23T21:00:13.847093Z,0.050537,0.584839,0.174377
2018-10-23T21:00:14.107093Z,-0.34936500000000004,-2.53772,3.4418949999999997
2018-10-23T21:00:14.255093Z,2.338074,-1.11676,-2.164062
2018-10-23T21:00:14.451093Z,1.485168,-0.572876,-0.24029499999999998
2018-10-23T21:00:14.653093Z,1.443481,-0.103394,-0.399902
2018-10-23T21:00:14.845093Z,1.147095,0.601746,0.079041
2018-10-23T21:00:15.045093Z,-0.226135,1.203064,-0.492065
2018-10-23T21:00:15.244093Z,0.670044,-0.637329,-0.835815
2018-10-23T21:00:15.444093Z,-0.561707,0.508301,-1.831116
2018-10-23T21:00:15.644093Z,0.922424,0.791748,1.215088
2018-10-23T21:00:15.844093Z,1.014893,-0.888855,0.40863
2018-10-23T21:00:16.045093Z,-0.135376,1.260681,-1.395874
2018-10-23T21:00:16.266093Z,1.7599490000000002,1.652771,2.401245
2018-10-23T21:00:16.444093Z,0.440247,-0.8931879999999999,0.012024
2018-10-23T21:00:16.653093Z,0.8334959999999999,1.260437,-1.2783200000000001
2018-10-23T21:00:16.852093Z,2.394531,0.586426,1.385132
2018-10-23T21:00:17.053093Z,0.34991500000000003,0.653381,-1.312378
2018-10-23T21:00:17.246093Z,1.116455,1.661011,-0.373352
2018-10-23T21:00:17.447093Z,0.5717770000000001,0.11389200000000001,-0.168213
2018-10-23T21:00:17.647093Z,-0.12176500000000001,0.21020500000000003,-0.9931639999999999
2018-10-23T21:00:17.846093Z,0.914185,0.731079,2.084351
2018-10-23T21:00:18.045093Z,0.6129760000000001,-0.316956,0.518433
2018-10-23T21:00:18.250093Z,0.537842,1.7684330000000001,-2.680664
2018-10-23T21:00:18.452093Z,-0.845276,0.277039,4.122498
2018-10-23T21:00:18.646093Z,-0.251282,-0.082336,-1.295288
2018-10-23T21:00:18.844093Z,0.264221,1.2715450000000001,-1.7059939999999998
2018-10-23T21:00:19.044093Z,-0.627747,0.12371800000000001,2.805603
2018-10-23T21:00:19.333093Z,-0.33123800000000003,0.572449,-0.102844
2018-10-23T21:00:19.444093Z,0.74408,1.2805790000000001,-0.668762
2018-10-23T21:00:19.645093Z,-0.034668,-0.365112,1.447998
2018-10-23T21:00:19.852093Z,0.529053,0.4505,-1.704346
2018-10-23T21:00:20.053093Z,1.032043,0.7032470000000001,-1.313782
2018-10-23T21:00:20.246093Z,1.8497310000000002,0.23657199999999998,-0.017639
2018-10-23T21:00:20.445093Z,0.42486599999999997,1.351807,-1.019348
2018-10-23T21:00:20.645093Z,-0.242493,0.9402469999999999,1.628845
2018-10-23T21:00:20.845093Z,0.494324,-1.256592,1.099548
2018-10-23T21:00:21.108093Z,0.577148,-1.223206,-0.619324
2018-10-23T21:00:21.246093Z,0.36554000000000003,-0.06805399999999999,-0.16961700000000002
2018-10-23T21:00:21.448093Z,-1.229004,-1.215088,3.6816410000000004
2018-10-23T21:00:21.648093Z,-1.359924,-0.799255,-0.24829099999999998
2018-10-23T21:00:21.846093Z,2.6068119999999997,2.463867,-0.182556
2018-10-23T21:00:22.045093Z,-0.124329,2.2311400000000003,-0.403992
2018-10-23T21:00:22.244093Z,-0.451172,1.339417,0.534424
2018-10-23T21:00:22.445093Z,-1.0913700000000002,-0.8286129999999999,0.721252
2018-10-23T21:00:22.845093Z,-0.8206180000000001,-0.548096,-1.527771
2018-10-23T21:00:23.046093Z,-0.783875,0.342834,-0.449402
2018-10-23T21:00:23.244093Z,-0.789795,1.0778809999999999,-1.506592
2018-10-23T21:00:23.501093Z,-0.3797,1.048096,-0.715515
2018-10-23T21:00:23.644093Z,0.116577,0.064514,0.7303470000000001
2018-10-23T21:00:23.845093Z,-0.329468,0.492065,0.16406199999999999
2018-10-23T21:00:24.046093Z,1.2406620000000002,0.680237,0.145264
2018-10-23T21:00:24.246093Z,0.9825440000000001,1.320618,-0.562805
2018-10-23T21:00:24.445093Z,0.583191,1.885803,0.092529
2018-10-23T21:00:24.645093Z,-2.0171509999999997,-0.270264,1.7506709999999999
2018-10-23T21:00:24.845093Z,-1.107178,0.105957,-0.374756
2018-10-23T21:00:25.045093Z,0.530029,1.6039430000000001,-0.9417719999999999
2018-10-23T21:00:25.247093Z,0.05365,-0.015747,0.242065
2018-10-23T21:00:25.446093Z,-0.348999,0.47454799999999997,-0.398376
2018-10-23T21:00:25.648093Z,-1.435547,0.633179,0.579773
2018-10-23T21:00:25.845093Z,-2.927246,-0.952148,3.144836
2018-10-23T21:00:26.048093Z,-1.131226,-1.739929,1.180908
2018-10-23T21:00:26.247093Z,-0.967407,-0.20550500000000002,-1.424866
2018-10-23T21:00:26.445093Z,-0.896545,0.752869,-0.46948199999999995
2018-10-23T21:00:26.645093Z,-0.42089799999999994,0.387329,-0.11804200000000001
2018-10-23T21:00:26.844093Z,1.089233,-0.556091,-0.583252
2018-10-23T21:00:27.044093Z,0.531616,0.179626,-0.397461
2018-10-23T21:00:27.328093Z,0.052246,0.527832,-0.414612
2018-10-23T21:00:27.447093Z,0.131348,1.052063,1.40094
2018-10-23T21:00:27.648093Z,-1.1646729999999998,-0.576172,1.73938
2018-10-23T21:00:27.846093Z,-1.681641,-1.617371,0.350952
2018-10-23T21:00:28.045093Z,-1.503235,-0.387878,0.731384
2018-10-23T21:00:28.245093Z,-1.445496,0.606628,-0.9074709999999999
2018-10-23T21:00:28.445093Z,-2.788452,0.533142,-0.562012
2018-10-23T21:00:28.645093Z,-2.151184,1.010742,0.49536099999999994
2018-10-23T21:00:28.848093Z,-0.929077,-0.943298,1.376282
2018-10-23T21:00:29.044093Z,0.126282,-0.469971,-1.9893189999999998
2018-10-23T21:00:29.244093Z,-0.782227,0.031006,-0.8531489999999999
2018-10-23T21:00:29.444093Z,-0.36938499999999996,1.468567,2.076233
