Datetime,accx,accy,accz
2018-10-11T00:03:32.662346Z,-0.032029,0.07749099999999999,-0.038074000000000004
2018-10-11T00:03:32.859346Z,0.37004899999999996,0.092558,-0.134433
2018-10-11T00:03:33.060346Z,-0.023659,0.16397799999999998,-0.297334
2018-10-11T00:03:33.261346Z,-0.037772,0.468679,-0.580149
2018-10-11T00:03:33.462346Z,-0.8518530000000001,1.102301,-0.754238
2018-10-11T00:03:33.670346Z,0.020953,0.382874,0.294385
2018-10-11T00:03:33.862346Z,-0.676295,0.994091,-0.26098000000000005
2018-10-11T00:03:34.077346Z,0.49522700000000003,-0.38148699999999997,0.662172
2018-10-11T00:03:34.271346Z,0.46429799999999993,-1.1587379999999998,0.480314
2018-10-11T00:03:34.476346Z,0.123199,-0.23284899999999997,-0.308156
2018-10-11T00:03:34.664346Z,-0.153118,0.5146350000000001,0.379714
2018-10-11T00:03:34.868346Z,-0.5320630000000001,-1.4641309999999998,0.883001
2018-10-11T00:03:35.072346Z,-0.418637,-0.600256,0.28157
2018-10-11T00:03:35.269346Z,-0.655842,-0.219346,0.015346
2018-10-11T00:03:35.489346Z,-0.7094600000000001,0.018992,0.29549899999999996
2018-10-11T00:03:35.676346Z,-1.012421,-0.464057,0.218457
2018-10-11T00:03:35.864346Z,-0.611647,0.380056,-0.191331
2018-10-11T00:03:36.064346Z,0.722117,0.944182,-0.9793700000000001
2018-10-11T00:03:36.271346Z,-0.13636700000000002,1.060025,-0.077588
2018-10-11T00:03:36.466346Z,-0.959807,-0.016125,-0.363719
2018-10-11T00:03:36.666346Z,-0.375765,0.097899,0.414983
2018-10-11T00:03:36.884346Z,0.51021,0.004746,-0.073644
2018-10-11T00:03:37.067346Z,0.505577,-0.33775900000000003,0.536345
2018-10-11T00:03:37.276346Z,0.33822800000000003,-0.778742,-0.615847
2018-10-11T00:03:37.470346Z,0.41963,1.183582,0.103368
2018-10-11T00:03:37.667346Z,-0.24252600000000002,-0.197978,0.24245
2018-10-11T00:03:37.878346Z,-0.20995999999999998,-1.026498,-0.240283
2018-10-11T00:03:38.072346Z,0.253703,0.577962,0.16501300000000002
2018-10-11T00:03:38.281346Z,0.5054489999999999,0.34309,0.15095
2018-10-11T00:03:38.472346Z,0.13401300000000002,-0.626553,0.277944
2018-10-11T00:03:38.687346Z,0.400403,-0.036585,0.198729
2018-10-11T00:03:38.882346Z,-0.179892,0.23385,0.205304
2018-10-11T00:03:39.074346Z,-0.01165,-0.644055,-0.138666
2018-10-11T00:03:39.274346Z,0.139516,0.407437,-0.219902
2018-10-11T00:03:39.500346Z,0.427467,-0.438083,0.9098709999999999
2018-10-11T00:03:39.672346Z,0.326898,0.036543,-0.42040299999999997
2018-10-11T00:03:39.876346Z,-0.311371,-0.316848,0.248018
2018-10-11T00:03:40.070346Z,-0.691491,-1.300928,2.383251
2018-10-11T00:03:40.287346Z,0.300735,-0.748115,0.116693
2018-10-11T00:03:40.477346Z,1.04273,1.880511,-1.3487870000000002
2018-10-11T00:03:40.673346Z,0.5326350000000001,1.922667,-0.972075
2018-10-11T00:03:40.874346Z,-0.697919,-0.0036880000000000003,-1.048234
2018-10-11T00:03:41.089346Z,-0.145217,0.953391,-0.578629
2018-10-11T00:03:41.274346Z,-0.566366,1.5592,0.19270299999999999
2018-10-11T00:03:41.486346Z,0.43880699999999995,-0.9070450000000001,0.511369
2018-10-11T00:03:41.676346Z,0.34969,0.163998,-1.006946
2018-10-11T00:03:41.874346Z,0.333663,1.85189,0.312598
2018-10-11T00:03:42.083346Z,-0.446698,-0.881216,-0.052832000000000004
2018-10-11T00:03:42.288346Z,0.48547799999999997,-0.8176359999999999,-0.619408
2018-10-11T00:03:42.476346Z,-0.173676,0.874291,1.1130799999999998
2018-10-11T00:03:42.675346Z,-0.35080700000000004,-1.01773,-0.56476
2018-10-11T00:03:42.881346Z,0.751962,-0.473265,0.317698
2018-10-11T00:03:43.088346Z,0.200729,0.180975,0.83401
2018-10-11T00:03:43.280346Z,-0.664388,-0.480533,-0.100147
2018-10-11T00:03:43.492346Z,0.069944,-0.801066,0.440779
2018-10-11T00:03:43.690346Z,0.343109,-0.814287,0.677845
2018-10-11T00:03:43.879346Z,0.6988260000000001,-0.420695,-0.7142649999999999
2018-10-11T00:03:44.091346Z,-0.12926300000000002,1.3440940000000001,0.178843
2018-10-11T00:03:44.276346Z,-1.49793,-0.757413,0.541258
2018-10-11T00:03:44.489346Z,-0.869439,-0.724021,0.018237
2018-10-11T00:03:44.685346Z,-0.32247,-0.22250799999999998,1.183742
2018-10-11T00:03:44.880346Z,-0.41652799999999995,-0.33106199999999997,-0.310515
2018-10-11T00:03:45.094346Z,-0.1515,1.1813,-1.250227
2018-10-11T00:03:45.283346Z,-0.08409,-0.082674,0.639638
2018-10-11T00:03:45.481346Z,-0.43116099999999996,-0.303103,-0.422658
2018-10-11T00:03:45.696346Z,-0.340354,0.692379,0.161517
2018-10-11T00:03:45.887346Z,0.010409999999999999,0.602612,-0.6255729999999999
2018-10-11T00:03:46.090346Z,0.095976,1.0529,0.836873
2018-10-11T00:03:46.281346Z,0.07585800000000001,-1.302347,0.162101
2018-10-11T00:03:46.481346Z,0.564345,-0.663833,-0.43357399999999996
2018-10-11T00:03:46.688346Z,0.675361,0.6646,-0.307316
2018-10-11T00:03:46.888346Z,0.377152,0.8710690000000001,-0.026663
2018-10-11T00:03:47.085346Z,-1.183259,-0.34972,-0.053405999999999995
2018-10-11T00:03:47.284346Z,-0.486296,-0.12296800000000001,-0.345763
2018-10-11T00:03:47.496346Z,-0.11144100000000001,0.9523159999999999,-0.386106
2018-10-11T00:03:47.682346Z,0.087181,-0.16131600000000001,0.919668
2018-10-11T00:03:47.895346Z,0.055557,-1.198385,0.716073
2018-10-11T00:03:48.097346Z,0.28481999999999996,-0.349056,-0.42112
2018-10-11T00:03:48.290346Z,0.717325,1.013984,-0.579507
2018-10-11T00:03:48.483346Z,-0.29283000000000003,0.208404,-0.010549
2018-10-11T00:03:48.685346Z,-0.818144,-0.568653,0.038542
2018-10-11T00:03:48.886346Z,-0.081161,0.617003,-0.45411
2018-10-11T00:03:49.091346Z,0.015812,1.4922389999999999,0.468183
2018-10-11T00:03:49.298346Z,0.6850569999999999,-0.995778,0.388221
2018-10-11T00:03:49.484346Z,-0.15673,0.212633,-0.699236
2018-10-11T00:03:49.685346Z,0.23423200000000002,0.369041,0.23752399999999999
2018-10-11T00:03:49.899346Z,-0.205909,-0.598333,0.406649
2018-10-11T00:03:50.096346Z,-0.434187,-0.807569,-0.590908
2018-10-11T00:03:50.285346Z,0.35882800000000004,0.760545,-0.066888
2018-10-11T00:03:50.485346Z,1.4717209999999998,-0.274118,0.435229
2018-10-11T00:03:50.697346Z,-0.38206999999999997,-0.010087,-0.6087899999999999
2018-10-11T00:03:50.897346Z,-0.625252,0.73888,0.071656
2018-10-11T00:03:51.088346Z,-1.857716,0.202513,0.670196
2018-10-11T00:03:51.299346Z,0.574059,-1.004078,0.930967
2018-10-11T00:03:51.492346Z,0.483475,-0.335889,0.044818000000000004
2018-10-11T00:03:51.699346Z,1.156547,-1.140527,0.308936
2018-10-11T00:03:51.887346Z,1.27657,-0.8872559999999999,-0.252692
2018-10-11T00:03:52.094346Z,-0.038189,-0.168819,0.576596
2018-10-11T00:03:52.328346Z,0.28513,0.095862,0.090811
2018-10-11T00:03:52.489346Z,0.10981600000000001,0.371956,-0.504339
2018-10-11T00:03:52.690346Z,-0.10965799999999999,-0.542784,0.032371
2018-10-11T00:03:52.890346Z,0.225181,1.0196049999999999,0.047902
2018-10-11T00:03:53.090346Z,0.00078,0.156836,0.607043
2018-10-11T00:03:53.297346Z,0.357903,-0.1461,-0.37309699999999996
2018-10-11T00:03:53.500346Z,0.508833,0.27339600000000003,-0.46547
2018-10-11T00:03:53.696346Z,-0.27760100000000004,0.858351,-0.925608
2018-10-11T00:03:53.895346Z,-0.796006,1.628288,-0.417608
2018-10-11T00:03:54.100346Z,0.482959,-0.678773,1.030219
2018-10-11T00:03:54.291346Z,0.016748,-2.414114,-0.510825
2018-10-11T00:03:54.508346Z,0.942634,2.543688,-0.942009
2018-10-11T00:03:54.712346Z,0.44298699999999996,0.9402780000000001,1.636981
2018-10-11T00:03:54.907346Z,-0.48550600000000005,-0.639729,-1.165331
2018-10-11T00:03:55.108346Z,0.141747,-0.168674,0.101552
2018-10-11T00:03:55.294346Z,0.23207199999999997,0.846657,0.617678
2018-10-11T00:03:55.494346Z,0.508698,-0.8620209999999999,1.199345
2018-10-11T00:03:55.697346Z,0.47767,-0.907118,-0.727352
2018-10-11T00:03:55.898346Z,0.326303,-0.395793,-0.081032
2018-10-11T00:03:56.106346Z,0.627965,-0.9431299999999999,0.5220739999999999
2018-10-11T00:03:56.310346Z,1.495635,-0.76656,0.445905
2018-10-11T00:03:56.512346Z,-0.186599,-0.410553,-0.073797
2018-10-11T00:03:56.707346Z,0.027617000000000003,-0.708643,0.366775
2018-10-11T00:03:56.897346Z,0.272169,-0.589198,0.564932
2018-10-11T00:03:57.097346Z,0.9417719999999999,0.605731,-0.133613
2018-10-11T00:03:57.307346Z,0.362267,0.529509,-0.836094
2018-10-11T00:03:57.511346Z,0.258873,1.508731,-0.677908
2018-10-11T00:03:57.791346Z,0.209585,0.6097520000000001,1.34866
2018-10-11T00:03:57.911346Z,-0.930325,-1.130831,-0.81004
2018-10-11T00:03:58.100346Z,-0.457975,-0.184423,0.078808
2018-10-11T00:03:58.306346Z,-0.080759,0.17802,0.136123
2018-10-11T00:03:58.502346Z,0.373344,-1.095909,0.9697879999999999
2018-10-11T00:03:58.699346Z,0.053167,-0.561403,0.008981
2018-10-11T00:03:58.923346Z,0.463571,0.390939,-0.330191
2018-10-11T00:03:59.110346Z,-0.024306,0.20361300000000002,1.091696
2018-10-11T00:03:59.308346Z,-0.754401,-1.0861610000000002,0.06479700000000001
2018-10-11T00:03:59.512346Z,-0.269177,1.061735,-0.824679
2018-10-11T00:03:59.713346Z,0.106154,0.394515,-1.207183
2018-10-11T00:03:59.914346Z,-1.510055,-0.007349,1.828372
2018-10-11T00:04:00.116346Z,-1.744998,-3.422081,1.566526
2018-10-11T00:04:00.314346Z,-0.14206400000000002,-0.355232,0.24090300000000003
2018-10-11T00:04:00.515346Z,-0.807999,0.928163,-1.1215389999999998
2018-10-11T00:04:00.702346Z,-0.942176,1.8498830000000002,-0.165969
2018-10-11T00:04:00.900346Z,0.991667,-0.9247280000000001,0.87008
2018-10-11T00:04:01.101346Z,1.113389,-2.478128,1.987796
2018-10-11T00:04:01.301346Z,0.8945200000000001,-0.959408,0.607953
2018-10-11T00:04:01.503346Z,0.813344,-0.12826300000000002,-0.214901
2018-10-11T00:04:01.704346Z,-0.306637,0.549408,-0.34320300000000004
2018-10-11T00:04:01.904346Z,-0.20532899999999998,0.102799,0.26004099999999997
2018-10-11T00:04:02.105346Z,-0.01411,0.539076,-0.26454099999999997
2018-10-11T00:04:02.309346Z,-0.566708,0.6084069999999999,-0.647841
2018-10-11T00:04:02.509346Z,0.162105,0.687725,-0.88771
2018-10-11T00:04:02.714346Z,0.552355,2.031632,-0.781737
2018-10-11T00:04:02.914346Z,0.285758,1.4128129999999999,-0.383924
2018-10-11T00:04:03.105346Z,-0.223503,0.175715,1.5576969999999999
2018-10-11T00:04:03.325346Z,-0.44738900000000004,-1.125646,-0.873863
2018-10-11T00:04:03.507346Z,0.273152,0.405613,-0.014116
2018-10-11T00:04:03.707346Z,0.772366,0.569384,0.8243520000000001
2018-10-11T00:04:03.923346Z,-0.053364999999999996,-1.696043,0.8347690000000001
2018-10-11T00:04:04.119346Z,-0.216669,-1.272589,0.60622
2018-10-11T00:04:04.323346Z,0.593569,-0.011655,-0.611795
2018-10-11T00:04:04.517346Z,0.9269430000000001,1.083888,-0.60658
2018-10-11T00:04:04.719346Z,0.932685,0.801225,-0.6308229999999999
2018-10-11T00:04:04.909346Z,-0.175813,0.253294,0.53879
2018-10-11T00:04:05.110346Z,0.520582,-0.67625,0.139263
2018-10-11T00:04:05.310346Z,-0.036586,0.84864,0.385575
2018-10-11T00:04:05.510346Z,0.94329,-0.26808699999999996,1.3094700000000001
2018-10-11T00:04:05.725346Z,0.740143,-1.498643,-0.425544
2018-10-11T00:04:05.909346Z,0.31100300000000003,-0.16383399999999998,0.19831700000000002
2018-10-11T00:04:06.121346Z,0.434252,0.140862,0.4411
2018-10-11T00:04:06.326346Z,0.127496,-1.046822,0.861497
2018-10-11T00:04:06.512346Z,0.005304,-0.532926,0.099356
2018-10-11T00:04:06.711346Z,-0.22290700000000002,0.346377,0.187889
2018-10-11T00:04:06.911346Z,-0.21377800000000002,-0.140315,0.376637
2018-10-11T00:04:07.111346Z,-0.30950700000000003,-0.506778,-0.6992079999999999
2018-10-11T00:04:07.312346Z,-0.159723,0.550371,-0.4956
2018-10-11T00:04:07.513346Z,0.643333,0.793451,-0.34899600000000003
2018-10-11T00:04:07.713346Z,0.24449899999999997,1.0229620000000001,-0.509386
2018-10-11T00:04:07.930346Z,-0.361385,1.135613,0.21977600000000003
2018-10-11T00:04:08.115346Z,-1.023607,-0.723007,0.344602
2018-10-11T00:04:08.317346Z,-0.108134,-0.379658,-0.086185
2018-10-11T00:04:08.513346Z,0.148334,0.19680699999999998,0.757104
2018-10-11T00:04:08.714346Z,0.447694,-1.232215,0.281467
2018-10-11T00:04:08.916346Z,0.091362,-0.264698,-0.28641
2018-10-11T00:04:09.125346Z,0.065013,0.199512,1.192617
2018-10-11T00:04:09.351346Z,-0.5278729999999999,-0.8640200000000001,-0.105358
2018-10-11T00:04:09.527346Z,-0.039405,-0.190272,0.089533
2018-10-11T00:04:09.724346Z,0.049311,0.06758600000000001,-0.123931
2018-10-11T00:04:09.915346Z,-0.154923,0.487375,-0.500546
2018-10-11T00:04:10.115346Z,-0.09813,0.811307,-0.389119
2018-10-11T00:04:10.316346Z,0.205461,0.886819,0.245823
2018-10-11T00:04:10.516346Z,0.9369930000000001,-0.814841,0.168268
2018-10-11T00:04:10.728346Z,0.648762,-0.174406,-0.597378
2018-10-11T00:04:10.925346Z,0.8515440000000001,-0.004412,-0.03246
2018-10-11T00:04:11.130346Z,0.023413999999999997,0.589385,0.862656
2018-10-11T00:04:11.329346Z,-0.701205,-0.807769,-0.0015429999999999999
2018-10-11T00:04:11.524346Z,-0.547143,-0.385334,-0.142362
2018-10-11T00:04:11.722346Z,-0.731355,0.670825,0.368525
2018-10-11T00:04:11.925346Z,0.6309739999999999,-1.025124,0.501413
2018-10-11T00:04:12.128346Z,0.387869,-0.536017,0.173808
2018-10-11T00:04:12.321346Z,0.512367,0.340848,-0.325398
2018-10-11T00:04:12.519346Z,0.6260640000000001,0.738687,-0.384704
2018-10-11T00:04:12.717346Z,0.568871,0.45126499999999997,-0.45965600000000006
2018-10-11T00:04:12.920346Z,0.435345,0.645575,-0.069615
2018-10-11T00:04:13.120346Z,0.086411,-0.195694,0.271854
2018-10-11T00:04:13.329346Z,-0.455449,-0.263194,0.327966
2018-10-11T00:04:13.534346Z,-0.278526,-0.46502200000000005,0.404498
2018-10-11T00:04:13.721346Z,0.43574399999999996,-0.509725,0.763456
2018-10-11T00:04:13.933346Z,0.309392,-1.09964,-0.004893
2018-10-11T00:04:14.135346Z,0.24915,-0.24806199999999998,0.000446
2018-10-11T00:04:14.322346Z,0.017338,0.959857,-0.159269
2018-10-11T00:04:14.536346Z,0.162304,-0.8206100000000001,0.280277
2018-10-11T00:04:14.735346Z,0.774075,-1.51034,0.679398
2018-10-11T00:04:14.922346Z,-0.37188000000000004,-0.063359,0.064582
2018-10-11T00:04:15.136346Z,-0.22010700000000002,0.106521,0.284451
2018-10-11T00:04:15.338346Z,-0.284111,-0.546265,-0.063516
2018-10-11T00:04:15.523346Z,0.655415,-0.034128,-0.438853
2018-10-11T00:04:15.723346Z,0.358994,-0.235179,0.5473140000000001
2018-10-11T00:04:15.929346Z,-0.045294,-1.056211,0.7262310000000001
2018-10-11T00:04:16.124346Z,-0.022518,0.353198,-0.415758
2018-10-11T00:04:16.325346Z,0.24751199999999998,1.3584969999999998,-0.42751999999999996
2018-10-11T00:04:16.527346Z,-0.439907,2.405638,-1.9087450000000001
2018-10-11T00:04:16.735346Z,-0.657831,1.705282,0.526189
2018-10-11T00:04:16.938346Z,-0.507109,-1.515384,1.26247
2018-10-11T00:04:17.143346Z,1.054838,-0.8174859999999999,-1.554489
2018-10-11T00:04:17.326346Z,0.208934,0.9753290000000001,0.180464
2018-10-11T00:04:17.536346Z,0.22992600000000002,-0.235715,1.8384150000000001
2018-10-11T00:04:17.726346Z,-0.24766,-2.099139,0.27469
2018-10-11T00:04:17.928346Z,-0.319345,-0.104316,-0.236725
2018-10-11T00:04:18.127346Z,0.23957199999999998,0.321195,1.154909
2018-10-11T00:04:18.331346Z,0.649043,-0.945206,0.429885
2018-10-11T00:04:18.541346Z,0.42611800000000005,-0.21702,0.038439
2018-10-11T00:04:18.729346Z,0.851649,0.34597,-0.188106
2018-10-11T00:04:18.930346Z,0.13381600000000002,-0.56907,-0.18920599999999999
2018-10-11T00:04:19.128346Z,0.352139,0.273321,-0.294797
2018-10-11T00:04:19.330346Z,0.890325,0.8912040000000001,-0.193464
2018-10-11T00:04:19.530346Z,0.679359,0.504577,0.059315
2018-10-11T00:04:19.729346Z,0.13395,0.393394,0.469261
2018-10-11T00:04:19.930346Z,-0.670076,-0.7441479999999999,-0.17616600000000002
2018-10-11T00:04:20.221346Z,-0.255619,-0.34125500000000003,-0.07911
2018-10-11T00:04:20.413346Z,-0.30349,0.24080900000000002,0.22995700000000002
2018-10-11T00:04:20.613346Z,0.57628,-0.142315,0.703638
2018-10-11T00:04:20.733346Z,0.214515,-0.655054,-0.164017
2018-10-11T00:04:20.945346Z,0.345951,-0.016263999999999997,-0.159708
2018-10-11T00:04:21.131346Z,0.353373,0.987029,0.580645
2018-10-11T00:04:21.344346Z,-0.336455,-1.069641,0.186382
2018-10-11T00:04:21.532346Z,0.097247,-1.097651,0.38608600000000004
2018-10-11T00:04:21.732346Z,0.139212,-0.30484,-0.11199400000000001
2018-10-11T00:04:21.933346Z,-0.082723,1.1512360000000001,-0.741747
2018-10-11T00:04:22.148346Z,0.12448499999999998,1.591267,0.349823
2018-10-11T00:04:22.334346Z,0.23462399999999997,-0.5592520000000001,-0.192996
2018-10-11T00:04:22.534346Z,0.099879,-0.02366,-0.7241
2018-10-11T00:04:22.749346Z,0.027492000000000003,1.002132,0.270984
2018-10-11T00:04:22.935346Z,-0.8665700000000001,-0.96654,0.780415
2018-10-11T00:04:23.144346Z,-0.344227,-1.2554530000000002,-0.15391
2018-10-11T00:04:23.334346Z,-0.22539499999999998,0.28831100000000004,0.058774
2018-10-11T00:04:23.535346Z,0.14572100000000002,-0.081737,0.559661
2018-10-11T00:04:23.737346Z,-0.085715,-0.886299,0.36706700000000003
2018-10-11T00:04:23.935346Z,0.284788,-0.487519,0.605902
2018-10-11T00:04:24.145346Z,-0.37766700000000003,0.060911,0.11776199999999999
2018-10-11T00:04:24.353346Z,0.097194,-0.234415,-0.05248
2018-10-11T00:04:24.539346Z,0.611013,-0.083744,-0.371488
2018-10-11T00:04:24.748346Z,-0.49123100000000003,0.294854,0.161672
2018-10-11T00:04:24.940346Z,-0.25937899999999997,-1.037125,0.8632129999999999
2018-10-11T00:04:25.137346Z,0.251237,-1.15923,0.568326
2018-10-11T00:04:25.350346Z,-0.377128,-0.34666399999999997,0.391363
2018-10-11T00:04:25.551346Z,0.240083,0.625246,-0.28505199999999997
2018-10-11T00:04:25.738346Z,0.273439,0.920517,-0.813499
2018-10-11T00:04:25.939346Z,-0.010537999999999999,0.48498199999999997,-0.089358
2018-10-11T00:04:26.145346Z,0.041397,0.039452999999999995,0.10930899999999999
2018-10-11T00:04:26.349346Z,-0.224559,0.131907,-0.176554
2018-10-11T00:04:26.552346Z,0.23364400000000002,0.058087,-0.07337
2018-10-11T00:04:26.741346Z,-0.12193399999999999,0.011681,-0.116495
2018-10-11T00:04:26.949346Z,0.073128,0.09070399999999999,-0.080545
2018-10-11T00:04:27.188346Z,-0.198794,0.191144,-0.11664300000000001
2018-10-11T00:04:27.382346Z,0.110043,-0.041076999999999995,0.272895
2018-10-11T00:04:27.580346Z,0.248338,-0.267488,0.21864
2018-10-11T00:04:27.781346Z,-0.009016,0.30136399999999997,-0.12134600000000001
2018-10-11T00:04:27.981346Z,0.090566,0.026504000000000003,-0.2083
2018-10-11T00:04:28.201346Z,0.10099,0.795033,-0.4579
2018-10-11T00:04:28.394346Z,0.154658,0.516736,-0.9853139999999999
2018-10-11T00:04:28.584346Z,-0.8029,3.307128,-1.888202
2018-10-11T00:04:28.754346Z,0.943744,0.047503,1.391061
2018-10-11T00:04:28.945346Z,-0.010291,-0.38843099999999997,0.6207060000000001
2018-10-11T00:04:29.149346Z,-0.41995,-1.248759,0.586278
2018-10-11T00:04:29.343346Z,0.176521,-0.366275,-0.989174
2018-10-11T00:04:29.559346Z,-0.595673,0.939052,0.293623
2018-10-11T00:04:29.745346Z,0.69944,0.42292799999999997,0.969118
2018-10-11T00:04:29.955346Z,0.21093699999999999,-1.532115,-0.219077
2018-10-11T00:04:30.147346Z,0.595115,-0.22729499999999997,0.036561
2018-10-11T00:04:30.345346Z,0.307867,0.210115,1.139726
2018-10-11T00:04:30.552346Z,-0.196222,-1.022938,0.817655
2018-10-11T00:04:30.748346Z,0.161428,-0.804521,0.7453930000000001
2018-10-11T00:04:30.948346Z,0.473091,-0.19861099999999998,0.316603
2018-10-11T00:04:31.160346Z,0.018633,0.0050100000000000006,-0.064178
2018-10-11T00:04:31.358346Z,-0.287184,-0.206296,0.439532
2018-10-11T00:04:31.549346Z,-0.453057,0.164192,-0.038598
2018-10-11T00:04:31.748346Z,-0.049423,0.371035,-0.630739
2018-10-11T00:04:32.113346Z,0.350665,0.43518599999999996,-0.5265449999999999
2018-10-11T00:04:32.306346Z,-0.087138,0.41938800000000004,-0.325481
2018-10-11T00:04:32.348346Z,-0.13897,-0.763713,1.619949
2018-10-11T00:04:32.546346Z,-0.29647199999999996,-1.327228,0.944058
2018-10-11T00:04:32.761346Z,0.035344,-0.43450500000000003,0.023403
2018-10-11T00:04:32.950346Z,0.44568900000000006,-0.09477200000000001,0.177783
2018-10-11T00:04:33.156346Z,-0.088995,-0.24096199999999998,0.221923
2018-10-11T00:04:33.350346Z,-0.08633500000000001,0.932624,-0.606412
2018-10-11T00:04:33.550346Z,0.312438,0.619754,-0.018569
2018-10-11T00:04:33.752346Z,-0.026387999999999998,0.002877,0.30149699999999996
2018-10-11T00:04:33.951346Z,0.117898,-0.162205,-0.277923
2018-10-11T00:04:34.164346Z,0.175978,0.204099,-0.151332
2018-10-11T00:04:34.354346Z,-0.028248000000000002,0.009309999999999999,-0.226967
2018-10-11T00:04:34.713346Z,-0.111551,-0.093899,0.49616899999999997
2018-10-11T00:04:34.920346Z,-0.031030000000000002,0.008393000000000001,-0.010781
2018-10-11T00:04:35.126346Z,-0.5703189999999999,-0.40815799999999997,0.8622299999999999
2018-10-11T00:04:35.314346Z,-0.490521,-0.727504,-0.103525
2018-10-11T00:04:35.378346Z,-0.759203,-1.05779,0.209959
2018-10-11T00:04:35.565346Z,0.074183,0.518629,-0.183884
2018-10-11T00:04:35.754346Z,0.684266,1.633502,-0.943541
2018-10-11T00:04:35.954346Z,-1.199058,1.9749169999999998,-1.248317
2018-10-11T00:04:36.156346Z,0.9570690000000001,0.6318520000000001,-0.6806909999999999
2018-10-11T00:04:36.399346Z,0.21498699999999998,1.202495,-0.5928
2018-10-11T00:04:36.568346Z,-0.499341,0.34613,1.037842
2018-10-11T00:04:36.768346Z,-0.366546,-0.369579,-0.42925100000000005
2018-10-11T00:04:36.954346Z,-0.31137800000000004,0.032411,-0.581926
2018-10-11T00:04:37.168346Z,0.048981,1.1259780000000001,0.132723
2018-10-11T00:04:37.359346Z,0.159144,-1.1290040000000001,1.144058
2018-10-11T00:04:37.573346Z,-0.267507,-1.218442,-0.438125
2018-10-11T00:04:37.768346Z,-0.753959,0.22352600000000003,0.25505900000000004
2018-10-11T00:04:37.958346Z,-1.283556,-1.139018,2.410646
2018-10-11T00:04:38.163346Z,-0.143,-1.4775129999999999,0.009486
2018-10-11T00:04:38.365346Z,0.006104999999999999,-0.364503,0.47776
2018-10-11T00:04:38.560346Z,-0.172881,0.5046729999999999,-0.411812
2018-10-11T00:04:38.757346Z,0.055541,0.8682840000000001,-0.438162
2018-10-11T00:04:38.963346Z,0.26855999999999997,0.14846199999999998,-0.08961799999999999
2018-10-11T00:04:39.158346Z,0.018008,0.190939,0.305737
2018-10-11T00:04:39.365346Z,0.21214299999999997,-0.105718,-0.004082
2018-10-11T00:04:39.567346Z,0.109052,-0.250682,-0.180724
2018-10-11T00:04:39.900346Z,0.477808,0.564278,-0.5136189999999999
2018-10-11T00:04:40.119346Z,0.23853000000000002,0.920177,0.226518
2018-10-11T00:04:40.300346Z,-0.198857,0.351033,-0.297072
2018-10-11T00:04:40.501346Z,0.393671,0.442842,-0.9470940000000001
2018-10-11T00:04:40.709346Z,0.28478400000000004,0.514839,-0.802545
2018-10-11T00:04:40.766346Z,-0.033554,1.138837,0.8212370000000001
2018-10-11T00:04:40.960346Z,0.419159,-0.262652,0.384844
2018-10-11T00:04:41.168346Z,0.22862,0.31114,-0.7721600000000001
2018-10-11T00:04:41.365346Z,0.174431,0.785148,0.914515
2018-10-11T00:04:41.573346Z,-0.738287,-0.9664299999999999,-0.46486700000000003
2018-10-11T00:04:41.775346Z,-0.000193,0.258248,0.041699
2018-10-11T00:04:41.965346Z,0.338377,0.400069,0.24643800000000002
2018-10-11T00:04:42.163346Z,0.143018,-1.127076,-0.223931
2018-10-11T00:04:42.363346Z,0.192354,0.21730100000000002,-0.6187239999999999
2018-10-11T00:04:42.564346Z,-0.013257,0.322013,1.112844
2018-10-11T00:04:42.761346Z,-0.556844,-1.322712,-0.351277
2018-10-11T00:04:42.963346Z,-0.300976,-0.846764,-0.29276399999999997
2018-10-11T00:04:43.172346Z,4.05679,1.824482,0.5613739999999999
2018-10-11T00:04:43.371346Z,0.367473,-1.0877,1.058705
2018-10-11T00:04:43.565346Z,-2.2405,-0.602563,-1.300805
2018-10-11T00:04:43.777346Z,-1.872995,1.530813,0.398925
2018-10-11T00:04:43.963346Z,-0.08024400000000001,-1.067188,1.6475009999999999
2018-10-11T00:04:44.172346Z,0.546737,-1.364103,-0.762504
2018-10-11T00:04:44.372346Z,2.4296,0.293031,0.45957200000000004
2018-10-11T00:04:44.575346Z,0.521278,-0.8411069999999999,-0.751516
2018-10-11T00:04:44.768346Z,0.114455,0.548144,-0.82873
2018-10-11T00:04:44.979346Z,-1.067357,1.265195,0.9569979999999999
2018-10-11T00:04:45.179346Z,-0.691314,-0.865458,0.29934499999999997
2018-10-11T00:04:45.369346Z,0.9166770000000001,-0.41277600000000003,-0.190931
2018-10-11T00:04:45.577346Z,-0.368293,0.6357149999999999,-0.305532
2018-10-11T00:04:45.783346Z,0.115321,0.474127,0.492212
2018-10-11T00:04:45.982346Z,0.105398,-1.117062,0.225329
2018-10-11T00:04:46.168346Z,0.030102999999999998,-0.42521000000000003,0.521576
2018-10-11T00:04:46.369346Z,0.782221,-0.18803499999999998,0.289379
2018-10-11T00:04:46.576346Z,0.093075,-0.7700779999999999,-0.071675
2018-10-11T00:04:46.770346Z,0.21781,0.24844499999999997,0.06833600000000001
2018-10-11T00:04:46.981346Z,0.727083,0.169935,-0.349532
2018-10-11T00:04:47.178346Z,0.636228,-1.237774,0.22839
2018-10-11T00:04:47.378346Z,0.198735,-0.117156,0.19613
2018-10-11T00:04:47.589346Z,0.175543,0.511609,-0.22260100000000002
2018-10-11T00:04:47.769346Z,-0.036547,0.421263,-0.281841
2018-10-11T00:04:47.981346Z,-0.160004,0.33391,-0.229372
2018-10-11T00:04:48.170346Z,-0.253729,0.589121,-0.472624
2018-10-11T00:04:48.380346Z,-0.027549,0.598256,-0.30635300000000004
2018-10-11T00:04:48.584346Z,0.031974,0.293077,-0.436411
2018-10-11T00:04:48.771346Z,-0.11626900000000001,0.19600599999999999,-0.464737
2018-10-11T00:04:48.982346Z,-0.187597,1.197185,-0.123232
2018-10-11T00:04:49.267346Z,-0.078705,1.717034,-0.33807
2018-10-11T00:04:49.454346Z,0.146169,0.788043,0.684607
2018-10-11T00:04:49.654346Z,0.849599,-1.07883,-0.004848
2018-10-11T00:04:49.862346Z,0.529987,-0.033246,-0.9954209999999999
2018-10-11T00:04:49.971346Z,-0.12397899999999999,0.899249,0.156979
2018-10-11T00:04:50.184346Z,-0.194919,-0.333485,-0.245734
2018-10-11T00:04:50.373346Z,0.24275300000000002,0.365679,-0.728924
2018-10-11T00:04:50.587346Z,-0.14615899999999998,0.693457,0.9839950000000001
2018-10-11T00:04:50.785346Z,0.28781100000000004,-0.43258800000000003,-0.351664
2018-10-11T00:04:50.974346Z,0.087223,0.374286,-0.18066400000000002
2018-10-11T00:04:51.181346Z,0.516582,-0.007573000000000001,0.9477459999999999
2018-10-11T00:04:51.375346Z,-0.218858,-1.379912,0.290481
2018-10-11T00:04:51.575346Z,-0.01576,-1.0671760000000001,0.031963
2018-10-11T00:04:51.799346Z,-0.126772,0.030751999999999998,-0.054514
2018-10-11T00:04:51.975346Z,0.834938,-0.21213200000000001,0.6812520000000001
2018-10-11T00:04:52.182346Z,0.215612,-0.722614,-0.031124000000000002
2018-10-11T00:04:52.386346Z,0.517269,-0.060412,0.08367000000000001
2018-10-11T00:04:52.590346Z,0.7737649999999999,0.146704,-0.673022
2018-10-11T00:04:52.793346Z,0.977016,1.6227049999999998,-1.013947
2018-10-11T00:04:52.980346Z,0.103032,1.129959,0.156091
2018-10-11T00:04:53.189346Z,0.634001,-0.44672700000000004,1.7799
2018-10-11T00:04:53.388346Z,-1.043405,-2.2605169999999997,0.5829479999999999
2018-10-11T00:04:53.597346Z,-0.471288,-1.203202,-0.57444
2018-10-11T00:04:53.790346Z,-1.352795,0.511782,0.595448
2018-10-11T00:04:53.980346Z,0.530436,-0.354085,0.5201479999999999
2018-10-11T00:04:54.180346Z,1.4535639999999999,-0.650638,-0.119181
2018-10-11T00:04:54.379346Z,0.714368,-0.729644,0.292132
2018-10-11T00:04:54.580346Z,-0.292214,-0.9534299999999999,0.593788
2018-10-11T00:04:54.782346Z,-0.073581,-0.08571799999999999,0.480216
2018-10-11T00:04:54.981346Z,-0.07205399999999999,-0.495874,0.40012600000000004
2018-10-11T00:04:55.186346Z,-0.145919,-0.207146,0.18996
2018-10-11T00:04:55.391346Z,-0.04444,0.128395,-0.21370999999999998
2018-10-11T00:04:55.590346Z,-0.044456,-0.015193,-0.143377
2018-10-11T00:04:55.799346Z,-1.047968,-0.065336,-0.201374
2018-10-11T00:04:55.982346Z,-0.5887020000000001,0.8523069999999999,-0.669246
2018-10-11T00:04:56.182346Z,-0.892999,0.9044030000000001,-0.46420200000000006
2018-10-11T00:04:56.431346Z,-0.327466,0.831018,0.9742620000000001
2018-10-11T00:04:56.627346Z,0.311278,-0.853283,0.20009000000000002
2018-10-11T00:04:56.831346Z,0.846173,-0.532751,-0.43981400000000004
2018-10-11T00:04:57.041346Z,0.860633,1.072994,-0.603957
2018-10-11T00:04:57.197346Z,0.240046,1.100481,0.015946000000000002
2018-10-11T00:04:57.386346Z,0.30354200000000003,-1.029375,1.72888
2018-10-11T00:04:57.600346Z,-0.134106,-1.70235,-0.251786
2018-10-11T00:04:57.787346Z,-0.737714,0.407568,-0.619736
2018-10-11T00:04:57.994346Z,0.135026,0.158226,0.8675719999999999
2018-10-11T00:04:58.185346Z,0.667665,-0.7993100000000001,0.176049
2018-10-11T00:04:58.385346Z,0.557033,-0.366952,0.530281
2018-10-11T00:04:58.588346Z,0.423055,-0.5117189999999999,0.012163
2018-10-11T00:04:58.799346Z,0.025666,0.094678,-0.10755999999999999
2018-10-11T00:04:58.988346Z,0.002447,0.154875,0.300789
2018-10-11T00:04:59.188346Z,0.06573899999999999,-0.057947000000000005,0.08147
2018-10-11T00:04:59.404346Z,-0.401518,0.099617,-0.3124
2018-10-11T00:04:59.593346Z,-0.553817,0.290985,-0.061309
2018-10-11T00:04:59.797346Z,-0.5188560000000001,-0.040569,0.337708
2018-10-11T00:04:59.990346Z,-0.537312,0.324042,-0.47763199999999995
2018-10-11T00:05:00.207346Z,-0.8626719999999999,0.26268400000000003,-0.835874
2018-10-11T00:05:00.400346Z,0.221629,0.789724,0.6379130000000001
2018-10-11T00:05:00.604346Z,0.699713,-0.25649,-0.427996
2018-10-11T00:05:00.834346Z,0.431145,0.367491,-0.32829200000000003
2018-10-11T00:05:01.000346Z,1.227407,0.249401,-0.43580699999999994
2018-10-11T00:05:01.206346Z,0.862751,1.05267,0.015884
2018-10-11T00:05:01.399346Z,-0.478654,-1.391276,2.277418
2018-10-11T00:05:01.600346Z,0.556571,-1.150212,0.681229
2018-10-11T00:05:01.792346Z,0.421212,-0.7318479999999999,0.68015
2018-10-11T00:05:01.990346Z,-0.22669,-0.456844,-0.44260900000000003
2018-10-11T00:05:02.194346Z,-0.327727,0.631433,-0.19104000000000002
2018-10-11T00:05:02.405346Z,-0.335071,0.589705,-0.089264
2018-10-11T00:05:02.604346Z,0.12967599999999999,0.27869299999999997,-0.22694499999999998
2018-10-11T00:05:02.809346Z,0.0111,0.389006,-0.546354
2018-10-11T00:05:02.992346Z,0.6640739999999999,0.49463900000000005,-0.9826889999999999
2018-10-11T00:05:03.375346Z,-0.6475770000000001,0.729262,0.274352
2018-10-11T00:05:03.393346Z,-0.5357,0.835333,0.174515
2018-10-11T00:05:03.605346Z,-0.6867810000000001,-0.460642,0.31230399999999997
2018-10-11T00:05:03.794346Z,0.657037,-0.043852999999999996,-0.745008
2018-10-11T00:05:03.993346Z,0.102214,0.583299,1.05577
2018-10-11T00:05:04.209346Z,0.273394,-0.549452,-0.46906099999999995
2018-10-11T00:05:04.395346Z,0.422975,0.031327,-0.224442
2018-10-11T00:05:04.597346Z,-0.123055,-0.896774,0.511972
2018-10-11T00:05:04.806346Z,0.06449099999999999,-0.794994,-0.159816
2018-10-11T00:05:04.997346Z,0.406175,0.448125,0.38050300000000004
2018-10-11T00:05:05.210346Z,0.578176,0.285573,0.72543
2018-10-11T00:05:05.399346Z,0.13558599999999998,-0.646722,-0.32259699999999997
2018-10-11T00:05:05.597346Z,0.577433,0.14902,0.546296
2018-10-11T00:05:05.796346Z,0.02905,-0.12973800000000002,0.881452
2018-10-11T00:05:05.997346Z,0.43974399999999997,-2.122962,0.959342
2018-10-11T00:05:06.209346Z,-0.46468000000000004,0.313204,-0.016061000000000002
2018-10-11T00:05:06.399346Z,0.09914099999999999,-0.23393000000000003,-0.002951
2018-10-11T00:05:06.605346Z,-0.138728,-0.184166,-0.11721400000000001
2018-10-11T00:05:06.801346Z,0.067399,0.43637200000000004,0.018331
2018-10-11T00:05:07.009346Z,-0.319849,0.11536199999999999,-0.082478
2018-10-11T00:05:07.200346Z,0.619533,-0.2758,-0.111251
2018-10-11T00:05:07.419346Z,-0.08257,0.5166270000000001,-0.215042
2018-10-11T00:05:07.608346Z,0.667117,0.42551000000000005,0.383307
2018-10-11T00:05:07.799346Z,0.45527399999999996,0.156506,-0.9443030000000001
2018-10-11T00:05:08.000346Z,-0.368651,-0.235702,0.23043400000000003
2018-10-11T00:05:08.200346Z,-0.881308,-0.22698800000000002,-0.020368
2018-10-11T00:05:08.400346Z,0.620347,0.44641400000000003,0.373631
2018-10-11T00:05:08.614346Z,1.042619,-0.139706,0.9023459999999999
2018-10-11T00:05:08.815346Z,0.410344,-0.844852,-1.547776
2018-10-11T00:05:09.062346Z,-0.020188,0.78666,0.479649
2018-10-11T00:05:09.203346Z,0.083326,0.190745,1.096983
2018-10-11T00:05:09.415346Z,-0.710555,-1.3264200000000002,-0.394104
2018-10-11T00:05:09.603346Z,-0.178465,-0.665565,-0.031275
2018-10-11T00:05:09.806346Z,0.366735,-0.44031400000000004,0.032928
2018-10-11T00:05:10.002346Z,0.28430900000000003,0.5541119999999999,0.37217
2018-10-11T00:05:10.202346Z,0.090403,-0.665921,1.9238549999999999
2018-10-11T00:05:10.406346Z,-0.682453,-0.41768,-0.56421
2018-10-11T00:05:10.607346Z,0.393493,-0.568289,-0.25008
2018-10-11T00:05:10.815346Z,0.577181,0.45032700000000003,-0.5794729999999999
2018-10-11T00:05:11.011346Z,0.345657,1.075179,-0.468455
2018-10-11T00:05:11.206346Z,0.42221099999999995,0.555561,-0.474217
2018-10-11T00:05:11.418346Z,0.43587299999999995,0.5171819999999999,0.362583
2018-10-11T00:05:11.608346Z,-0.645552,-0.601978,-0.198425
2018-10-11T00:05:11.816346Z,-0.36283200000000004,0.255754,-0.09102400000000001
2018-10-11T00:05:12.015346Z,-0.605096,0.891698,0.07984400000000001
2018-10-11T00:05:12.220346Z,0.201571,-0.76075,0.572171
2018-10-11T00:05:12.421346Z,0.865871,-0.708785,-0.7189840000000001
2018-10-11T00:05:12.615346Z,0.716857,0.917365,-0.55335
2018-10-11T00:05:12.810346Z,0.025689999999999998,1.322258,1.2310709999999998
2018-10-11T00:05:13.008346Z,-0.8455540000000001,-1.9084900000000002,0.255137
2018-10-11T00:05:13.221346Z,-0.41563500000000003,-1.183351,0.188066
2018-10-11T00:05:13.410346Z,-0.265212,0.029758,0.09284400000000001
2018-10-11T00:05:13.611346Z,-0.030715,-0.225554,0.978657
2018-10-11T00:05:13.825346Z,-0.168454,-0.86145,0.25584
2018-10-11T00:05:14.020346Z,-0.654767,-0.25001799999999996,-0.312264
2018-10-11T00:05:14.209346Z,-0.199723,-0.592912,0.3011
2018-10-11T00:05:14.409346Z,-0.274742,-0.5862970000000001,0.239188
2018-10-11T00:05:14.609346Z,0.477991,0.23076999999999998,0.198961
2018-10-11T00:05:14.809346Z,0.845368,-0.153031,0.601964
2018-10-11T00:05:15.014346Z,0.374417,-0.232337,-0.121959
2018-10-11T00:05:15.358346Z,0.501336,0.07512,-0.048415
2018-10-11T00:05:15.561346Z,-0.032062,0.107905,-0.098254
2018-10-11T00:05:15.753346Z,-0.090895,-0.44710600000000006,-0.060597000000000005
2018-10-11T00:05:15.960346Z,0.190849,0.279953,0.210509
2018-10-11T00:05:16.163346Z,0.383213,0.660836,-1.0746719999999998
2018-10-11T00:05:16.357346Z,0.691525,1.816959,-1.264681
2018-10-11T00:05:16.562346Z,0.127879,1.838655,-0.254533
2018-10-11T00:05:16.614346Z,-0.36287800000000003,-0.8134100000000001,0.871833
2018-10-11T00:05:16.822346Z,0.5161399999999999,0.198761,-1.270506
2018-10-11T00:05:17.017346Z,0.543974,0.772651,0.40729899999999997
2018-10-11T00:05:17.214346Z,0.942092,-0.712646,1.08514
2018-10-11T00:05:17.413346Z,0.135492,0.284384,-1.7049860000000001
2018-10-11T00:05:17.630346Z,-0.8184560000000001,1.0658219999999998,1.361847
2018-10-11T00:05:17.815346Z,-0.240197,-1.803993,0.6084729999999999
2018-10-11T00:05:18.028346Z,0.072828,-0.621583,-0.610314
2018-10-11T00:05:18.225346Z,0.19492400000000001,0.477666,0.178208
2018-10-11T00:05:18.415346Z,0.969915,-0.970985,1.8960259999999998
2018-10-11T00:05:18.618346Z,0.396586,-1.218256,-0.018414
2018-10-11T00:05:18.829346Z,0.266721,0.971706,-0.24811599999999998
2018-10-11T00:05:19.026346Z,0.63518,0.024555,-0.163099
2018-10-11T00:05:19.227346Z,0.461244,-0.003,-0.41493100000000005
2018-10-11T00:05:19.415346Z,1.309268,1.394387,-0.336086
2018-10-11T00:05:19.627346Z,0.097605,0.870576,0.745329
2018-10-11T00:05:19.818346Z,-0.564038,-0.588592,-1.004132
2018-10-11T00:05:20.031346Z,-0.095203,-0.200008,0.03307
2018-10-11T00:05:20.228346Z,0.695703,-0.32607800000000003,1.458009
2018-10-11T00:05:20.433346Z,0.454657,-0.417023,-0.683347
2018-10-11T00:05:20.631346Z,0.083267,-0.207508,0.060114
2018-10-11T00:05:20.845346Z,-0.352806,-1.183274,1.5854270000000001
2018-10-11T00:05:21.020346Z,-0.32660900000000004,-0.467596,-0.006469
2018-10-11T00:05:21.219346Z,0.202223,0.063694,0.120028
2018-10-11T00:05:21.420346Z,0.375781,-0.14290799999999998,-0.407068
2018-10-11T00:05:21.619346Z,0.09817200000000001,0.045024,0.094524
2018-10-11T00:05:21.823346Z,0.6159939999999999,0.709371,-0.720996
2018-10-11T00:05:22.028346Z,1.096926,2.066861,-0.6856439999999999
2018-10-11T00:05:22.233346Z,0.196098,1.1292719999999998,0.6063890000000001
2018-10-11T00:05:22.435346Z,-0.74131,-1.271685,0.5840890000000001
2018-10-11T00:05:22.623346Z,-0.182113,-1.274117,-0.894302
2018-10-11T00:05:22.824346Z,0.279686,1.057408,0.491914
2018-10-11T00:05:23.022346Z,0.072753,-0.579389,0.547038
2018-10-11T00:05:23.237346Z,0.15673,-0.512139,-0.7329640000000001
2018-10-11T00:05:23.435346Z,0.195442,0.048938,0.589368
2018-10-11T00:05:23.623346Z,-0.9433159999999999,-0.6444310000000001,1.108658
2018-10-11T00:05:23.824346Z,-0.562596,-1.5846870000000002,-0.148804
2018-10-11T00:05:24.023346Z,-0.318752,0.352806,0.34925700000000004
2018-10-11T00:05:24.247346Z,-0.5842649999999999,-0.431129,0.402723
2018-10-11T00:05:24.433346Z,-0.831094,-0.9323290000000001,0.963066
2018-10-11T00:05:24.624346Z,0.070546,-0.7675850000000001,0.569021
2018-10-11T00:05:24.824346Z,0.053515,-0.656065,0.12154300000000001
2018-10-11T00:05:25.025346Z,0.389891,0.512528,-0.527224
2018-10-11T00:05:25.224346Z,0.7352989999999999,0.800395,-0.640145
2018-10-11T00:05:25.424346Z,0.692792,1.6348280000000002,-1.059267
2018-10-11T00:05:25.637346Z,-0.117829,0.977374,0.284511
2018-10-11T00:05:25.828346Z,-1.236246,-0.7817810000000001,0.257157
2018-10-11T00:05:26.026346Z,0.082371,-0.225052,-0.267669
2018-10-11T00:05:26.242346Z,0.15926700000000002,0.070774,0.9706469999999999
2018-10-11T00:05:26.426346Z,-0.6621670000000001,-0.728902,-0.281184
2018-10-11T00:05:26.628346Z,-0.073912,-0.472314,0.341645
2018-10-11T00:05:26.828346Z,-0.423799,-0.741992,1.152126
2018-10-11T00:05:27.039346Z,-0.950247,-0.038801,-0.612312
2018-10-11T00:05:27.227346Z,0.250523,-0.46278400000000003,0.48639799999999994
2018-10-11T00:05:27.429346Z,-0.037945,0.47003100000000003,-0.522998
2018-10-11T00:05:27.639346Z,0.17897000000000002,0.384858,-0.295221
2018-10-11T00:05:27.839346Z,-0.065933,0.42487600000000003,-0.440942
2018-10-11T00:05:28.039346Z,-0.132401,0.741326,-0.585691
2018-10-11T00:05:28.228346Z,-0.268675,0.8246110000000001,-0.634483
2018-10-11T00:05:28.439346Z,-0.038818,0.928133,-0.258698
2018-10-11T00:05:28.724346Z,0.327465,0.033368,1.059118
2018-10-11T00:05:28.836346Z,0.6650510000000001,-0.77145,-0.054359000000000005
2018-10-11T00:05:29.030346Z,0.829147,-0.24194699999999997,0.082969
2018-10-11T00:05:29.230346Z,0.45451400000000003,-0.200988,0.558747
2018-10-11T00:05:29.430346Z,0.629679,0.10122,-0.327411
2018-10-11T00:05:29.641346Z,1.010058,0.886523,-0.519139
2018-10-11T00:05:29.845346Z,-0.321266,0.271625,-1.229654
2018-10-11T00:05:30.044346Z,-0.7651979999999999,0.173628,0.402013
2018-10-11T00:05:30.241346Z,-0.24449200000000001,0.9221530000000001,0.450809
2018-10-11T00:05:30.446346Z,0.556922,-0.63274,1.453317
2018-10-11T00:05:30.634346Z,0.695889,-1.424413,-0.65252
2018-10-11T00:05:30.848346Z,0.7400939999999999,-0.125355,-0.586159
2018-10-11T00:05:31.034346Z,-0.59849,0.36867,1.8805169999999998
2018-10-11T00:05:31.231346Z,-1.933275,-0.884064,-0.817822
2018-10-11T00:05:31.445346Z,-0.249088,-0.863784,0.790281
2018-10-11T00:05:31.635346Z,-0.20955500000000002,0.32234,-0.9870190000000001
2018-10-11T00:05:31.834346Z,-0.096477,0.799258,0.07537100000000001
2018-10-11T00:05:32.034346Z,-0.38722,0.655138,-0.849648
2018-10-11T00:05:32.242346Z,-0.031778,1.8818119999999998,-0.592236
2018-10-11T00:05:32.448346Z,0.36933699999999997,1.028016,0.625736
2018-10-11T00:05:32.638346Z,0.761282,-1.239357,-0.366568
2018-10-11T00:05:32.850346Z,0.615464,0.211914,-0.32269699999999996
2018-10-11T00:05:33.038346Z,0.072506,0.6548,1.3827459999999998
2018-10-11T00:05:33.256346Z,-0.549513,-1.242612,-0.47808599999999996
2018-10-11T00:05:33.437346Z,0.386114,-0.247256,-0.689609
2018-10-11T00:05:33.645346Z,0.539551,0.6641520000000001,1.510707
2018-10-11T00:05:33.839346Z,-0.167216,-1.065815,-0.562813
2018-10-11T00:05:34.053346Z,0.18859800000000002,-0.027739999999999997,-0.530331
2018-10-11T00:05:34.250346Z,-0.07484099999999999,1.84707,-0.381644
2018-10-11T00:05:34.451346Z,-0.557001,-0.470026,0.11492000000000001
2018-10-11T00:05:34.639346Z,-0.206571,-0.261848,-0.199041
2018-10-11T00:05:34.838346Z,0.473822,0.44456599999999996,0.9118620000000001
2018-10-11T00:05:35.040346Z,0.8274889999999999,-0.753993,-0.113622
2018-10-11T00:05:35.250346Z,0.490504,0.173083,-0.572998
2018-10-11T00:05:35.442346Z,-0.22960300000000003,0.339086,0.7964100000000001
2018-10-11T00:05:35.641346Z,-0.260748,-0.88089,0.104674
2018-10-11T00:05:35.840346Z,0.136999,0.447887,-0.997777
2018-10-11T00:05:36.041346Z,0.212873,0.992818,0.701674
2018-10-11T00:05:36.240346Z,-0.249406,-0.765324,-0.472207
2018-10-11T00:05:36.442346Z,0.114674,0.492277,-0.53374
2018-10-11T00:05:36.649346Z,-0.817321,1.2420719999999998,1.073417
2018-10-11T00:05:36.851346Z,-0.557815,-2.013493,-0.24732300000000002
2018-10-11T00:05:37.052346Z,0.407308,0.011622,-0.5673819999999999
2018-10-11T00:05:37.258346Z,-0.090335,1.097143,0.9363030000000001
2018-10-11T00:05:37.445346Z,0.21380500000000002,-1.0191290000000002,-0.10405299999999999
2018-10-11T00:05:37.643346Z,0.21111300000000002,0.29562,-0.301095
2018-10-11T00:05:37.842346Z,-0.648473,0.640304,0.374474
2018-10-11T00:05:38.043346Z,-1.095832,-0.691279,-0.510365
2018-10-11T00:05:38.250346Z,-0.32519499999999996,0.17744200000000002,-0.581499
2018-10-11T00:05:38.444346Z,0.036382,0.259854,1.244593
2018-10-11T00:05:38.647346Z,-0.143098,-1.089405,-0.296113
2018-10-11T00:05:38.847346Z,-0.363095,0.103059,-0.580346
2018-10-11T00:05:39.044346Z,-1.798184,1.361804,0.410703
2018-10-11T00:05:39.246346Z,-1.144635,-1.559217,0.42075100000000004
2018-10-11T00:05:39.459346Z,-0.503463,-1.1833420000000001,0.20005699999999998
2018-10-11T00:05:39.648346Z,0.265831,-1.350942,1.327493
2018-10-11T00:05:39.862346Z,-1.260397,0.6185510000000001,-0.381344
2018-10-11T00:05:40.047346Z,2.4172740000000004,-0.431705,1.024468
2018-10-11T00:05:40.258346Z,0.019599000000000002,-0.167897,-0.492645
2018-10-11T00:05:40.448346Z,1.005162,-0.010731000000000001,-0.35694899999999996
2018-10-11T00:05:40.659346Z,0.563996,-0.097077,0.24593099999999998
2018-10-11T00:05:40.859346Z,-0.016848,-0.113516,0.184659
2018-10-11T00:05:41.047346Z,0.616527,-0.189528,-0.010499
2018-10-11T00:05:41.247346Z,0.571152,0.6762640000000001,-0.5343060000000001
2018-10-11T00:05:41.459346Z,-0.17011700000000002,0.1595,-0.016886
2018-10-11T00:05:41.647346Z,0.077071,0.144275,0.173097
2018-10-11T00:05:41.857346Z,0.143208,0.289022,-0.159026
2018-10-11T00:05:42.055346Z,0.092375,0.37869400000000003,-0.297944
2018-10-11T00:05:42.332346Z,0.321335,0.701368,-1.0202209999999998
2018-10-11T00:05:42.531346Z,0.656241,1.765132,-0.504613
2018-10-11T00:05:42.735346Z,1.014573,1.481178,-0.310562
2018-10-11T00:05:42.848346Z,-0.930235,-0.145448,0.038627999999999996
2018-10-11T00:05:43.050346Z,0.13406500000000002,-0.44719,-0.281722
2018-10-11T00:05:43.250346Z,0.32685,1.127951,-0.260337
2018-10-11T00:05:43.455346Z,0.318567,-0.505717,0.8399719999999999
2018-10-11T00:05:43.650346Z,0.5532739999999999,-0.151114,-1.209648
2018-10-11T00:05:43.867346Z,0.42153500000000005,0.9852989999999999,0.8801190000000001
2018-10-11T00:05:44.061346Z,-0.255569,-1.436721,0.125249
2018-10-11T00:05:44.262346Z,0.7580520000000001,-0.6585409999999999,0.021811
2018-10-11T00:05:44.468346Z,0.75576,-0.089156,0.8780870000000001
2018-10-11T00:05:44.672346Z,0.08326900000000001,-0.128276,-0.00349
2018-10-11T00:05:44.851346Z,0.371658,0.618704,0.21222399999999997
2018-10-11T00:05:45.054346Z,0.407996,0.110956,0.64071
2018-10-11T00:05:45.269346Z,0.236553,-1.460536,0.26516999999999996
2018-10-11T00:05:45.452346Z,0.430829,-0.598694,0.34626799999999996
2018-10-11T00:05:45.665346Z,0.09756799999999999,-0.584804,0.962932
2018-10-11T00:05:45.853346Z,0.789462,-0.148551,0.42403500000000005
2018-10-11T00:05:46.053346Z,-0.23671399999999998,0.20352699999999999,0.885761
2018-10-11T00:05:46.258346Z,0.7151649999999999,-1.9309619999999998,-0.09210399999999999
2018-10-11T00:05:46.460346Z,0.83167,0.385151,1.290175
2018-10-11T00:05:46.655346Z,0.280034,-0.514367,-1.872581
2018-10-11T00:05:46.855346Z,-0.6278,0.789676,0.44242299999999996
2018-10-11T00:05:47.061346Z,-2.3832139999999997,1.5094459999999998,-1.237631
2018-10-11T00:05:47.263346Z,-1.1028950000000002,1.4778870000000002,-0.253965
2018-10-11T00:05:47.470346Z,-1.466314,0.5075810000000001,-0.375558
2018-10-11T00:05:47.657346Z,-1.120403,1.457109,-0.44638199999999995
2018-10-11T00:05:47.868346Z,0.180882,0.401269,1.6280649999999999
2018-10-11T00:05:48.068346Z,1.249558,-2.328817,0.458775
2018-10-11T00:05:48.256346Z,0.38135399999999997,-0.662105,-0.9154129999999999
2018-10-11T00:05:48.458346Z,1.703372,1.405657,-0.406478
2018-10-11T00:05:48.665346Z,-0.235603,-0.643741,0.680177
2018-10-11T00:05:48.858346Z,-0.9309459999999999,-1.217878,0.689611
2018-10-11T00:05:49.074346Z,0.8207690000000001,-0.9180950000000001,0.445162
2018-10-11T00:05:49.259346Z,0.623908,-0.00949,0.08126599999999999
2018-10-11T00:05:49.461346Z,-0.177627,-0.15149400000000002,0.51675
2018-10-11T00:05:49.669346Z,0.163949,-0.103433,0.074563
2018-10-11T00:05:49.858346Z,-0.106717,1.049277,-0.204549
2018-10-11T00:05:50.059346Z,-0.11772200000000001,-0.127779,-0.229845
2018-10-11T00:05:50.258346Z,-0.897444,0.52223,-0.457426
2018-10-11T00:05:50.460346Z,-0.173343,0.525349,-0.380241
2018-10-11T00:05:50.674346Z,-0.557925,0.997418,-0.086963
2018-10-11T00:05:50.873346Z,-0.6268199999999999,-0.862231,0.391979
2018-10-11T00:05:51.069346Z,-0.467213,-0.025459,-1.269768
2018-10-11T00:05:51.260346Z,-0.252234,1.517231,0.724121
2018-10-11T00:05:51.473346Z,-0.241396,-0.66035,0.118495
2018-10-11T00:05:51.671346Z,0.051023,-0.549244,0.33876799999999996
2018-10-11T00:05:51.868346Z,0.425472,-0.106077,-0.014901
2018-10-11T00:05:52.064346Z,-0.087113,0.03709,1.099954
2018-10-11T00:05:52.274346Z,-0.391911,-1.4010120000000001,-0.394371
2018-10-11T00:05:52.463346Z,-0.42287700000000006,0.40694600000000003,-0.44421099999999997
2018-10-11T00:05:52.663346Z,-0.149923,1.142802,-0.839994
2018-10-11T00:05:52.866346Z,0.087312,-0.10906400000000001,0.7445039999999999
2018-10-11T00:05:53.065346Z,0.26324699999999995,-0.24409499999999998,-0.48766800000000005
2018-10-11T00:05:53.277346Z,0.159135,0.7641819999999999,0.51757
2018-10-11T00:05:53.466346Z,-0.054198,-0.03058,0.814466
2018-10-11T00:05:53.668346Z,-0.226399,-1.633057,0.042703
2018-10-11T00:05:53.879346Z,0.037504,-0.019956,-0.511301
2018-10-11T00:05:54.065346Z,-0.160492,1.172143,0.18698399999999998
2018-10-11T00:05:54.293346Z,-0.107759,-0.91486,0.670218
2018-10-11T00:05:54.480346Z,0.031622000000000004,-0.557669,-0.370223
2018-10-11T00:05:54.666346Z,0.46082799999999996,0.199626,0.083411
2018-10-11T00:05:54.869346Z,-0.487321,-0.031476,0.9687680000000001
2018-10-11T00:05:55.068346Z,-0.725681,-2.011982,0.8884780000000001
2018-10-11T00:05:55.271346Z,-0.242596,-1.8399830000000001,0.7292350000000001
2018-10-11T00:05:55.479346Z,-0.10413599999999999,-0.19861600000000001,0.778786
2018-10-11T00:05:55.676346Z,0.334956,1.7788220000000001,-0.717791
2018-10-11T00:05:55.868346Z,0.19071400000000002,0.770624,-0.217453
2018-10-11T00:05:56.075346Z,0.18976500000000002,0.38956599999999997,-0.52858
2018-10-11T00:05:56.269346Z,0.690094,-0.11066500000000001,-0.114594
2018-10-11T00:05:56.475346Z,-0.169717,0.212008,-0.005577
2018-10-11T00:05:56.671346Z,-0.330113,0.061522,-0.5551520000000001
2018-10-11T00:05:56.876346Z,0.139356,0.0889,0.177049
2018-10-11T00:05:57.082346Z,-0.087315,0.085754,-0.09592200000000001
2018-10-11T00:05:57.284346Z,0.31043699999999996,0.242983,0.091239
2018-10-11T00:05:57.471346Z,0.107299,0.147587,-0.325359
2018-10-11T00:05:57.683346Z,0.072275,0.41044899999999995,-0.16394
2018-10-11T00:05:57.876346Z,-0.189875,0.508791,-0.6856909999999999
2018-10-11T00:05:58.069346Z,-0.052565,1.1182370000000001,-0.9315100000000001
2018-10-11T00:05:58.272346Z,0.737274,0.875775,-0.930528
2018-10-11T00:05:58.487346Z,0.08566499999999999,1.554891,-0.952284
2018-10-11T00:05:58.689346Z,-0.697477,0.864135,1.088228
2018-10-11T00:05:58.874346Z,-1.2081629999999999,-0.7980729999999999,0.257833
2018-10-11T00:05:59.074346Z,0.17372100000000001,-0.862158,0.020235
2018-10-11T00:05:59.274346Z,0.05909299999999999,0.406577,-0.196123
2018-10-11T00:05:59.484346Z,0.350936,-1.0369540000000002,0.95455
2018-10-11T00:05:59.678346Z,-0.310844,-0.29936599999999997,-0.518525
2018-10-11T00:05:59.874346Z,-0.341698,0.273077,-0.13563499999999998
2018-10-11T00:06:00.081346Z,-1.378916,-0.416267,0.722237
2018-10-11T00:06:00.275346Z,-0.909014,-1.2464389999999999,0.416971
2018-10-11T00:06:00.485346Z,-0.220583,0.324004,-0.18073699999999998
2018-10-11T00:06:00.675346Z,-0.529497,0.907716,-0.912048
2018-10-11T00:06:00.881346Z,-0.594263,1.055999,-0.41058199999999995
2018-10-11T00:06:01.081346Z,-0.265586,1.3646,0.549972
2018-10-11T00:06:01.289346Z,0.442742,-1.558359,0.385108
2018-10-11T00:06:01.489346Z,0.14802,-0.32200100000000004,-0.769199
2018-10-11T00:06:01.689346Z,-0.105823,0.988834,0.798151
2018-10-11T00:06:01.888346Z,-0.349551,-1.061774,0.225723
2018-10-11T00:06:02.100346Z,0.19053399999999998,-0.486625,-0.018139
