Datetime,accx,accy,accz
2018-11-01T19:49:53.444306Z,3.169006,0.725037,7.043152
2018-11-01T19:49:53.645306Z,-1.48999,3.2296139999999998,-0.222046
2018-11-01T19:49:53.851306Z,-0.268005,-0.49536099999999994,-0.9530639999999999
2018-11-01T19:49:54.044306Z,1.2295530000000001,-1.6825560000000002,1.751343
2018-11-01T19:49:54.245306Z,2.413818,-2.1190189999999998,-0.521729
2018-11-01T19:49:54.444306Z,0.6990970000000001,-1.3528440000000002,1.6968990000000002
2018-11-01T19:49:54.644306Z,0.726562,-0.675354,2.617065
2018-11-01T19:49:54.844306Z,-0.355225,-2.527771,0.8839110000000001
2018-11-01T19:49:55.052306Z,0.8860469999999999,-0.396423,0.129333
2018-11-01T19:49:55.247306Z,1.589844,-1.164856,1.3428959999999999
2018-11-01T19:49:55.445306Z,1.78833,-1.916565,0.871765
2018-11-01T19:49:55.645306Z,1.6573490000000002,-0.596802,0.096741
2018-11-01T19:49:55.845306Z,0.10516400000000001,-0.161682,1.6885990000000002
2018-11-01T19:49:56.045306Z,-0.5157470000000001,-2.320007,-0.677185
2018-11-01T19:49:56.245306Z,1.525391,-0.98645,1.25824
2018-11-01T19:49:56.445306Z,1.421509,-1.814209,1.19928
2018-11-01T19:49:56.656306Z,1.215088,-0.8305049999999999,2.172302
2018-11-01T19:49:56.848306Z,0.600586,-1.386963,1.734009
2018-11-01T19:49:57.045306Z,0.21270799999999998,-2.3432619999999997,-0.392151
2018-11-01T19:49:57.244306Z,0.04895,-0.707214,1.362549
2018-11-01T19:49:57.445306Z,0.848633,-1.7780759999999998,0.9932860000000001
2018-11-01T19:49:57.644306Z,0.6762699999999999,-0.189636,-1.072449
2018-11-01T19:49:57.844306Z,-0.6130369999999999,-0.443787,1.7844240000000002
2018-11-01T19:49:58.045306Z,-0.345825,-2.644043,0.153442
2018-11-01T19:49:58.244306Z,0.10583499999999998,-1.170715,-0.245667
2018-11-01T19:49:58.445306Z,1.811035,-1.560425,2.757446
2018-11-01T19:49:58.644306Z,0.848816,-0.887085,-1.4552610000000001
2018-11-01T19:49:58.844306Z,-0.8867799999999999,-0.15466300000000002,1.002502
2018-11-01T19:49:59.061306Z,-0.06518600000000001,-1.496094,-0.397156
2018-11-01T19:49:59.256306Z,0.7816770000000001,-1.189209,-1.056885
2018-11-01T19:49:59.455306Z,1.158508,-1.930237,2.485229
2018-11-01T19:49:59.644306Z,-0.659119,-0.527283,-0.543762
2018-11-01T19:49:59.845306Z,-1.438416,-0.511169,2.006104
2018-11-01T19:50:00.044306Z,-1.109375,-2.6400759999999996,0.6577149999999999
2018-11-01T19:50:00.319306Z,-1.368774,-1.985596,0.5778810000000001
2018-11-01T19:50:00.444306Z,-0.802979,-1.6669919999999998,-0.260498
2018-11-01T19:50:00.644306Z,-2.087158,-1.3430790000000001,0.44891400000000004
2018-11-01T19:50:00.845306Z,-3.794739,-0.671936,0.8596799999999999
2018-11-01T19:50:01.044306Z,-3.341248,-1.8375849999999998,2.673584
2018-11-01T19:50:01.245306Z,-1.323975,0.215515,-0.379272
2018-11-01T19:50:01.444306Z,-2.7074580000000004,-1.0035399999999999,1.392944
2018-11-01T19:50:01.644306Z,-2.801392,-0.129578,-1.40564
2018-11-01T19:50:01.866306Z,-3.498535,-0.559265,-0.390137
2018-11-01T19:50:02.044306Z,-4.062805,0.528076,-0.784424
2018-11-01T19:50:02.245306Z,-5.914612,-1.084717,1.012512
2018-11-01T19:50:02.446306Z,-4.698119999999999,0.9293819999999999,0.5348510000000001
2018-11-01T19:50:02.645306Z,-2.389709,2.430847,0.217102
2018-11-01T19:50:02.845306Z,-0.212036,2.2661130000000003,-1.010681
2018-11-01T19:50:03.044306Z,-1.2456049999999999,1.492249,-1.644714
2018-11-01T19:50:03.244306Z,-1.858459,3.053467,-1.087708
2018-11-01T19:50:03.449306Z,-1.934021,2.0592650000000003,-0.382141
2018-11-01T19:50:03.678306Z,-2.2543330000000004,1.9151,-1.3502809999999998
2018-11-01T19:50:03.856306Z,-1.384644,1.7922360000000002,-1.264343
2018-11-01T19:50:04.050306Z,-1.670837,1.94281,2.307129
2018-11-01T19:50:04.250306Z,-3.3096919999999996,1.871582,-1.842285
2018-11-01T19:50:04.444306Z,-0.298279,2.3942259999999997,-0.22888200000000003
2018-11-01T19:50:04.645306Z,-1.4193120000000001,1.433533,-1.0878299999999999
2018-11-01T19:50:04.845306Z,0.888489,3.276733,0.619812
2018-11-01T19:50:05.044306Z,-0.106445,2.453186,-2.0915529999999998
2018-11-01T19:50:05.244306Z,-1.8370970000000002,2.216614,-2.3684689999999997
2018-11-01T19:50:05.444306Z,-2.7328490000000003,3.49884,-1.23175
2018-11-01T19:50:05.644306Z,-1.039185,2.851746,-0.715942
2018-11-01T19:50:05.844306Z,-1.201904,2.508667,1.02301
2018-11-01T19:50:06.044306Z,-1.935791,3.046265,-1.656189
2018-11-01T19:50:06.245306Z,-2.390625,2.9772950000000002,1.288086
2018-11-01T19:50:06.445306Z,-1.306946,0.64093,-1.716309
2018-11-01T19:50:06.884306Z,-1.307739,1.081238,-1.396423
2018-11-01T19:50:07.048306Z,-0.894043,0.8289790000000001,0.739807
2018-11-01T19:50:07.245306Z,-3.9010620000000005,-0.520935,2.431641
2018-11-01T19:50:07.446306Z,-1.1790770000000002,-0.44659399999999994,-0.089111
2018-11-01T19:50:07.644306Z,-3.014343,1.455933,0.165466
2018-11-01T19:50:07.846306Z,-2.112244,1.261475,-0.499329
2018-11-01T19:50:08.043306Z,-0.874451,-1.729126,-0.637634
2018-11-01T19:50:08.244306Z,-2.956055,-1.825867,-0.126282
2018-11-01T19:50:08.444306Z,-2.747375,-0.6507569999999999,0.773804
2018-11-01T19:50:08.644306Z,-2.319397,0.21814,0.014403999999999998
2018-11-01T19:50:08.844306Z,-0.079712,-2.121643,0.498108
2018-11-01T19:50:09.044306Z,0.694397,-1.500122,-0.215881
2018-11-01T19:50:09.244306Z,1.7813720000000002,-0.8031010000000001,0.8585209999999999
2018-11-01T19:50:09.444306Z,0.432068,0.311523,-0.110474
2018-11-01T19:50:09.646306Z,0.983276,0.614746,-0.143677
2018-11-01T19:50:09.846306Z,-0.006287,-1.2056879999999999,1.031067
2018-11-01T19:50:10.082306Z,-0.097107,-0.8235469999999999,-1.526672
2018-11-01T19:50:10.244306Z,-0.547913,0.357117,0.622559
2018-11-01T19:50:10.445306Z,0.670593,-0.9788819999999999,3.12439
2018-11-01T19:50:10.644306Z,1.115723,-0.46203599999999995,-1.8720700000000001
2018-11-01T19:50:10.846306Z,-0.45013400000000003,0.523804,0.733582
2018-11-01T19:50:11.053306Z,0.233704,-0.19958499999999998,2.619507
2018-11-01T19:50:11.244306Z,-0.292908,-1.947998,-0.122681
2018-11-01T19:50:11.444306Z,-0.335449,-0.9053959999999999,0.42700200000000005
2018-11-01T19:50:11.644306Z,-0.049316000000000006,-0.639587,2.312073
2018-11-01T19:50:11.849306Z,-0.686096,-0.649353,-1.818298
2018-11-01T19:50:12.044306Z,-1.570496,-0.190796,0.691772
2018-11-01T19:50:12.244306Z,-2.21106,-1.954407,-0.132874
2018-11-01T19:50:12.444306Z,-3.150635,-2.311646,0.000793
2018-11-01T19:50:12.644306Z,-1.695984,-0.32409699999999997,1.055603
2018-11-01T19:50:12.845306Z,-1.531372,-0.8269040000000001,2.189514
2018-11-01T19:50:13.044306Z,-2.526062,-0.9697879999999999,-0.48461899999999997
2018-11-01T19:50:13.244306Z,-2.9328,0.43811000000000005,0.787903
2018-11-01T19:50:13.454306Z,-1.78302,0.837585,1.260925
2018-11-01T19:50:13.645306Z,-2.742188,-0.898071,-1.773621
2018-11-01T19:50:13.848306Z,-3.250305,-0.00238,-1.2052610000000001
2018-11-01T19:50:14.045306Z,-3.134521,1.065002,-0.15270999999999998
2018-11-01T19:50:14.245306Z,-2.268738,2.148254,-0.477966
2018-11-01T19:50:14.444306Z,-1.612366,2.567383,-0.14721700000000001
2018-11-01T19:50:14.644306Z,0.490479,0.45562700000000006,-0.405212
2018-11-01T19:50:14.844306Z,-1.164917,0.659424,-1.856018
2018-11-01T19:50:15.044306Z,-0.587036,1.5405879999999998,-0.658752
2018-11-01T19:50:15.244306Z,-0.664978,1.950684,0.318726
2018-11-01T19:50:15.445306Z,-1.075867,0.49231,-2.695923
2018-11-01T19:50:15.644306Z,-0.7112430000000001,0.877441,-2.313232
2018-11-01T19:50:15.845306Z,-0.5542600000000001,0.689087,-0.059570000000000005
2018-11-01T19:50:16.044306Z,0.594788,0.460754,-0.026427999999999997
2018-11-01T19:50:16.245306Z,-1.2259520000000002,1.375977,-1.56366
2018-11-01T19:50:16.444306Z,-0.816711,2.2646479999999998,1.946289
2018-11-01T19:50:16.645306Z,1.151001,-1.404175,-0.32311999999999996
2018-11-01T19:50:16.846306Z,-0.517517,-0.58136,-0.096191
2018-11-01T19:50:17.046306Z,-0.9466549999999999,0.470642,-0.164429
2018-11-01T19:50:17.245306Z,-1.404175,0.034851,1.670898
2018-11-01T19:50:17.479306Z,1.075317,-0.25854499999999997,1.129883
2018-11-01T19:50:17.644306Z,-0.125122,-0.74292,-0.98877
2018-11-01T19:50:17.845306Z,-0.21606399999999998,-1.476868,0.622498
2018-11-01T19:50:18.045306Z,-0.8670040000000001,-0.530884,0.417419
2018-11-01T19:50:18.248306Z,-0.500793,-0.078979,1.0582280000000002
2018-11-01T19:50:18.456306Z,-1.2233889999999998,0.300598,-0.6698
2018-11-01T19:50:18.643306Z,-1.8237299999999999,0.37512199999999996,-1.002014
2018-11-01T19:50:18.843306Z,-1.9681400000000002,1.632568,-0.634033
2018-11-01T19:50:19.044306Z,-1.013794,0.505249,-0.118652
2018-11-01T19:50:19.244306Z,1.098694,-0.42865,-0.868347
2018-11-01T19:50:19.444306Z,-0.48144499999999996,0.9475100000000001,-0.11615
2018-11-01T19:50:19.676306Z,-0.38751199999999997,1.473633,0.082092
2018-11-01T19:50:19.845306Z,0.165222,-0.325317,-1.691223
2018-11-01T19:50:20.247306Z,-0.22338899999999998,0.46801800000000005,-1.6845700000000001
2018-11-01T19:50:20.445306Z,-0.304199,0.626404,1.974121
2018-11-01T19:50:20.645306Z,1.273376,-0.366272,-0.649231
2018-11-01T19:50:20.845306Z,-1.159302,0.8085939999999999,-0.125671
2018-11-01T19:50:21.051306Z,-0.384033,1.1030879999999998,-0.012573
2018-11-01T19:50:21.269306Z,-0.40679899999999997,-0.583801,-0.980408
2018-11-01T19:50:21.446306Z,-1.485291,-0.542419,-1.18866
2018-11-01T19:50:21.646306Z,-0.510254,0.182922,0.621887
2018-11-01T19:50:21.845306Z,0.16735799999999998,-0.498047,-1.172668
2018-11-01T19:50:22.043306Z,-2.168335,0.655701,-0.363464
2018-11-01T19:50:22.244306Z,-1.4468379999999998,0.316956,0.096558
2018-11-01T19:50:22.444306Z,-1.851868,-1.390991,-0.883423
2018-11-01T19:50:22.644306Z,-1.579407,0.106262,-0.8749389999999999
2018-11-01T19:50:22.844306Z,-0.682068,-0.117004,0.639893
2018-11-01T19:50:23.043306Z,0.6340939999999999,-1.511292,-2.297729
2018-11-01T19:50:23.248306Z,-1.4993290000000001,0.572327,-0.551941
2018-11-01T19:50:23.461306Z,-0.9351200000000001,0.818542,1.187561
2018-11-01T19:50:23.644306Z,-3.785889,-0.862793,1.385132
2018-11-01T19:50:23.846306Z,-4.3509519999999995,-0.79895,-0.28369099999999997
2018-11-01T19:50:24.045306Z,-2.15448,0.067505,-0.389771
2018-11-01T19:50:24.244306Z,-0.87561,1.185608,-1.03009
2018-11-01T19:50:24.445306Z,-0.182678,0.7262569999999999,-0.481079
2018-11-01T19:50:24.644306Z,-0.651123,-0.193115,0.701538
2018-11-01T19:50:24.845306Z,-0.656738,0.510193,-0.130188
2018-11-01T19:50:25.044306Z,0.012938999999999999,1.115479,-0.5390010000000001
2018-11-01T19:50:25.268306Z,0.22479200000000002,0.835449,0.24285900000000002
2018-11-01T19:50:25.445306Z,-0.614746,-1.0893549999999999,0.798035
2018-11-01T19:50:25.646306Z,-0.150513,-1.15802,-1.358643
2018-11-01T19:50:25.844306Z,-0.089478,0.07989500000000001,0.20739699999999997
2018-11-01T19:50:26.044306Z,-0.414368,-1.329102,0.63208
2018-11-01T19:50:26.245306Z,-1.971252,-0.632996,1.861877
2018-11-01T19:50:26.443306Z,-0.453064,0.437683,-0.2677
2018-11-01T19:50:26.644306Z,-0.271301,1.423584,0.089172
2018-11-01T19:50:26.844306Z,-0.7167359999999999,0.449341,-0.359375
2018-11-01T19:50:27.044306Z,-0.5983890000000001,-1.464539,0.322144
2018-11-01T19:50:27.247306Z,-0.64325,0.259705,-0.831909
2018-11-01T19:50:27.445306Z,-0.900452,1.018982,-0.930542
2018-11-01T19:50:27.649306Z,-0.7297359999999999,1.121399,-0.10998499999999999
2018-11-01T19:50:27.844306Z,0.281006,-0.788879,0.764221
2018-11-01T19:50:28.045306Z,-0.590271,0.262085,-0.799805
2018-11-01T19:50:28.245306Z,-0.519897,0.080322,-0.435303
2018-11-01T19:50:28.446306Z,-0.25531,1.051819,1.190796
2018-11-01T19:50:28.644306Z,-0.949585,-0.520386,0.48877
2018-11-01T19:50:28.844306Z,-1.972778,-2.219116,-0.45776400000000006
2018-11-01T19:50:29.045306Z,-1.9196779999999998,-1.068237,1.0414430000000001
2018-11-01T19:50:29.244306Z,-0.529175,-0.461487,0.201965
2018-11-01T19:50:29.451306Z,-0.701599,0.178223,0.335571
2018-11-01T19:50:29.643306Z,-1.399658,0.157654,-0.23095700000000002
2018-11-01T19:50:29.844306Z,-1.351868,0.493896,-0.634521
2018-11-01T19:50:30.044306Z,-1.527588,0.793762,-0.581543
2018-11-01T19:50:30.245306Z,-1.639099,-0.11602799999999999,2.308533
2018-11-01T19:50:30.445306Z,-0.148376,-0.073486,-2.127991
2018-11-01T19:50:30.645306Z,-0.24115,0.171997,-1.6555790000000001
2018-11-01T19:50:30.845306Z,-0.48858599999999996,1.923157,1.323975
2018-11-01T19:50:31.046306Z,-1.0089110000000001,-0.926575,-0.334351
2018-11-01T19:50:31.244306Z,-1.039368,-2.329468,-0.5483399999999999
2018-11-01T19:50:31.445306Z,-1.141846,-0.9735719999999999,0.627686
2018-11-01T19:50:31.645306Z,-1.385132,-0.790161,0.395081
2018-11-01T19:50:31.855306Z,-0.187073,0.139343,0.315308
2018-11-01T19:50:32.043306Z,-0.297119,-0.19043,-0.910217
2018-11-01T19:50:32.445306Z,0.581055,0.322876,0.335144
2018-11-01T19:50:32.644306Z,1.082031,-0.064514,-0.952026
2018-11-01T19:50:32.844306Z,0.697449,0.24853499999999998,-1.324646
2018-11-01T19:50:33.044306Z,1.9615479999999998,2.206055,1.607788
2018-11-01T19:50:33.244306Z,0.429504,0.828308,-0.510559
2018-11-01T19:50:33.444306Z,-0.704224,-2.589355,0.298401
2018-11-01T19:50:33.645306Z,-0.636169,-0.84906,-0.221619
2018-11-01T19:50:33.845306Z,-0.6835939999999999,0.566345,-0.375366
2018-11-01T19:50:34.045306Z,-0.572937,0.48761000000000004,0.403931
2018-11-01T19:50:34.245306Z,1.39801,-0.5004270000000001,-0.076416
2018-11-01T19:50:34.445306Z,0.509583,-0.166382,-0.5981449999999999
2018-11-01T19:50:34.645306Z,0.980713,0.267212,-0.22699
2018-11-01T19:50:34.846306Z,1.07312,0.14788800000000002,-0.8988649999999999
2018-11-01T19:50:35.046306Z,1.9937740000000002,-0.030212,-1.639893
2018-11-01T19:50:35.245306Z,2.733948,2.42865,0.857361
2018-11-01T19:50:35.444306Z,-3.349182,0.307983,3.715149
2018-11-01T19:50:35.644306Z,-0.47192399999999995,-1.676025,-0.9254760000000001
2018-11-01T19:50:35.844306Z,-0.085938,0.084473,-2.075012
2018-11-01T19:50:36.045306Z,-0.373718,2.276184,1.815125
2018-11-01T19:50:36.260306Z,-0.391846,0.8677370000000001,-3.215637
2018-11-01T19:50:36.447306Z,-1.257568,0.643311,0.06488
2018-11-01T19:50:36.644306Z,-1.285767,0.17511,-2.026733
2018-11-01T19:50:36.844306Z,-1.365784,1.662354,-0.252625
2018-11-01T19:50:37.044306Z,0.9524540000000001,0.541321,1.148499
2018-11-01T19:50:37.244306Z,-0.299927,0.612427,-0.784546
2018-11-01T19:50:37.446306Z,-0.801575,0.8168949999999999,-0.259399
2018-11-01T19:50:37.644306Z,0.200378,1.0245360000000001,0.41125500000000004
2018-11-01T19:50:37.844306Z,0.6474,-0.830994,-0.697083
2018-11-01T19:50:38.044306Z,-0.32104499999999997,-0.473145,-0.116699
2018-11-01T19:50:38.245306Z,-0.076843,0.492493,-0.880432
2018-11-01T19:50:38.480306Z,2.395813,0.050476,0.612549
2018-11-01T19:50:38.649306Z,0.6210939999999999,-0.730957,-0.672791
2018-11-01T19:50:38.844306Z,0.155579,-0.17541500000000002,-0.304749
2018-11-01T19:50:39.044306Z,-0.025879000000000003,-0.17218,-0.6331180000000001
2018-11-01T19:50:39.244306Z,0.051758000000000005,-0.392151,-0.793579
2018-11-01T19:50:39.444306Z,-0.255798,0.320923,-0.42858900000000005
2018-11-01T19:50:39.644306Z,-0.087769,0.598877,-0.379639
2018-11-01T19:50:39.844306Z,-0.246948,0.539246,-0.495605
2018-11-01T19:50:40.044306Z,0.125671,0.49176000000000003,-0.252197
2018-11-01T19:50:40.244306Z,0.003113,0.692444,-0.32605
2018-11-01T19:50:40.444306Z,-0.37512199999999996,0.308044,-0.725159
2018-11-01T19:50:40.645306Z,-0.301636,0.885376,1.1947020000000002
2018-11-01T19:50:40.847306Z,0.23791500000000002,0.481995,0.6583859999999999
2018-11-01T19:50:41.045306Z,-0.8735350000000001,-1.8515009999999998,-0.459045
2018-11-01T19:50:41.244306Z,-1.2434690000000002,-0.71344,-1.235901
2018-11-01T19:50:41.445306Z,-0.5642699999999999,-0.579224,2.441895
2018-11-01T19:50:41.646306Z,1.244446,-1.471924,-0.777161
2018-11-01T19:50:41.846306Z,-1.012512,-0.285706,-1.038147
2018-11-01T19:50:42.044306Z,-0.9144899999999999,0.15979000000000002,0.360657
2018-11-01T19:50:42.277306Z,-1.9345700000000001,-1.1030879999999998,3.574768
2018-11-01T19:50:42.448306Z,-3.0511470000000003,-2.138,-1.052429
2018-11-01T19:50:42.644306Z,-2.7924189999999998,-1.739685,0.616211
2018-11-01T19:50:42.845306Z,-2.138733,-1.132629,-0.370911
2018-11-01T19:50:43.044306Z,-0.030333999999999996,0.112549,-0.9428709999999999
2018-11-01T19:50:43.244306Z,1.5699459999999998,0.40570100000000003,-0.955933
2018-11-01T19:50:43.444306Z,0.42108199999999996,0.8336180000000001,-0.634827
2018-11-01T19:50:43.644306Z,-1.1965940000000002,2.551514,0.40387
2018-11-01T19:50:43.844306Z,-1.9046020000000001,0.19506800000000002,1.574036
2018-11-01T19:50:44.045306Z,-1.5672,-1.734436,-0.09564199999999999
2018-11-01T19:50:44.244306Z,-1.512573,-0.7676390000000001,0.8349610000000001
2018-11-01T19:50:44.462306Z,-1.608032,-1.854614,1.94812
2018-11-01T19:50:44.646306Z,-1.28125,-1.154907,0.770508
2018-11-01T19:50:45.046306Z,-1.2620850000000001,-2.081299,1.042297
2018-11-01T19:50:45.244306Z,-0.15802,-1.5479129999999999,-0.671509
2018-11-01T19:50:45.445306Z,0.9985959999999999,2.385498,0.19134500000000002
2018-11-01T19:50:45.644306Z,-1.525452,0.160706,-1.577209
2018-11-01T19:50:45.844306Z,0.343018,-1.11676,-0.555847
2018-11-01T19:50:46.044306Z,-0.961182,0.184204,0.796875
2018-11-01T19:50:46.245306Z,-3.872864,-0.139648,0.28234899999999996
2018-11-01T19:50:46.444306Z,-2.736023,0.637573,-0.766785
2018-11-01T19:50:46.645306Z,-1.521118,3.046143,-0.413818
2018-11-01T19:50:46.847306Z,0.22332800000000003,-0.46820100000000003,-0.08606
2018-11-01T19:50:47.044306Z,-0.015441999999999999,-0.729004,-0.447632
2018-11-01T19:50:47.245306Z,-0.358704,1.266418,-0.522522
2018-11-01T19:50:47.445306Z,-0.47546400000000005,0.108276,-0.254761
2018-11-01T19:50:47.644306Z,-1.1247559999999999,-1.1583860000000001,0.344177
2018-11-01T19:50:47.844306Z,-0.25415,-0.0037840000000000005,-0.11755399999999999
2018-11-01T19:50:48.053306Z,-1.421997,0.658997,1.020691
2018-11-01T19:50:48.245306Z,-0.835693,-0.095032,-0.622803
2018-11-01T19:50:48.450306Z,-1.9749759999999998,0.647339,-0.459045
2018-11-01T19:50:48.645306Z,-3.6302489999999996,-1.311218,-0.468384
2018-11-01T19:50:48.844306Z,-3.063843,-1.022644,0.6127319999999999
2018-11-01T19:50:49.044306Z,-1.666809,-0.062134,0.697205
2018-11-01T19:50:49.246306Z,-1.026489,-0.310974,1.221863
2018-11-01T19:50:49.444306Z,-1.6995240000000003,-0.747803,-1.0512700000000001
2018-11-01T19:50:49.644306Z,-0.689758,0.43994099999999997,-0.47924799999999995
2018-11-01T19:50:49.845306Z,-1.429871,-1.976074,0.24395799999999998
2018-11-01T19:50:50.044306Z,-0.628784,-2.124573,-0.090149
2018-11-01T19:50:50.244306Z,-0.470337,-1.278748,-1.238831
2018-11-01T19:50:50.444306Z,-1.561951,-0.710144,-0.084839
2018-11-01T19:50:50.691306Z,0.684509,1.006348,-2.234985
2018-11-01T19:50:50.844306Z,-1.000122,1.366028,0.852295
2018-11-01T19:50:51.045306Z,-0.26306199999999996,-1.415283,0.70813
2018-11-01T19:50:51.247306Z,0.53595,0.656189,0.087891
2018-11-01T19:50:51.446306Z,0.825317,-2.037415,0.20282
2018-11-01T19:50:51.646306Z,2.149109,-2.308289,0.023438
2018-11-01T19:50:51.845306Z,-0.549805,-2.6651,2.1384279999999998
2018-11-01T19:50:52.044306Z,-2.906189,-2.003357,1.291687
2018-11-01T19:50:52.248306Z,-3.6282959999999997,1.257996,-0.439392
2018-11-01T19:50:52.450306Z,-2.940552,1.3167719999999998,-1.157166
2018-11-01T19:50:52.646306Z,-0.746826,1.034424,0.804688
2018-11-01T19:50:52.848306Z,0.502197,-0.811951,-1.0495
2018-11-01T19:50:53.044306Z,-1.7734990000000002,1.3287959999999999,-0.275024
2018-11-01T19:50:53.244306Z,-0.445129,1.081543,1.7098389999999999
2018-11-01T19:50:53.444306Z,0.46173100000000006,-1.047668,-1.259521
2018-11-01T19:50:53.644306Z,-0.32818600000000003,-0.8342290000000001,-1.591797
2018-11-01T19:50:53.843306Z,-0.510742,0.293579,-0.49768100000000004
2018-11-01T19:50:54.044306Z,-0.385376,-0.121826,0.772827
2018-11-01T19:50:54.249306Z,0.6818850000000001,0.627991,1.2185059999999999
2018-11-01T19:50:54.445306Z,0.06311,0.482666,-0.8531489999999999
2018-11-01T19:50:54.645306Z,-0.070129,1.443359,-0.57196
2018-11-01T19:50:54.844306Z,-0.14813199999999999,0.103577,-0.45184300000000005
2018-11-01T19:50:55.045306Z,-0.769714,-0.682068,-0.997375
2018-11-01T19:50:55.244306Z,-0.410339,-0.470947,-1.1627809999999998
2018-11-01T19:50:55.445306Z,-0.7339479999999999,0.670898,-0.171021
2018-11-01T19:50:55.648306Z,-0.745544,0.542908,-0.389038
2018-11-01T19:50:55.845306Z,-0.441528,-1.042114,0.1922
2018-11-01T19:50:56.046306Z,-0.8837889999999999,-0.12731900000000002,-1.013184
2018-11-01T19:50:56.260306Z,-1.555115,0.031555,0.145752
2018-11-01T19:50:56.443306Z,0.331726,-0.558533,0.302246
2018-11-01T19:50:56.653306Z,-2.038208,-1.750427,0.425354
2018-11-01T19:50:56.845306Z,-3.487305,-1.109253,-1.353271
2018-11-01T19:50:57.044306Z,-1.957275,0.16375699999999999,1.819641
2018-11-01T19:50:57.244306Z,-0.532166,1.0277100000000001,-1.6473389999999999
2018-11-01T19:50:57.644306Z,-1.695007,0.557312,0.11956800000000001
2018-11-01T19:50:57.845306Z,0.35882600000000003,-0.174744,-0.625183
2018-11-01T19:50:58.045306Z,-0.742188,1.2402950000000001,-1.16095
2018-11-01T19:50:58.244306Z,-0.36248800000000003,1.684204,-0.042053
2018-11-01T19:50:58.445306Z,-2.37146,0.24224899999999996,1.626892
2018-11-01T19:50:58.653306Z,-1.427368,0.430054,-0.8455809999999999
2018-11-01T19:50:58.894306Z,-0.322083,0.6073609999999999,1.3097530000000002
2018-11-01T19:50:59.046306Z,-0.619934,-0.811951,1.293274
2018-11-01T19:50:59.244306Z,-0.782654,0.515442,-1.482788
2018-11-01T19:50:59.444306Z,-2.018005,1.296753,0.296265
2018-11-01T19:50:59.644306Z,-1.609985,-0.606506,0.29980500000000004
2018-11-01T19:50:59.845306Z,-0.794006,0.591187,-1.712341
2018-11-01T19:51:00.059306Z,-0.393127,-0.188049,0.44622799999999996
2018-11-01T19:51:00.244306Z,0.40979,0.5177,-1.283264
2018-11-01T19:51:00.444306Z,-1.645996,0.640442,-0.060791
2018-11-01T19:51:00.644306Z,-1.214661,-0.398438,-0.520996
2018-11-01T19:51:00.844306Z,-0.397949,0.9400629999999999,-1.7207029999999999
2018-11-01T19:51:01.044306Z,0.460999,0.310242,-0.16955599999999998
2018-11-01T19:51:01.244306Z,-0.603821,-1.416565,1.16156
2018-11-01T19:51:01.444306Z,-1.8637700000000001,1.0635379999999999,-0.817078
2018-11-01T19:51:01.646306Z,-1.648438,-0.620178,1.177246
2018-11-01T19:51:01.845306Z,-0.346802,-1.662109,-1.233215
2018-11-01T19:51:02.045306Z,-0.113953,-0.27331500000000003,-2.3099369999999997
2018-11-01T19:51:02.245306Z,-0.08770800000000001,0.439697,-1.07959
2018-11-01T19:51:02.446306Z,-0.141724,-1.492432,1.021973
2018-11-01T19:51:02.645306Z,-0.481567,-0.6870729999999999,-0.457825
2018-11-01T19:51:02.844306Z,-0.42163100000000003,-0.46936000000000005,-0.30603
2018-11-01T19:51:03.055306Z,-0.015137000000000001,0.27868699999999996,0.546814
2018-11-01T19:51:03.248306Z,-0.8935549999999999,-0.066589,-1.299744
2018-11-01T19:51:03.444306Z,-0.969299,-0.159424,0.39831500000000003
2018-11-01T19:51:03.644306Z,0.365723,0.373657,-0.271851
2018-11-01T19:51:03.846306Z,0.5112300000000001,0.308777,-0.15551800000000002
2018-11-01T19:51:04.044306Z,0.401672,0.267029,-0.15020799999999998
2018-11-01T19:51:04.244306Z,0.09845,0.921692,-0.293335
2018-11-01T19:51:04.444306Z,-1.339844,1.403442,-0.573975
2018-11-01T19:51:04.647306Z,0.355408,-0.711792,0.564453
2018-11-01T19:51:04.844306Z,-0.240112,-1.2578120000000002,-1.342651
2018-11-01T19:51:05.046306Z,-1.163025,-0.199036,-0.070984
2018-11-01T19:51:05.244306Z,-0.31311,1.2387700000000001,-0.8329469999999999
2018-11-01T19:51:05.462306Z,0.19628900000000002,0.32782,0.49145500000000003
2018-11-01T19:51:05.645306Z,2.45282,0.054321,-0.9598389999999999
2018-11-01T19:51:05.846306Z,0.513245,0.7922359999999999,0.391602
2018-11-01T19:51:06.047306Z,-0.021544999999999998,-0.288696,0.8466799999999999
2018-11-01T19:51:06.244306Z,0.6372680000000001,0.25006100000000003,-1.408325
2018-11-01T19:51:06.444306Z,-0.9735719999999999,1.904175,-1.1403809999999999
2018-11-01T19:51:06.644306Z,1.620544,0.721741,0.6952510000000001
2018-11-01T19:51:06.844306Z,0.02478,1.0271,-1.596375
2018-11-01T19:51:07.059306Z,0.183533,2.205811,-0.545532
2018-11-01T19:51:07.250306Z,-1.488037,0.588501,2.698059
2018-11-01T19:51:07.448306Z,-0.09197999999999999,0.207825,-2.058655
2018-11-01T19:51:07.644306Z,-0.163208,1.7143549999999999,0.977173
2018-11-01T19:51:07.845306Z,-0.253357,0.232483,0.437622
2018-11-01T19:51:08.044306Z,-0.47930900000000004,1.872375,-2.267212
2018-11-01T19:51:08.245306Z,-1.458618,2.047241,2.7165529999999998
2018-11-01T19:51:08.445306Z,0.47192399999999995,-0.688293,-0.852234
2018-11-01T19:51:08.644306Z,-0.343018,0.253967,-1.860901
2018-11-01T19:51:08.905306Z,1.70575,0.631775,-0.720459
2018-11-01T19:51:09.050306Z,-0.063965,0.114319,0.078064
2018-11-01T19:51:09.251306Z,-0.51825,1.435547,-0.8981319999999999
2018-11-01T19:51:09.444306Z,-0.634583,1.3659059999999998,2.392273
2018-11-01T19:51:09.644306Z,-0.156128,0.378845,-1.3790280000000001
2018-11-01T19:51:09.845306Z,0.379639,0.838501,-1.788879
2018-11-01T19:51:10.045306Z,0.338989,-0.276428,1.683777
2018-11-01T19:51:10.444306Z,-0.276489,0.556763,-0.845398
2018-11-01T19:51:10.645306Z,0.787537,1.7908939999999998,0.20843499999999998
2018-11-01T19:51:10.844306Z,0.575806,0.17511,1.04364
2018-11-01T19:51:11.044306Z,0.6127319999999999,-2.076538,-0.412415
2018-11-01T19:51:11.244306Z,0.036133,-1.328491,1.104004
2018-11-01T19:51:11.445306Z,-0.8839110000000001,-1.112061,-0.10351600000000001
2018-11-01T19:51:11.644306Z,-2.609131,0.698853,1.4153440000000002
2018-11-01T19:51:11.845306Z,-1.631226,1.229919,-0.719971
2018-11-01T19:51:12.046306Z,-1.2079469999999999,1.8755490000000001,-0.330505
2018-11-01T19:51:12.245306Z,-0.804199,-0.961304,0.807739
2018-11-01T19:51:12.445306Z,-0.8806149999999999,-0.493713,-0.9360350000000001
2018-11-01T19:51:12.645306Z,-1.724304,0.340088,-0.58606
2018-11-01T19:51:12.845306Z,-1.712341,0.77063,-0.28918499999999997
2018-11-01T19:51:13.045306Z,-1.308044,-0.811401,1.640991
2018-11-01T19:51:13.245306Z,-0.140991,-0.192322,-0.669678
2018-11-01T19:51:13.445306Z,-0.434204,-0.208252,0.028014999999999998
2018-11-01T19:51:13.644306Z,-0.927063,-0.281738,-0.22192399999999998
2018-11-01T19:51:13.844306Z,-0.282715,-0.062683,-0.004272
2018-11-01T19:51:14.044306Z,-0.232544,0.07849099999999999,-0.130981
2018-11-01T19:51:14.244306Z,-0.5311279999999999,0.33068800000000004,0.10955799999999999
2018-11-01T19:51:14.444306Z,-0.340393,0.100281,-0.018677000000000003
2018-11-01T19:51:14.644306Z,-0.003479,0.001831,-0.269836
2018-11-01T19:51:14.844306Z,-0.078308,0.26507600000000003,-0.228271
2018-11-01T19:51:15.044306Z,-0.29070999999999997,0.501221,0.341675
2018-11-01T19:51:15.244306Z,-0.931213,-0.047057999999999996,2.7472529999999997
2018-11-01T19:51:15.445306Z,1.380676,-0.172119,-2.8372189999999997
2018-11-01T19:51:15.644306Z,1.042114,0.197693,-0.525696
2018-11-01T19:51:15.844306Z,-1.206726,0.200378,1.815979
2018-11-01T19:51:16.046306Z,-0.9520870000000001,-0.36254899999999995,-0.365784
2018-11-01T19:51:16.244306Z,0.407776,0.112,-0.275452
2018-11-01T19:51:16.445306Z,-0.060851999999999996,-0.24090599999999998,-0.17694100000000001
2018-11-01T19:51:16.645306Z,-0.442932,-0.149292,-0.485962
2018-11-01T19:51:16.844306Z,-0.48913599999999996,-0.146851,-0.301208
2018-11-01T19:51:17.044306Z,-0.8377690000000001,-0.195251,-0.12255899999999999
2018-11-01T19:51:17.244306Z,-0.079651,-0.091919,-0.433838
2018-11-01T19:51:17.444306Z,-0.158142,-0.043701,-0.499146
2018-11-01T19:51:17.644306Z,-0.399048,-0.056029999999999996,-0.153564
2018-11-01T19:51:17.845306Z,-0.467224,0.194214,-0.147034
2018-11-01T19:51:18.055306Z,0.338623,0.651428,-0.313782
2018-11-01T19:51:18.254306Z,-0.29931599999999997,0.390442,-0.638977
2018-11-01T19:51:18.456306Z,0.070862,0.9324950000000001,-0.753052
2018-11-01T19:51:18.654306Z,-1.084961,0.48773199999999994,1.220032
2018-11-01T19:51:18.855306Z,-1.2470700000000001,-1.6538700000000002,0.091736
2018-11-01T19:51:19.054306Z,-0.790222,-0.971985,-0.9311520000000001
2018-11-01T19:51:19.256306Z,0.199646,-0.363098,0.676758
2018-11-01T19:51:19.454306Z,-0.658936,-1.535767,0.30438200000000004
2018-11-01T19:51:19.668306Z,-0.375916,-0.404053,-0.654602
2018-11-01T19:51:19.855306Z,-1.128601,-0.24908400000000003,2.544189
2018-11-01T19:51:20.057306Z,-0.8375239999999999,-1.052551,-0.602234
2018-11-01T19:51:20.254306Z,-0.01593,-0.408447,1.15564
2018-11-01T19:51:20.454306Z,-0.40118400000000004,-1.7375490000000002,1.306641
2018-11-01T19:51:20.655306Z,-0.8754270000000001,-0.064453,0.011536
2018-11-01T19:51:20.854306Z,-0.349121,-1.412903,1.6748049999999999
2018-11-01T19:51:21.067306Z,0.596252,-2.476318,0.037108999999999996
2018-11-01T19:51:21.254306Z,0.809631,-1.3920290000000002,-0.8803709999999999
2018-11-01T19:51:21.456306Z,1.604126,-1.854004,2.3198849999999998
2018-11-01T19:51:21.658306Z,1.5601200000000002,-2.481445,-0.47125200000000006
2018-11-01T19:51:21.856306Z,1.292419,-0.832275,-0.723328
2018-11-01T19:51:22.055306Z,1.8497919999999999,2.80127,2.374573
2018-11-01T19:51:22.255306Z,-1.030823,-1.130554,1.578491
2018-11-01T19:51:22.455306Z,0.5467529999999999,-1.6875,-1.52179
2018-11-01T19:51:22.656306Z,1.049927,0.513,-0.728088
2018-11-01T19:51:22.854306Z,0.9348139999999999,-0.043457,-0.30603
2018-11-01T19:51:23.054306Z,0.9393309999999999,0.074402,-0.20086700000000002
2018-11-01T19:51:23.317306Z,0.9507450000000001,0.8935549999999999,0.18524200000000002
2018-11-01T19:51:23.456306Z,-0.196838,0.777161,-1.021362
2018-11-01T19:51:23.853306Z,0.07788099999999999,-0.266235,1.152161
2018-11-01T19:51:24.056306Z,-0.030273,-0.664429,-0.339966
2018-11-01T19:51:24.254306Z,0.13763399999999998,0.091797,-0.056946000000000004
2018-11-01T19:51:24.454306Z,0.19476300000000002,-1.04364,0.612122
2018-11-01T19:51:24.654306Z,0.288391,-1.0314940000000001,-0.0047
2018-11-01T19:51:24.854306Z,0.576172,-0.845886,-0.16003399999999998
2018-11-01T19:51:25.055306Z,0.366394,0.238525,-0.24005100000000001
2018-11-01T19:51:25.255306Z,-0.014465,-0.644775,1.7286990000000002
2018-11-01T19:51:25.458306Z,-0.385681,-2.113281,0.322205
2018-11-01T19:51:25.655306Z,-0.59668,-0.722595,-0.080139
2018-11-01T19:51:25.857306Z,-0.094788,0.166382,-0.10907
2018-11-01T19:51:26.055306Z,-0.5562739999999999,0.262268,0.413208
2018-11-01T19:51:26.254306Z,0.329529,-0.659424,0.768677
2018-11-01T19:51:26.454306Z,0.708008,-0.658203,-0.35131799999999996
2018-11-01T19:51:26.654306Z,1.213623,-0.341125,0.9035030000000001
2018-11-01T19:51:26.854306Z,1.6051030000000002,0.353027,-0.241272
2018-11-01T19:51:27.056306Z,1.5228270000000002,1.124023,0.08313
2018-11-01T19:51:27.254306Z,0.239441,0.26532,1.255249
2018-11-01T19:51:27.454306Z,-0.616455,-0.942566,0.030333999999999996
2018-11-01T19:51:27.654306Z,0.064331,-1.041626,-0.335754
2018-11-01T19:51:27.865306Z,0.17388900000000002,0.183228,-0.740051
2018-11-01T19:51:28.054306Z,-0.20770300000000003,0.085754,0.37677
2018-11-01T19:51:28.254306Z,0.773804,0.408936,-0.140259
2018-11-01T19:51:28.458306Z,1.331909,0.874878,-0.977295
2018-11-01T19:51:28.654306Z,0.244873,1.433533,0.077515
2018-11-01T19:51:28.854306Z,-1.365356,1.178223,-1.540405
2018-11-01T19:51:29.054306Z,0.6247560000000001,1.408142,0.559692
2018-11-01T19:51:29.254306Z,0.8843989999999999,-0.20575,0.272949
2018-11-01T19:51:29.456306Z,0.134705,0.42749,-0.872192
2018-11-01T19:51:29.667306Z,1.14093,1.6420290000000002,0.015259
2018-11-01T19:51:29.855306Z,0.19873,1.764038,-0.35992399999999997
2018-11-01T19:51:30.055306Z,-0.269226,-0.385925,-1.456482
2018-11-01T19:51:30.265306Z,-0.010864,0.47009300000000004,-1.333252
2018-11-01T19:51:30.465306Z,0.232971,0.594238,0.562683
2018-11-01T19:51:30.654306Z,1.644165,-0.272583,0.309082
2018-11-01T19:51:30.854306Z,-0.27880900000000003,0.762146,-2.567932
2018-11-01T19:51:31.055306Z,-0.10082999999999999,1.671814,-0.033691000000000006
2018-11-01T19:51:31.254306Z,-1.1604,-0.741089,1.75647
2018-11-01T19:51:31.454306Z,-0.076477,-0.294983,-1.595947
2018-11-01T19:51:31.694306Z,-0.295105,0.843933,-0.226318
2018-11-01T19:51:31.859306Z,1.2472530000000002,0.11792000000000001,0.285828
2018-11-01T19:51:32.054306Z,-0.316956,-1.046509,-0.614807
2018-11-01T19:51:32.254306Z,-0.18756099999999998,1.369202,-0.339233
2018-11-01T19:51:32.455306Z,-0.375305,1.078857,0.966736
2018-11-01T19:51:32.654306Z,0.075928,-1.803467,-0.717102
2018-11-01T19:51:32.855306Z,-0.763245,0.075195,-1.13385
2018-11-01T19:51:33.056306Z,0.765015,0.6054689999999999,0.17871099999999998
2018-11-01T19:51:33.254306Z,-1.365845,-1.092957,1.269287
2018-11-01T19:51:33.458306Z,-1.4613040000000002,1.13031,-2.0603029999999998
2018-11-01T19:51:33.655306Z,-0.80719,0.60144,-1.154541
2018-11-01T19:51:33.856306Z,-1.7716060000000002,-1.4351200000000002,-0.317749
2018-11-01T19:51:34.054306Z,-2.207031,-1.086121,-0.15509
2018-11-01T19:51:34.254306Z,-0.9176030000000001,0.204407,0.8718870000000001
2018-11-01T19:51:34.465306Z,-1.482117,-0.294739,2.588562
2018-11-01T19:51:34.654306Z,-1.041138,-0.674866,-0.580444
2018-11-01T19:51:34.854306Z,-0.559204,-0.080688,-0.278015
2018-11-01T19:51:35.054306Z,-1.638367,0.356873,0.9754639999999999
2018-11-01T19:51:35.254306Z,-1.962463,-1.108765,-0.82135
2018-11-01T19:51:35.454306Z,-1.9807740000000003,-0.579285,-0.694336
2018-11-01T19:51:35.660306Z,-0.274231,0.705383,-0.966125
2018-11-01T19:51:35.854306Z,-0.21923800000000002,-0.081238,-1.145752
2018-11-01T19:51:36.055306Z,-1.3990479999999998,0.23590100000000003,0.104553
2018-11-01T19:51:36.256306Z,-2.332642,0.113403,-0.12616
2018-11-01T19:51:36.454306Z,-1.686218,0.8207399999999999,-0.691345
2018-11-01T19:51:36.654306Z,-1.2241819999999999,0.908264,0.220825
2018-11-01T19:51:36.855306Z,-0.493042,-0.353516,1.828857
2018-11-01T19:51:37.056306Z,-0.843506,-1.4571530000000001,0.09820599999999999
2018-11-01T19:51:37.255306Z,-0.534302,-0.464722,-0.305176
2018-11-01T19:51:37.666306Z,-0.622681,0.630188,-0.623596
2018-11-01T19:51:37.857306Z,0.142029,1.746216,0.8377690000000001
2018-11-01T19:51:38.054306Z,-2.375305,-0.779602,-0.922485
2018-11-01T19:51:38.254306Z,-3.703796,-0.171631,-1.288513
2018-11-01T19:51:38.454306Z,-0.419495,1.565857,0.503784
2018-11-01T19:51:38.654306Z,0.44043000000000004,-0.604187,0.045288
2018-11-01T19:51:38.854306Z,-1.068848,-0.599182,-1.9736330000000002
2018-11-01T19:51:39.054306Z,-1.6795650000000002,0.997986,0.897156
2018-11-01T19:51:39.255306Z,-1.4985959999999998,1.2996219999999998,-0.291687
2018-11-01T19:51:39.454306Z,-1.671143,-1.257996,1.2995
2018-11-01T19:51:39.656306Z,-1.001221,-0.0018920000000000002,-1.150574
2018-11-01T19:51:39.855306Z,-1.092529,1.003174,0.958557
2018-11-01T19:51:40.060306Z,-1.083679,-0.582886,0.22985799999999998
2018-11-01T19:51:40.262306Z,-1.2096559999999998,0.28442399999999995,-1.255798
2018-11-01T19:51:40.455306Z,-1.552429,1.250122,0.53009
2018-11-01T19:51:40.658306Z,-2.5264889999999998,-0.298767,-1.085876
2018-11-01T19:51:40.855306Z,-1.833252,0.738525,-1.767212
2018-11-01T19:51:41.054306Z,-0.5858760000000001,1.363037,-0.334351
2018-11-01T19:51:41.254306Z,-2.410889,-0.453247,0.739075
2018-11-01T19:51:41.454306Z,-2.212646,1.171814,-0.776184
2018-11-01T19:51:41.654306Z,-1.8610229999999999,0.9833370000000001,-0.726746
2018-11-01T19:51:41.855306Z,-3.671021,-0.761169,1.280823
2018-11-01T19:51:42.054306Z,-1.079651,0.513306,-1.198181
2018-11-01T19:51:42.261306Z,-0.9904790000000001,0.925049,0.26806599999999997
2018-11-01T19:51:42.454306Z,-1.402832,-0.036864999999999995,1.038147
2018-11-01T19:51:42.655306Z,-1.624207,0.43041999999999997,-0.637451
2018-11-01T19:51:42.855306Z,-1.4172360000000002,1.119446,0.394775
2018-11-01T19:51:43.054306Z,0.245117,0.813843,-2.4807740000000003
2018-11-01T19:51:43.255306Z,-2.2764279999999997,-0.329407,1.4140620000000002
2018-11-01T19:51:43.454306Z,1.8118900000000002,0.8948969999999999,-1.6328120000000002
2018-11-01T19:51:43.655306Z,0.21887199999999998,0.273438,-0.101135
2018-11-01T19:51:43.855306Z,-2.308105,0.49420200000000003,-1.241638
2018-11-01T19:51:44.055306Z,-0.8225100000000001,2.0004880000000003,0.862366
2018-11-01T19:51:44.254306Z,-1.876465,-0.258362,1.514832
2018-11-01T19:51:44.454306Z,-1.6785889999999999,0.379822,-2.033325
2018-11-01T19:51:44.655306Z,-1.435486,1.548096,-0.480469
2018-11-01T19:51:44.855306Z,0.023499000000000003,0.46643100000000004,1.055725
2018-11-01T19:51:45.056306Z,-1.341492,-0.145081,-1.395813
2018-11-01T19:51:45.258306Z,-1.163757,1.571106,0.146851
2018-11-01T19:51:45.454306Z,-2.1995240000000003,0.195923,2.812439
2018-11-01T19:51:45.654306Z,-1.302002,0.230713,-1.469299
2018-11-01T19:51:45.854306Z,-1.207214,1.050354,-0.132141
2018-11-01T19:51:46.054306Z,-0.8382569999999999,-0.40820300000000004,-0.389038
2018-11-01T19:51:46.256306Z,-0.84491,0.674438,-1.258057
2018-11-01T19:51:46.468306Z,-0.242554,1.852295,-0.529968
2018-11-01T19:51:46.659306Z,-1.447876,-0.101135,-0.36645500000000003
2018-11-01T19:51:46.859306Z,-0.819092,0.7013550000000001,-2.398926
2018-11-01T19:51:47.056306Z,-0.964844,1.064758,0.378967
2018-11-01T19:51:47.255306Z,-0.470581,-0.376404,-0.335449
2018-11-01T19:51:47.455306Z,-1.3255620000000001,0.809753,-0.949158
2018-11-01T19:51:47.656306Z,-1.3687129999999998,1.541565,1.1785889999999999
2018-11-01T19:51:48.073306Z,-1.6815799999999999,-0.797668,-1.246094
2018-11-01T19:51:48.257306Z,-2.8126830000000003,-0.388489,-2.4845580000000003
2018-11-01T19:51:48.454306Z,-3.23999,-0.058838,-0.037476
2018-11-01T19:51:48.654306Z,-1.791565,0.653992,-1.216248
2018-11-01T19:51:48.857306Z,-1.652954,1.223694,-0.380554
2018-11-01T19:51:49.057306Z,0.181274,1.312134,0.582397
2018-11-01T19:51:49.260306Z,-0.5020140000000001,0.8502200000000001,-1.245056
2018-11-01T19:51:49.454306Z,-0.8408200000000001,1.402649,-0.966858
2018-11-01T19:51:49.654306Z,-2.476501,0.18512,2.95929
2018-11-01T19:51:49.855306Z,-0.8943479999999999,-0.40631100000000003,-0.310913
2018-11-01T19:51:50.093306Z,-0.12213099999999999,0.632812,-0.8442379999999999
2018-11-01T19:51:50.254306Z,0.8478389999999999,0.36688200000000004,-0.25854499999999997
2018-11-01T19:51:50.456306Z,-0.458496,-0.421753,-2.083679
2018-11-01T19:51:50.655306Z,-1.9263919999999999,1.340515,0.443481
2018-11-01T19:51:50.855306Z,-3.628601,0.048096,2.6713259999999996
2018-11-01T19:51:51.056306Z,-1.5479129999999999,-0.46991000000000005,-1.331543
2018-11-01T19:51:51.254306Z,-0.677551,0.29364,0.9287110000000001
2018-11-01T19:51:51.453306Z,0.57782,-0.210022,-0.48095699999999997
2018-11-01T19:51:51.654306Z,-1.49176,0.658569,-0.422241
2018-11-01T19:51:51.853306Z,-0.315125,0.6159060000000001,-1.401489
2018-11-01T19:51:52.054306Z,-0.08606,1.178345,0.9763790000000001
2018-11-01T19:51:52.254306Z,-1.5322879999999999,-0.46758999999999995,-0.5983890000000001
2018-11-01T19:51:52.457306Z,-1.606934,0.414368,-1.236694
2018-11-01T19:51:52.655306Z,-0.30719,0.619751,0.602966
2018-11-01T19:51:52.854306Z,-0.06012000000000001,0.23382600000000003,-0.5759890000000001
2018-11-01T19:51:53.054306Z,-1.0047,0.512878,-0.965576
2018-11-01T19:51:53.256306Z,-1.067566,1.200134,0.315552
2018-11-01T19:51:53.454306Z,-1.2284549999999999,-0.313293,-2.0238650000000002
2018-11-01T19:51:53.654306Z,-1.432312,-0.360718,-3.774719
2018-11-01T19:51:53.856306Z,-0.16125499999999998,0.623047,0.384766
2018-11-01T19:51:54.055306Z,0.07421900000000001,-1.0319209999999999,-0.780701
2018-11-01T19:51:54.255306Z,-0.848816,0.510864,-0.56543
2018-11-01T19:51:54.454306Z,-1.576233,1.657471,0.5795899999999999
2018-11-01T19:51:54.654306Z,-1.0515139999999998,-0.720642,-0.45629899999999995
2018-11-01T19:51:54.857306Z,-1.346436,0.018494,-1.059509
2018-11-01T19:51:55.054306Z,-0.57135,1.0953979999999999,1.2453610000000002
2018-11-01T19:51:55.254306Z,-0.546082,-1.500427,0.718018
2018-11-01T19:51:55.453306Z,-1.4067379999999998,1.025452,0.624512
2018-11-01T19:51:55.669306Z,-0.679138,1.389893,0.004028
2018-11-01T19:51:55.854306Z,-2.120422,-1.220215,0.13311800000000001
2018-11-01T19:51:56.055306Z,-1.381775,-0.651733,-2.236755
2018-11-01T19:51:56.254306Z,-1.1378780000000002,1.321655,-0.065491
2018-11-01T19:51:56.459306Z,-0.584106,0.674805,-0.395813
2018-11-01T19:51:56.661306Z,-1.724548,-0.940796,0.621704
2018-11-01T19:51:56.855306Z,-0.790405,1.0360719999999999,-0.776672
2018-11-01T19:51:57.054306Z,-1.9680790000000001,0.885925,-0.47747799999999996
2018-11-01T19:51:57.254306Z,-2.540039,-0.651489,-0.474365
2018-11-01T19:51:57.463306Z,-1.531677,-0.034789999999999995,-1.76532
2018-11-01T19:51:57.655306Z,-1.40741,1.271973,-0.247864
2018-11-01T19:51:57.855306Z,-1.7947389999999999,-0.318542,0.05438200000000001
2018-11-01T19:51:58.055306Z,-1.686218,1.990662,-1.2073969999999998
2018-11-01T19:51:58.255306Z,-2.954834,0.638794,0.13147
2018-11-01T19:51:58.454306Z,-3.225464,-0.885193,1.228821
2018-11-01T19:51:58.654306Z,-0.512634,-0.090759,-0.672546
2018-11-01T19:51:58.854306Z,-0.041443,1.726379,-1.219299
2018-11-01T19:51:59.054306Z,-0.8004760000000001,2.3927,-0.9547120000000001
2018-11-01T19:51:59.254306Z,-2.3878779999999997,0.5898439999999999,0.323792
2018-11-01T19:51:59.454306Z,-2.0178220000000002,-0.913452,-1.1271360000000001
2018-11-01T19:51:59.656306Z,-0.882141,1.078003,-2.070496
2018-11-01T19:51:59.857306Z,0.339233,2.722778,-0.966675
2018-11-01T19:52:00.063306Z,-0.9411010000000001,1.852539,1.503418
2018-11-01T19:52:00.254306Z,-1.8836669999999998,-0.284058,0.202087
2018-11-01T19:52:00.455306Z,-1.116455,0.858765,-1.1073
2018-11-01T19:52:00.855306Z,-0.464722,0.894653,-0.627075
2018-11-01T19:52:01.056306Z,-1.284912,-0.091431,1.498901
2018-11-01T19:52:01.256306Z,-0.808533,0.67511,-0.731689
2018-11-01T19:52:01.455306Z,-0.6627810000000001,0.932983,0.9728389999999999
2018-11-01T19:52:01.654306Z,-0.887756,-0.251587,1.711914
2018-11-01T19:52:01.854306Z,-0.9375,-2.016785,0.577515
2018-11-01T19:52:02.054306Z,-0.287903,-0.086853,-0.24572800000000003
2018-11-01T19:52:02.254306Z,-1.255066,1.111694,-1.326416
2018-11-01T19:52:02.454306Z,-0.231873,-0.31652800000000003,0.849915
2018-11-01T19:52:02.654306Z,-0.046448,0.364807,-1.008545
2018-11-01T19:52:02.863306Z,-0.281738,1.142517,-0.8002319999999999
2018-11-01T19:52:03.054306Z,-0.6289060000000001,0.519592,-0.006775
2018-11-01T19:52:03.254306Z,-0.49517799999999995,-0.074951,-0.24176
2018-11-01T19:52:03.455306Z,-1.3573,0.24395799999999998,-1.214844
2018-11-01T19:52:03.654306Z,-0.8400270000000001,0.126343,0.5607300000000001
2018-11-01T19:52:03.856306Z,-0.617737,-0.455139,-0.190918
2018-11-01T19:52:04.081306Z,0.395081,-0.304871,-1.077148
2018-11-01T19:52:04.257306Z,0.043335000000000005,0.681946,-0.522766
2018-11-01T19:52:04.459306Z,-0.9259639999999999,-0.75769,0.5266109999999999
2018-11-01T19:52:04.655306Z,-1.83844,-0.06805399999999999,0.8396610000000001
2018-11-01T19:52:04.856306Z,-0.737427,-0.062622,-1.348083
2018-11-01T19:52:05.056306Z,-0.720276,0.417786,0.217102
2018-11-01T19:52:05.254306Z,-0.886108,0.571533,-0.140625
2018-11-01T19:52:05.453306Z,-1.244141,-0.0063479999999999995,-0.026978
2018-11-01T19:52:05.654306Z,-0.476685,-0.850891,0.757812
2018-11-01T19:52:05.854306Z,0.688843,0.312012,-0.316345
2018-11-01T19:52:06.053306Z,0.533875,1.128174,-0.38751199999999997
2018-11-01T19:52:06.254306Z,-0.7517699999999999,0.689697,-0.317261
2018-11-01T19:52:06.468306Z,-1.8544919999999998,-0.48120100000000005,-0.70929
2018-11-01T19:52:06.655306Z,-1.06134,-0.104492,-1.222412
2018-11-01T19:52:06.855306Z,-0.49017299999999997,1.4978639999999999,0.448975
2018-11-01T19:52:07.074306Z,-0.797852,-0.796875,1.426819
2018-11-01T19:52:07.260306Z,-0.592163,0.23773200000000003,-2.319824
2018-11-01T19:52:07.455306Z,-0.712036,1.122803,0.809204
2018-11-01T19:52:07.654306Z,-2.496094,-0.619751,-0.14093
2018-11-01T19:52:07.854306Z,-2.207703,-0.059509000000000006,-1.332275
2018-11-01T19:52:08.055306Z,-1.239929,0.332947,0.005371
2018-11-01T19:52:08.255306Z,-0.219788,-0.280212,-0.005737
2018-11-01T19:52:08.454306Z,-1.182617,0.473145,-1.9644169999999999
2018-11-01T19:52:08.654306Z,-0.757935,0.698303,0.900452
2018-11-01T19:52:08.857306Z,-1.174988,-1.169983,0.130737
2018-11-01T19:52:09.054306Z,-1.082336,-0.004639,-0.6948850000000001
2018-11-01T19:52:09.254306Z,-1.006775,0.41851800000000006,0.60144
2018-11-01T19:52:09.454306Z,-0.640991,-0.173584,-1.022705
2018-11-01T19:52:09.714306Z,-1.485352,-0.223755,0.183838
2018-11-01T19:52:09.854306Z,-0.176453,0.140259,0.10308800000000001
2018-11-01T19:52:10.056306Z,-0.39093,-1.343445,-0.8730469999999999
2018-11-01T19:52:10.257306Z,-0.869324,0.348328,-1.8655400000000002
2018-11-01T19:52:10.456306Z,-0.128723,-0.1922,0.936584
2018-11-01T19:52:10.655306Z,-0.100098,-0.604248,-0.656799
2018-11-01T19:52:10.854306Z,-0.953857,0.75238,-0.5849
2018-11-01T19:52:11.055306Z,-1.592407,-0.190979,2.031616
2018-11-01T19:52:11.255306Z,-1.7716669999999999,-1.408142,-1.515076
2018-11-01T19:52:11.463306Z,-0.640564,0.08557100000000001,-0.715759
2018-11-01T19:52:11.659306Z,-1.357117,0.312988,-0.176331
2018-11-01T19:52:11.858306Z,-0.956177,-0.695068,0.55365
2018-11-01T19:52:12.054306Z,-1.156433,-0.5604859999999999,-0.458984
2018-11-01T19:52:12.264306Z,0.22113000000000002,0.466675,-0.750793
2018-11-01T19:52:12.657306Z,-0.649475,-0.35638400000000003,0.303833
2018-11-01T19:52:12.860306Z,-0.778137,-1.083496,-0.36230500000000004
2018-11-01T19:52:13.054306Z,-0.906067,0.548767,-0.811462
2018-11-01T19:52:13.254306Z,0.141296,0.459595,0.308228
2018-11-01T19:52:13.454306Z,0.9086299999999999,-1.313477,-0.9419559999999999
2018-11-01T19:52:13.655306Z,0.370239,0.135742,-0.702148
2018-11-01T19:52:13.854306Z,-0.014221000000000001,0.527771,-0.389832
2018-11-01T19:52:14.054306Z,-1.080017,-0.743042,-0.45239300000000005
2018-11-01T19:52:14.256306Z,-1.020142,-0.49920699999999996,-1.026184
2018-11-01T19:52:14.523306Z,-0.508423,0.039124,-0.037659
2018-11-01T19:52:14.655306Z,-0.125305,-0.717163,1.533508
2018-11-01T19:52:14.854306Z,-0.508484,-0.8594360000000001,0.403442
2018-11-01T19:52:15.054306Z,-0.373291,-0.14666700000000002,0.387329
2018-11-01T19:52:15.256306Z,-0.6452640000000001,0.147827,-0.319397
2018-11-01T19:52:15.454306Z,-1.381165,-0.813538,-1.125
2018-11-01T19:52:15.654306Z,-1.958496,-0.016663,-0.8430790000000001
2018-11-01T19:52:15.854306Z,-0.5671390000000001,0.556519,0.272278
2018-11-01T19:52:16.054306Z,1.289795,-0.667358,0.687439
2018-11-01T19:52:16.255306Z,0.767273,-1.250427,-0.36554000000000003
2018-11-01T19:52:16.455306Z,-0.24359099999999997,-0.40313699999999997,-0.13183599999999998
2018-11-01T19:52:16.655306Z,-0.7147220000000001,0.50885,-1.034302
2018-11-01T19:52:16.854306Z,-2.314087,-0.132019,-0.8935549999999999
2018-11-01T19:52:17.054306Z,-1.7365110000000001,-0.7361449999999999,-0.8317260000000001
2018-11-01T19:52:17.255306Z,-1.582031,-0.405579,0.646057
2018-11-01T19:52:17.454306Z,-0.753418,-0.20165999999999998,0.6098020000000001
2018-11-01T19:52:17.654306Z,0.784058,-0.848816,0.067017
2018-11-01T19:52:17.855306Z,-0.41095,-0.512512,0.048767000000000005
2018-11-01T19:52:18.054306Z,-0.5266109999999999,-0.18158,-0.350525
2018-11-01T19:52:18.255306Z,-0.807312,0.358948,-0.522949
2018-11-01T19:52:18.455306Z,-1.3617549999999998,-0.594116,0.628845
2018-11-01T19:52:18.655306Z,-0.432007,-0.999817,-1.068054
2018-11-01T19:52:18.881306Z,-1.416321,-0.813599,0.686584
2018-11-01T19:52:19.057306Z,-1.1518549999999999,0.469055,-0.196777
2018-11-01T19:52:19.258306Z,-1.080994,-0.256104,-0.744995
2018-11-01T19:52:19.455306Z,-0.4198,-1.508972,-1.112244
2018-11-01T19:52:19.654306Z,-1.79425,-0.264771,1.3931879999999999
2018-11-01T19:52:19.854306Z,-1.8458860000000001,0.43438699999999997,-0.7695310000000001
2018-11-01T19:52:20.054306Z,-2.253906,0.508362,-0.606873
2018-11-01T19:52:20.254306Z,-0.385254,-0.63031,1.012817
2018-11-01T19:52:20.462306Z,1.571167,-0.6542359999999999,0.387207
2018-11-01T19:52:20.654306Z,1.347473,-0.394836,-0.375671
2018-11-01T19:52:20.855306Z,-0.054321,0.163208,0.41900600000000005
2018-11-01T19:52:21.056306Z,0.036255,0.6094970000000001,-0.615051
2018-11-01T19:52:21.254306Z,-0.16333,0.999634,-0.314392
2018-11-01T19:52:21.454306Z,-0.5367430000000001,0.136475,0.9393309999999999
2018-11-01T19:52:21.665306Z,-1.1589969999999998,-1.245789,1.2071530000000001
2018-11-01T19:52:21.865306Z,-1.516357,-1.6475830000000002,0.643372
2018-11-01T19:52:22.060306Z,-0.18395999999999998,-0.396423,-0.407532
2018-11-01T19:52:22.256306Z,-0.44232200000000005,-0.438721,0.5356449999999999
2018-11-01T19:52:22.454306Z,0.524231,-1.7547,0.602417
2018-11-01T19:52:22.654306Z,-0.01178,-1.334717,-0.066772
2018-11-01T19:52:22.854306Z,-0.799561,-1.521973,0.298645
2018-11-01T19:52:23.054306Z,1.946533,-0.718811,0.13555899999999999
2018-11-01T19:52:23.254306Z,2.411621,-1.383728,-0.161438
2018-11-01T19:52:23.454306Z,0.858398,-0.634521,-0.22821
2018-11-01T19:52:23.654306Z,-1.9423830000000002,0.28424099999999997,1.190918
2018-11-01T19:52:23.854306Z,-0.61438,1.132019,-1.32251
2018-11-01T19:52:24.055306Z,-1.770325,0.710815,0.679871
2018-11-01T19:52:24.254306Z,-0.418335,-0.157288,0.11675999999999999
2018-11-01T19:52:24.455306Z,-1.617493,-0.268005,-0.424622
2018-11-01T19:52:24.662306Z,-1.3600459999999999,-1.17865,1.551575
2018-11-01T19:52:24.854306Z,-1.9854740000000002,-2.0012209999999997,-0.027282999999999998
2018-11-01T19:52:25.059306Z,-2.513306,-1.01001,0.787231
2018-11-01T19:52:25.259306Z,-2.062744,-0.08081100000000001,-0.248169
2018-11-01T19:52:25.455306Z,-0.788269,0.21520999999999998,0.41888400000000003
2018-11-01T19:52:25.654306Z,-0.7948,-0.346008,0.541138
2018-11-01T19:52:25.853306Z,-0.168152,0.301453,-0.7692260000000001
2018-11-01T19:52:26.055306Z,-0.19287100000000001,1.4193120000000001,-0.255127
2018-11-01T19:52:26.259306Z,-2.025513,0.190613,1.17688
2018-11-01T19:52:26.457306Z,-1.8660889999999999,-0.533569,0.03833
2018-11-01T19:52:26.654306Z,-1.713379,0.8419190000000001,-1.643188
2018-11-01T19:52:27.055306Z,-0.580872,0.46698,-0.002258
2018-11-01T19:52:27.254306Z,-1.8533330000000001,-0.950684,0.301331
2018-11-01T19:52:27.454306Z,-1.866882,0.604492,-0.31048600000000004
2018-11-01T19:52:27.654306Z,-0.728638,1.123108,0.697937
2018-11-01T19:52:27.861306Z,-0.817749,-0.701294,-0.9274290000000001
2018-11-01T19:52:28.070306Z,-0.276855,-0.381592,-0.29986599999999997
2018-11-01T19:52:28.254306Z,-0.45556599999999997,0.025574,-0.739563
2018-11-01T19:52:28.454306Z,-1.500977,-1.44281,1.8786009999999997
2018-11-01T19:52:28.656306Z,0.141846,-1.463074,-0.33581500000000003
2018-11-01T19:52:28.854306Z,0.40936300000000003,-0.5193479999999999,-0.126831
2018-11-01T19:52:29.054306Z,-1.154907,1.1264040000000002,0.989075
2018-11-01T19:52:29.254306Z,-0.747681,-0.901184,1.211853
2018-11-01T19:52:29.454306Z,-1.296265,-1.578003,-0.481079
2018-11-01T19:52:29.654306Z,-0.705627,-0.329773,-0.577759
2018-11-01T19:52:29.854306Z,-0.173401,1.1382450000000002,-0.523926
2018-11-01T19:52:30.055306Z,-0.815796,0.548218,1.037476
2018-11-01T19:52:30.292306Z,0.820435,-1.616882,-1.977295
2018-11-01T19:52:30.455306Z,0.502747,-1.288635,-1.16449
2018-11-01T19:52:30.654306Z,0.939575,-0.237854,-0.260071
2018-11-01T19:52:30.856306Z,1.584351,0.16461199999999998,0.796814
2018-11-01T19:52:31.057306Z,2.5877689999999998,0.331909,-1.085815
2018-11-01T19:52:31.255306Z,0.860168,1.368042,1.171326
2018-11-01T19:52:31.454306Z,-0.752808,-0.11956800000000001,0.993469
2018-11-01T19:52:31.654306Z,-1.16095,0.037781,-0.549866
2018-11-01T19:52:31.856306Z,-0.331177,1.333862,-0.977356
2018-11-01T19:52:32.065306Z,0.598328,1.6488650000000002,0.819702
2018-11-01T19:52:32.258306Z,0.193115,-0.661499,0.22192399999999998
2018-11-01T19:52:32.458306Z,1.099548,0.94342,-1.603577
2018-11-01T19:52:32.654306Z,1.278748,1.6009520000000002,-0.528809
2018-11-01T19:52:32.854306Z,0.051147000000000005,0.8007810000000001,0.9086299999999999
2018-11-01T19:52:33.055306Z,0.849182,-0.73822,-2.544189
2018-11-01T19:52:33.254306Z,0.61261,0.42822299999999996,-0.9103389999999999
2018-11-01T19:52:33.454306Z,-0.1521,-0.842834,1.8048099999999998
2018-11-01T19:52:33.666306Z,0.9944459999999999,0.996704,-0.501648
2018-11-01T19:52:33.857306Z,0.326843,1.82666,0.346802
2018-11-01T19:52:34.054306Z,-1.285583,-0.34387199999999996,1.3329469999999999
2018-11-01T19:52:34.257306Z,-0.086121,0.507202,-1.27179
2018-11-01T19:52:34.454306Z,0.610474,1.14386,-0.4646
2018-11-01T19:52:34.655306Z,0.49121099999999995,-0.6209720000000001,-0.648987
2018-11-01T19:52:34.855306Z,0.107422,1.146118,-1.915771
2018-11-01T19:52:35.080306Z,0.9630129999999999,1.480652,-0.15478499999999998
2018-11-01T19:52:35.258306Z,-0.799744,-0.30011,2.101379
2018-11-01T19:52:35.459306Z,-2.06665,-1.342529,-0.042725
2018-11-01T19:52:35.655306Z,-2.436768,-1.278931,-2.4974979999999998
2018-11-01T19:52:35.855306Z,-0.143188,0.274841,0.185791
2018-11-01T19:52:36.075306Z,-0.219604,-0.490234,-0.05072
2018-11-01T19:52:36.254306Z,0.391113,-1.123779,0.369629
2018-11-01T19:52:36.454306Z,-0.829895,-0.246094,-0.670715
2018-11-01T19:52:36.654306Z,-0.667419,-0.108643,-0.385437
2018-11-01T19:52:36.854306Z,-0.903992,-0.606689,1.9948119999999998
2018-11-01T19:52:37.054306Z,-1.351257,-1.223755,0.17218
2018-11-01T19:52:37.254306Z,-1.8131709999999999,-0.653442,-0.714661
2018-11-01T19:52:37.460306Z,-1.595032,0.043151999999999996,-0.009521
2018-11-01T19:52:37.654306Z,-1.322388,0.48126199999999997,-0.9268190000000001
2018-11-01T19:52:37.856306Z,-1.780762,0.564575,-0.638733
2018-11-01T19:52:38.054306Z,-1.490051,0.579651,-0.507263
2018-11-01T19:52:38.255306Z,-0.886108,0.170166,-0.199097
2018-11-01T19:52:38.495306Z,0.291199,-1.156982,0.056824
2018-11-01T19:52:38.655306Z,-0.273071,-0.9949950000000001,-0.203491
2018-11-01T19:52:38.854306Z,-0.795288,-0.443359,-0.43158
2018-11-01T19:52:39.055306Z,-0.171692,-0.497742,-0.068909
2018-11-01T19:52:39.255306Z,-0.585571,0.7226560000000001,0.43273900000000004
2018-11-01T19:52:39.533306Z,0.21405,0.957275,-0.079529
2018-11-01T19:52:39.654306Z,-0.753479,0.542542,0.664246
2018-11-01T19:52:39.858306Z,-1.206543,-1.188599,0.280579
2018-11-01T19:52:40.055306Z,-1.5234379999999998,0.6115109999999999,-0.002014
2018-11-01T19:52:40.454306Z,-0.743042,0.890808,0.007996
2018-11-01T19:52:40.653306Z,-1.386169,-1.181885,0.6286010000000001
2018-11-01T19:52:40.854306Z,-1.274475,-0.272095,-0.20385699999999998
2018-11-01T19:52:41.060306Z,0.200928,0.106628,0.010071
2018-11-01T19:52:41.260306Z,-0.330322,-0.783569,1.750793
2018-11-01T19:52:41.454306Z,-0.382629,-2.569214,0.086548
2018-11-01T19:52:41.655306Z,0.778992,-0.679199,-0.986267
2018-11-01T19:52:41.861306Z,-0.641235,0.032593000000000004,-0.252869
2018-11-01T19:52:42.054306Z,1.22821,-0.431213,0.217773
2018-11-01T19:52:42.255306Z,0.927307,-0.830933,-0.009644
2018-11-01T19:52:42.456306Z,0.420349,0.7581180000000001,-1.221008
2018-11-01T19:52:42.654306Z,-0.517944,1.14325,1.791504
2018-11-01T19:52:42.869306Z,-1.154907,-0.778625,-1.230652
2018-11-01T19:52:43.053306Z,-1.065002,-1.33075,-0.895325
2018-11-01T19:52:43.254306Z,-1.0375370000000002,-0.5858760000000001,0.20929
2018-11-01T19:52:43.455306Z,-1.252197,-0.20361300000000002,-0.016357
2018-11-01T19:52:43.654306Z,-2.77771,-0.420044,-0.75
2018-11-01T19:52:43.854306Z,-2.164551,0.005005,0.6644899999999999
2018-11-01T19:52:44.054306Z,-0.101746,-0.44281000000000004,0.318298
2018-11-01T19:52:44.254306Z,-0.168579,-1.7209470000000002,0.281921
2018-11-01T19:52:44.454306Z,-0.385254,-0.555481,-0.230042
2018-11-01T19:52:44.670306Z,-0.612915,0.38324,-1.225342
2018-11-01T19:52:44.855306Z,0.207092,-0.640991,0.6596069999999999
2018-11-01T19:52:45.055306Z,-0.46563699999999997,-2.337463,1.000183
2018-11-01T19:52:45.255306Z,0.12054400000000001,-0.8223879999999999,0.322205
2018-11-01T19:52:45.454306Z,0.077454,-0.343018,0.32104499999999997
2018-11-01T19:52:45.655306Z,0.7188720000000001,-1.478882,-0.613342
2018-11-01T19:52:45.854306Z,0.344604,0.008301000000000001,-0.86615
2018-11-01T19:52:46.055306Z,-0.167419,1.2333370000000001,0.229431
2018-11-01T19:52:46.254306Z,-0.6350100000000001,-1.145386,0.8662719999999999
2018-11-01T19:52:46.454306Z,0.600525,-0.49145500000000003,-1.615051
2018-11-01T19:52:46.707306Z,0.41729700000000003,0.259827,-0.14813199999999999
2018-11-01T19:52:46.854306Z,1.271606,0.49658199999999997,-0.104126
2018-11-01T19:52:47.140306Z,1.094482,-1.5625,-0.043091000000000004
2018-11-01T19:52:47.585306Z,0.788147,-0.803528,-1.1273799999999998
2018-11-01T19:52:47.651306Z,-0.382446,2.426819,0.022827
2018-11-01T19:52:47.660306Z,0.46972700000000006,1.2630620000000001,0.371094
2018-11-01T19:52:47.854306Z,0.623291,-0.493774,-1.168823
2018-11-01T19:52:48.056306Z,0.236267,1.382751,-1.657532
2018-11-01T19:52:48.255306Z,-0.0070799999999999995,1.39801,0.662354
2018-11-01T19:52:48.456306Z,0.9240719999999999,-0.636169,-1.278625
2018-11-01T19:52:48.655306Z,0.389343,1.169067,-1.124634
2018-11-01T19:52:48.854306Z,0.09753400000000001,2.6754759999999997,0.984924
2018-11-01T19:52:49.054306Z,0.036864999999999995,-0.44659399999999994,-0.538879
2018-11-01T19:52:49.255306Z,-0.47369399999999995,0.286499,-0.420654
2018-11-01T19:52:49.454306Z,-1.13031,1.890869,-1.131348
2018-11-01T19:52:49.655306Z,0.46521,1.376892,0.35693400000000003
2018-11-01T19:52:49.854306Z,1.576111,-0.094238,-0.28918499999999997
2018-11-01T19:52:50.084306Z,0.009705,0.614563,-1.957703
2018-11-01T19:52:50.254306Z,-0.37146,1.027954,0.054199000000000004
2018-11-01T19:52:50.454306Z,-1.624451,-1.329956,0.12573199999999998
2018-11-01T19:52:50.654306Z,-1.546753,-0.354919,0.185425
2018-11-01T19:52:50.855306Z,-0.47052,0.16497799999999999,-0.002014
2018-11-01T19:52:51.054306Z,0.171448,0.7692869999999999,-0.761658
2018-11-01T19:52:51.254306Z,-0.8125,0.385254,0.650879
2018-11-01T19:52:51.454306Z,0.08343500000000001,0.016479,-0.301025
2018-11-01T19:52:51.654306Z,2.8748169999999997,0.728394,-0.328613
2018-11-01T19:52:51.855306Z,0.19250499999999998,1.108154,0.658142
2018-11-01T19:52:52.055306Z,-0.775146,1.958435,0.663574
2018-11-01T19:52:52.255306Z,-1.113586,-0.895325,2.567871
2018-11-01T19:52:52.455306Z,-0.490234,-1.428894,-0.48895299999999997
2018-11-01T19:52:52.855306Z,-0.371948,0.041138,-0.917175
2018-11-01T19:52:53.054306Z,0.008789,-0.025513,0.151306
2018-11-01T19:52:53.254306Z,-0.24682600000000002,-0.034607,-0.10919200000000001
