Datetime,accx,accy,accz
2018-10-22T23:24:10.687544Z,-0.097107,0.012145999999999999,-1.602234
2018-10-22T23:24:10.880544Z,0.564026,5.046387,-1.718323
2018-10-22T23:24:11.095544Z,-0.265991,2.7457279999999997,-0.9840700000000001
2018-10-22T23:24:11.283544Z,0.513977,-0.30304000000000003,0.667664
2018-10-22T23:24:11.485544Z,0.797791,-1.297241,0.224976
2018-10-22T23:24:11.686544Z,1.240356,-0.122314,-0.7363890000000001
2018-10-22T23:24:11.884544Z,1.338196,0.189392,2.490173
2018-10-22T23:24:12.084544Z,-0.200378,-2.727661,1.0718379999999998
2018-10-22T23:24:12.282544Z,0.360229,-1.0751950000000001,-1.922668
2018-10-22T23:24:12.482544Z,0.6469729999999999,0.16308599999999998,0.37206999999999996
2018-10-22T23:24:12.682544Z,1.449829,-1.651428,2.643311
2018-10-22T23:24:12.883544Z,1.791626,-1.0961299999999998,-2.433716
2018-10-22T23:24:13.083544Z,0.20629899999999998,0.109009,1.3203120000000002
2018-10-22T23:24:13.284544Z,-0.925537,-1.8843990000000002,0.23584000000000002
2018-10-22T23:24:13.479544Z,0.251709,-0.43884300000000004,-1.036255
2018-10-22T23:24:13.682544Z,0.46984899999999996,0.087402,1.3509520000000002
2018-10-22T23:24:13.883544Z,0.06543,-1.8839720000000002,1.503662
2018-10-22T23:24:14.084544Z,0.8754270000000001,-0.676147,2.1277470000000003
2018-10-22T23:24:14.280544Z,0.43396,-0.360291,1.2113040000000002
2018-10-22T23:24:14.483544Z,-0.151917,-2.264954,0.717224
2018-10-22T23:24:14.685544Z,0.102478,-1.102722,0.655151
2018-10-22T23:24:14.884544Z,1.6896360000000001,-0.755981,0.81842
2018-10-22T23:24:15.088544Z,0.603577,-1.587708,2.379211
2018-10-22T23:24:15.290544Z,0.469666,0.254517,0.7700199999999999
2018-10-22T23:24:15.490544Z,-0.494507,-1.490967,0.427551
2018-10-22T23:24:15.683544Z,0.33056599999999997,-0.800964,-1.611816
2018-10-22T23:24:15.883544Z,-1.7566529999999998,1.462524,0.544434
2018-10-22T23:24:16.083544Z,2.712341,-3.364929,1.193054
2018-10-22T23:24:16.283544Z,0.228149,-1.128113,0.762512
2018-10-22T23:24:16.489544Z,0.31195100000000003,-0.85144,0.164429
2018-10-22T23:24:16.728544Z,-0.548706,-1.9825439999999999,2.2623900000000003
2018-10-22T23:24:16.883544Z,-0.383911,-0.5435180000000001,-0.201965
2018-10-22T23:24:17.083544Z,1.038391,-0.595154,0.902283
2018-10-22T23:24:17.284544Z,0.003357,-0.9163819999999999,0.408997
2018-10-22T23:24:17.483544Z,0.284546,0.278564,0.821167
2018-10-22T23:24:17.684544Z,-1.210693,-0.7208859999999999,1.016846
2018-10-22T23:24:17.883544Z,-0.547363,-1.4694209999999999,-0.678833
2018-10-22T23:24:18.090544Z,0.019165,-0.792725,1.78479
2018-10-22T23:24:18.275544Z,0.880188,-1.375183,0.932251
2018-10-22T23:24:18.485544Z,-0.47528100000000006,-0.718811,-1.735596
2018-10-22T23:24:18.685544Z,-0.973267,-1.09491,1.61792
2018-10-22T23:24:18.889544Z,-2.677795,-2.604309,0.165649
2018-10-22T23:24:19.084544Z,-1.905273,-1.1995850000000001,1.167542
2018-10-22T23:24:19.280544Z,-1.096008,-1.855957,1.32019
2018-10-22T23:24:19.483544Z,-2.38147,-0.845886,-0.773315
2018-10-22T23:24:19.683544Z,-2.001099,-0.711853,1.608643
2018-10-22T23:24:19.883544Z,-3.841125,-2.338867,3.300842
2018-10-22T23:24:20.093544Z,-3.074097,-0.173279,-0.74762
2018-10-22T23:24:20.282544Z,-2.820129,0.524353,0.11492899999999999
2018-10-22T23:24:20.490544Z,-4.049011,-0.09753400000000001,0.6174930000000001
2018-10-22T23:24:20.690544Z,-3.639282,0.109802,-0.482422
2018-10-22T23:24:20.884544Z,-3.214783,-0.603394,-1.710388
2018-10-22T23:24:21.083544Z,-2.749146,1.794373,0.395264
2018-10-22T23:24:21.292544Z,-0.653503,2.238037,-1.681152
2018-10-22T23:24:21.483544Z,-1.195374,1.686279,-1.341248
2018-10-22T23:24:21.687544Z,-2.0578,2.753906,-7.6474
2018-10-22T23:24:21.884544Z,-1.552917,2.007996,-0.167969
2018-10-22T23:24:22.091544Z,-1.607178,0.818237,-1.2254639999999999
2018-10-22T23:24:22.291544Z,-1.299744,1.922852,-1.3270870000000001
2018-10-22T23:24:22.483544Z,0.699158,1.994446,1.0420530000000001
2018-10-22T23:24:22.683544Z,-0.8327030000000001,1.0339969999999998,-2.026062
2018-10-22T23:24:22.884544Z,-1.795593,1.275757,-0.190735
2018-10-22T23:24:23.083544Z,-2.248047,-0.25256300000000004,2.295044
2018-10-22T23:24:23.533544Z,-0.944092,0.23773200000000003,-0.561157
2018-10-22T23:24:23.694544Z,-1.3930049999999998,1.475708,-1.670593
2018-10-22T23:24:23.891544Z,-1.126892,0.46832299999999993,-0.15332
2018-10-22T23:24:24.091544Z,-0.9420780000000001,0.46209700000000004,-1.647766
2018-10-22T23:24:24.284544Z,-1.1433719999999998,-0.44213900000000006,-0.75293
2018-10-22T23:24:24.484544Z,0.012451,1.637573,0.44262700000000005
2018-10-22T23:24:24.684544Z,-1.0616459999999999,1.36676,0.764893
2018-10-22T23:24:24.891544Z,-3.5898440000000003,-2.514526,1.792786
2018-10-22T23:24:25.084544Z,-2.3519900000000002,-0.664673,-0.226257
2018-10-22T23:24:25.281544Z,-2.28717,-0.218506,-5.1145629999999995
2018-10-22T23:24:25.490544Z,0.337708,0.19561800000000001,0.20843499999999998
2018-10-22T23:24:25.693544Z,0.460938,-1.957336,2.040955
2018-10-22T23:24:25.886544Z,0.139526,-1.044617,0.705994
2018-10-22T23:24:26.083544Z,-0.749817,-0.195984,0.68988
2018-10-22T23:24:26.284544Z,-0.16284200000000001,-1.1781620000000002,-1.2542719999999998
2018-10-22T23:24:26.484544Z,-0.16381800000000002,-0.5490109999999999,0.331848
2018-10-22T23:24:26.683544Z,-0.254333,0.175964,0.529297
2018-10-22T23:24:26.960544Z,1.5947879999999999,-0.536011,-0.855713
2018-10-22T23:24:27.079544Z,1.260254,0.25647,-1.944031
2018-10-22T23:24:27.283544Z,0.704407,1.211792,0.23278800000000002
2018-10-22T23:24:27.505544Z,-0.49646,-1.575134,2.629028
2018-10-22T23:24:27.698544Z,0.6130979999999999,-0.7731319999999999,-0.867554
2018-10-22T23:24:27.884544Z,-0.337097,0.61731,-0.20153800000000002
2018-10-22T23:24:28.084544Z,1.115356,-1.7423099999999998,4.467224
2018-10-22T23:24:28.283544Z,0.11615,0.8952030000000001,-1.725586
2018-10-22T23:24:28.484544Z,0.32263200000000003,0.215759,1.0089110000000001
2018-10-22T23:24:28.691544Z,-0.100159,-1.46759,0.33868400000000004
2018-10-22T23:24:28.881544Z,-0.378784,0.016846,-0.884338
2018-10-22T23:24:29.083544Z,0.039795,-0.046265,0.504944
2018-10-22T23:24:29.289544Z,-0.96283,-0.652039,0.591797
2018-10-22T23:24:29.485544Z,-1.6622310000000002,-0.6653439999999999,0.414246
2018-10-22T23:24:29.683544Z,-2.969482,-2.844849,2.087646
2018-10-22T23:24:29.884544Z,-1.9356080000000002,-1.152527,-0.9650270000000001
2018-10-22T23:24:30.083544Z,0.155579,0.078735,-0.411621
2018-10-22T23:24:30.282544Z,-1.818787,0.104126,-0.10485799999999999
2018-10-22T23:24:30.482544Z,-0.7696529999999999,-0.591492,-0.793884
2018-10-22T23:24:30.684544Z,-2.5382689999999997,-0.16095,-1.258789
2018-10-22T23:24:30.889544Z,-3.530701,-1.020142,-0.778625
2018-10-22T23:24:31.105544Z,-2.087097,0.193054,1.587891
2018-10-22T23:24:31.291544Z,-1.345276,0.43249499999999996,-0.61438
2018-10-22T23:24:31.492544Z,-2.830139,0.94696,0.04303
2018-10-22T23:24:31.684544Z,-1.9765009999999998,1.002441,-0.561951
2018-10-22T23:24:31.884544Z,-2.94397,2.095703,-0.9020389999999999
2018-10-22T23:24:32.087544Z,-2.92572,-0.078735,-2.901184
2018-10-22T23:24:32.284544Z,-2.545532,2.452454,-0.929199
2018-10-22T23:24:32.483544Z,-1.520142,1.57428,0.906067
2018-10-22T23:24:32.684544Z,-1.301086,1.290833,-1.362549
2018-10-22T23:24:32.881544Z,-0.488708,2.1401369999999997,-1.41864
2018-10-22T23:24:33.083544Z,-2.184814,1.336243,-0.13623
2018-10-22T23:24:33.275544Z,-1.20105,1.602295,-3.041687
2018-10-22T23:24:33.482544Z,-0.422241,1.696289,-0.9873049999999999
2018-10-22T23:24:33.702544Z,0.7913819999999999,0.691833,2.9498290000000003
2018-10-22T23:24:33.880544Z,-0.42651400000000006,1.488953,-3.172241
2018-10-22T23:24:34.083544Z,-0.711792,1.085205,-0.46392799999999995
2018-10-22T23:24:34.284544Z,-0.965088,-0.68988,-0.09643600000000001
2018-10-22T23:24:34.485544Z,-0.71228,-0.778381,1.657532
2018-10-22T23:24:34.681544Z,-0.44818100000000005,-0.173157,-0.8551639999999999
2018-10-22T23:24:34.901544Z,-0.009521,-1.138794,1.385559
2018-10-22T23:24:35.089544Z,1.1334229999999998,-1.255493,0.17938199999999999
2018-10-22T23:24:35.284544Z,-0.51239,-2.616638,0.542908
2018-10-22T23:24:35.485544Z,0.579346,-0.696655,-0.014403999999999998
2018-10-22T23:24:35.684544Z,-1.391968,-1.531555,1.063049
2018-10-22T23:24:35.883544Z,-1.477417,0.618591,-0.7445069999999999
2018-10-22T23:24:36.083544Z,-0.978455,0.682556,-0.448425
2018-10-22T23:24:36.284544Z,0.806458,0.8775629999999999,0.083313
2018-10-22T23:24:36.482544Z,0.697449,-1.547791,2.039917
2018-10-22T23:24:36.689544Z,0.268677,0.311157,-0.44781499999999996
2018-10-22T23:24:36.888544Z,-1.472168,1.8383180000000001,-0.70636
2018-10-22T23:24:37.092544Z,-0.136902,-0.980591,-1.5358889999999998
2018-10-22T23:24:37.283544Z,-0.490479,0.09552000000000001,1.354431
2018-10-22T23:24:37.483544Z,-0.00592,-0.635193,2.457764
2018-10-22T23:24:37.692544Z,0.076599,0.009155,-3.882935
2018-10-22T23:24:37.880544Z,-0.43725600000000003,0.146912,0.325745
2018-10-22T23:24:38.287544Z,-2.304016,-1.9182130000000002,1.962341
2018-10-22T23:24:38.496544Z,-0.5134890000000001,-0.6522220000000001,-0.8225100000000001
2018-10-22T23:24:38.684544Z,0.835815,0.029419,-0.9724729999999999
2018-10-22T23:24:38.884544Z,-0.053223,-1.588501,-1.8378299999999999
2018-10-22T23:24:39.085544Z,-1.198608,-0.14416500000000002,2.05835
2018-10-22T23:24:39.284544Z,-2.2613529999999997,0.828369,1.049927
2018-10-22T23:24:39.483544Z,-1.6449580000000001,-2.732727,0.599731
2018-10-22T23:24:39.684544Z,-2.022583,-1.147644,-0.378906
2018-10-22T23:24:39.890544Z,-1.8574220000000001,0.161987,-0.12793
2018-10-22T23:24:40.104544Z,-2.0776369999999997,-0.12243699999999999,-0.52179
2018-10-22T23:24:40.299544Z,-1.8914790000000001,0.41699200000000003,-0.671021
2018-10-22T23:24:40.502544Z,-1.5896,0.32043499999999997,0.027161
2018-10-22T23:24:40.693544Z,-0.767334,-0.890991,-0.794006
2018-10-22T23:24:40.894544Z,-0.507812,0.9973139999999999,0.177063
2018-10-22T23:24:41.093544Z,-0.14032,0.6682739999999999,-0.302734
2018-10-22T23:24:41.293544Z,-0.088318,0.9017940000000001,-0.528625
2018-10-22T23:24:41.490544Z,-1.6702270000000001,-0.879517,-4.442627
2018-10-22T23:24:41.698544Z,-0.21221900000000002,0.07891799999999999,-0.720276
2018-10-22T23:24:41.901544Z,-0.664307,0.482544,-0.651489
2018-10-22T23:24:42.101544Z,0.169189,-0.541443,-0.8400270000000001
2018-10-22T23:24:42.292544Z,-0.204407,-0.428345,-0.8756709999999999
2018-10-22T23:24:42.497544Z,-0.004333,-0.052612,0.25531
2018-10-22T23:24:42.690544Z,-0.311218,1.075256,-0.631165
2018-10-22T23:24:42.894544Z,-1.336121,-1.04718,-0.891602
2018-10-22T23:24:43.109544Z,-0.378479,-0.070129,-1.161316
2018-10-22T23:24:43.293544Z,-2.163757,1.8092650000000001,-0.401794
2018-10-22T23:24:43.498544Z,0.685791,0.22399899999999998,-1.2231450000000001
2018-10-22T23:24:43.699544Z,-0.677185,-1.3971559999999998,3.110229
2018-10-22T23:24:43.899544Z,-1.175049,0.668762,-0.446716
2018-10-22T23:24:44.093544Z,-0.535095,1.091125,-0.46813999999999995
2018-10-22T23:24:44.292544Z,-0.9471440000000001,-1.7493900000000002,1.48175
2018-10-22T23:24:44.552544Z,-1.223083,-1.645752,-2.1282959999999997
2018-10-22T23:24:44.698544Z,-2.1998290000000003,-0.666504,-0.34936500000000004
2018-10-22T23:24:44.902544Z,-1.503906,-0.17511,-0.6723020000000001
2018-10-22T23:24:45.102544Z,-1.805237,0.005005,-0.048218000000000004
2018-10-22T23:24:45.295544Z,0.410645,0.633484,2.0715939999999997
2018-10-22T23:24:45.495544Z,1.7321779999999998,-0.66333,-1.749634
2018-10-22T23:24:45.693544Z,0.870483,0.8422850000000001,-0.479675
2018-10-22T23:24:45.894544Z,-0.055298,-0.47088599999999997,0.89325
2018-10-22T23:24:46.158544Z,-0.45043900000000003,-1.132751,-1.4995120000000002
2018-10-22T23:24:46.301544Z,0.037964,-0.47747799999999996,-0.580505
2018-10-22T23:24:46.501544Z,0.11981199999999999,-0.629883,-0.173218
2018-10-22T23:24:46.697544Z,1.072449,-1.386536,1.009155
2018-10-22T23:24:46.892544Z,2.3439330000000003,-0.490967,-0.407837
2018-10-22T23:24:47.101544Z,-0.716003,0.318787,-0.517517
2018-10-22T23:24:48.281544Z,-0.122742,1.240173,-0.31451399999999996
2018-10-22T23:24:48.287544Z,-0.31256100000000003,1.085876,0.26318400000000003
2018-10-22T23:24:48.294544Z,-0.731567,0.093323,-2.062073
2018-10-22T23:24:48.300544Z,-0.248901,2.031189,-1.4125370000000002
2018-10-22T23:24:48.306544Z,1.912354,1.8212279999999998,1.261108
2018-10-22T23:24:48.312544Z,0.198669,-0.824951,0.632263
2018-10-22T23:24:48.496544Z,0.390381,0.699707,-0.45068400000000003
2018-10-22T23:24:48.693544Z,-0.169128,1.349548,-0.792419
2018-10-22T23:24:48.886544Z,-1.253662,-0.6129760000000001,-1.327026
2018-10-22T23:24:49.095544Z,0.351135,0.571045,-0.218811
2018-10-22T23:24:49.295544Z,0.5856319999999999,0.406921,-0.138855
2018-10-22T23:24:49.495544Z,0.195801,0.137939,-0.734009
2018-10-22T23:24:49.694544Z,-0.047363,0.583801,-0.282227
2018-10-22T23:24:49.896544Z,-1.3081049999999999,0.645569,0.020996
2018-10-22T23:24:50.107544Z,-0.45996099999999995,0.13525399999999999,-0.46972700000000006
2018-10-22T23:24:50.300544Z,0.106689,-0.080505,0.047057999999999996
2018-10-22T23:24:50.493544Z,0.136536,-0.8760379999999999,2.3228150000000003
2018-10-22T23:24:50.690544Z,0.032593000000000004,0.227661,-2.0650020000000002
2018-10-22T23:24:50.898544Z,-0.084534,0.952026,-0.8788450000000001
2018-10-22T23:24:51.094544Z,-0.740662,0.815979,-0.399597
2018-10-22T23:24:51.289544Z,-0.5629270000000001,-0.3573,-0.906006
2018-10-22T23:24:51.507544Z,0.23822,-0.638245,0.8293459999999999
2018-10-22T23:24:51.695544Z,0.973999,0.5039060000000001,-0.456848
2018-10-22T23:24:51.901544Z,-0.14935299999999999,-0.570923,1.8065189999999998
2018-10-22T23:24:52.097544Z,0.1828,0.6228640000000001,-0.231323
2018-10-22T23:24:52.293544Z,0.225952,-0.5584720000000001,1.0631709999999999
2018-10-22T23:24:52.493544Z,-0.497253,-1.5823969999999998,0.34906
2018-10-22T23:24:52.695544Z,-0.8473510000000001,0.180786,1.2451780000000001
2018-10-22T23:24:52.895544Z,0.980713,-0.153503,0.45599399999999995
2018-10-22T23:24:53.094544Z,-0.217529,-1.240051,1.629761
2018-10-22T23:24:53.495544Z,-0.055908000000000006,-0.248718,0.328308
2018-10-22T23:24:53.694544Z,-0.383423,0.6972659999999999,-0.672791
2018-10-22T23:24:53.900544Z,-0.301819,-1.6999509999999998,0.708862
2018-10-22T23:24:54.091544Z,-1.005005,-0.049622,-0.763123
2018-10-22T23:24:54.294544Z,-0.766724,0.11682100000000001,0.072693
2018-10-22T23:24:54.495544Z,-0.139709,0.299255,-2.0145869999999997
2018-10-22T23:24:54.694544Z,-0.201965,0.485229,-2.5042720000000003
2018-10-22T23:24:54.893544Z,-0.502563,0.359619,-0.091431
2018-10-22T23:24:55.092544Z,-1.144836,-1.873474,0.913025
2018-10-22T23:24:55.293544Z,-0.0061649999999999995,-0.9332889999999999,-0.22796599999999997
2018-10-22T23:24:55.501544Z,-0.7281489999999999,0.23645,-0.504211
2018-10-22T23:24:55.699544Z,-0.16430699999999998,-0.080872,-3.437012
2018-10-22T23:24:55.904544Z,0.327332,-0.45105,-0.7562260000000001
2018-10-22T23:24:56.095544Z,-0.215454,-0.025574,0.112061
2018-10-22T23:24:56.296544Z,0.005493,-1.773987,0.211243
2018-10-22T23:24:56.503544Z,-0.382751,-0.152832,-0.16449
2018-10-22T23:24:56.696544Z,0.516113,-0.502075,0.532104
2018-10-22T23:24:56.895544Z,1.407593,-1.1583860000000001,-0.904968
2018-10-22T23:24:57.098544Z,2.09491,-0.043091000000000004,-0.739563
2018-10-22T23:24:57.292544Z,0.63269,0.811951,-1.055725
2018-10-22T23:24:57.493544Z,0.25177,1.516907,0.091919
2018-10-22T23:24:57.692544Z,0.304138,-1.0979,0.48742700000000005
2018-10-22T23:24:57.892544Z,-0.344788,0.60144,-0.08252000000000001
2018-10-22T23:24:58.090544Z,-0.559998,1.392822,-0.446655
2018-10-22T23:24:58.292544Z,0.8869020000000001,-0.577026,2.295715
2018-10-22T23:24:58.494544Z,-0.135925,0.80542,-2.399536
2018-10-22T23:24:58.698544Z,-0.365479,0.218811,-0.091248
2018-10-22T23:24:58.893544Z,-1.645996,-1.689819,3.355774
2018-10-22T23:24:59.094544Z,-0.909119,-0.636169,-1.992188
2018-10-22T23:24:59.308544Z,0.05139199999999999,-0.023621,1.073608
2018-10-22T23:24:59.509544Z,0.100098,-0.146301,0.312805
2018-10-22T23:24:59.692544Z,-0.052428999999999996,-0.126038,-1.135071
2018-10-22T23:24:59.895544Z,-0.377197,-0.138794,1.102783
2018-10-22T23:25:00.155544Z,-0.817688,-1.848877,-0.5509029999999999
2018-10-22T23:25:00.290544Z,-0.397034,-0.891968,-0.05139199999999999
2018-10-22T23:25:00.502544Z,0.39050300000000004,0.266663,-0.283508
2018-10-22T23:25:00.711544Z,-0.9785159999999999,-1.076904,3.046997
2018-10-22T23:25:00.906544Z,-0.033752,0.344238,-0.830566
2018-10-22T23:25:01.093544Z,-0.9780270000000001,0.18548599999999998,-0.39978
2018-10-22T23:25:01.293544Z,-0.758972,-1.079285,-0.943909
2018-10-22T23:25:01.498544Z,-0.731201,-0.931091,-0.14111300000000002
2018-10-22T23:25:01.694544Z,-0.777161,0.38867199999999996,-0.212952
2018-10-22T23:25:01.899544Z,-0.822937,-1.488892,2.2901
2018-10-22T23:25:02.090544Z,-1.812561,-0.9052120000000001,-1.43103
2018-10-22T23:25:02.311544Z,-1.532471,-1.7059939999999998,0.317078
2018-10-22T23:25:02.514544Z,-2.369873,-2.176575,-0.097351
2018-10-22T23:25:02.691544Z,-3.304932,-1.717712,2.197021
2018-10-22T23:25:02.892544Z,-2.162903,-0.17865,0.525818
2018-10-22T23:25:03.094544Z,-1.5356450000000001,0.993225,-0.24945100000000003
2018-10-22T23:25:03.293544Z,-0.46698,-0.045166000000000005,0.35675
2018-10-22T23:25:03.494544Z,-0.908142,0.78064,-2.1116330000000003
2018-10-22T23:25:03.695544Z,-1.219849,1.887207,0.06366000000000001
2018-10-22T23:25:03.894544Z,-1.524658,-0.411499,1.235535
2018-10-22T23:25:04.092544Z,-1.451843,0.184265,-1.775146
2018-10-22T23:25:04.283544Z,-1.336182,1.3402100000000001,-1.224548
2018-10-22T23:25:04.549544Z,-1.69165,0.8843989999999999,-0.537292
2018-10-22T23:25:04.717544Z,-0.847168,-0.956299,0.263306
2018-10-22T23:25:04.902544Z,-0.942932,-0.74585,-0.459595
2018-10-22T23:25:05.096544Z,-1.6190799999999999,0.23199499999999998,-0.670227
2018-10-22T23:25:05.294544Z,-0.767273,-0.254639,-0.8956299999999999
2018-10-22T23:25:05.503544Z,-1.41095,0.37793000000000004,0.583923
2018-10-22T23:25:05.693544Z,-2.925598,-0.405579,-1.0610959999999998
2018-10-22T23:25:05.897544Z,-1.869202,-0.45892299999999997,-1.359924
2018-10-22T23:25:06.097544Z,-1.650696,0.193115,-0.313416
2018-10-22T23:25:06.294544Z,-0.644897,1.0277100000000001,-0.080505
2018-10-22T23:25:06.494544Z,-0.286072,0.8281860000000001,-0.012329000000000001
2018-10-22T23:25:06.898544Z,-1.2583010000000001,0.863525,0.808228
2018-10-22T23:25:07.090544Z,-0.378418,0.37701399999999996,-1.8067630000000001
2018-10-22T23:25:07.293544Z,-1.2114260000000001,2.028259,-0.458374
2018-10-22T23:25:07.491544Z,-0.384644,1.5401,-0.131165
2018-10-22T23:25:07.694544Z,-1.7362669999999998,-0.6132810000000001,2.049805
2018-10-22T23:25:07.896544Z,-1.722961,-1.543396,0.306091
2018-10-22T23:25:08.093544Z,-1.221741,1.437805,0.276428
2018-10-22T23:25:08.292544Z,-0.693665,1.004883,-0.312073
2018-10-22T23:25:08.492544Z,-1.492737,-0.560791,0.4375
2018-10-22T23:25:08.693544Z,-0.791809,0.302185,0.9558719999999999
2018-10-22T23:25:08.898544Z,-0.701172,0.8691409999999999,-0.7326050000000001
2018-10-22T23:25:09.093544Z,-1.566101,-1.408142,1.257629
2018-10-22T23:25:09.293544Z,-0.986633,0.211365,-1.1503299999999999
2018-10-22T23:25:09.491544Z,0.085266,0.355835,-0.226807
2018-10-22T23:25:09.693544Z,-0.986633,-0.597595,1.431091
2018-10-22T23:25:09.891544Z,-1.756592,0.47949200000000003,-0.986877
2018-10-22T23:25:10.091544Z,-1.744934,-1.631104,-0.09979199999999999
2018-10-22T23:25:10.296544Z,-0.734009,-0.7700199999999999,-0.396606
2018-10-22T23:25:10.496544Z,-0.460876,-1.291992,0.21905500000000003
2018-10-22T23:25:10.693544Z,-0.73468,-1.293762,-0.726929
2018-10-22T23:25:10.894544Z,-1.283752,-0.165955,0.081787
2018-10-22T23:25:11.094544Z,-1.054504,0.35638400000000003,0.30011
2018-10-22T23:25:11.299544Z,-1.022583,1.044189,-0.951965
2018-10-22T23:25:11.494544Z,-0.258484,1.465271,-0.775574
2018-10-22T23:25:11.691544Z,-1.179871,-0.056090999999999995,-0.15564
2018-10-22T23:25:11.905544Z,-1.058655,-1.3695680000000001,1.119446
2018-10-22T23:25:12.096544Z,0.120117,-0.67157,-0.760315
2018-10-22T23:25:12.293544Z,1.086121,-1.6576540000000002,-0.263123
2018-10-22T23:25:12.494544Z,0.8634639999999999,-0.643372,-1.117371
2018-10-22T23:25:12.695544Z,0.321289,-0.555481,0.197144
2018-10-22T23:25:12.897544Z,-0.854675,0.501953,1.2521360000000001
2018-10-22T23:25:13.091544Z,-0.055237,-1.45813,0.281006
2018-10-22T23:25:13.299544Z,0.333496,-0.298584,-0.25061
2018-10-22T23:25:13.494544Z,-0.351501,0.760071,-0.25415
2018-10-22T23:25:13.700544Z,-0.46875,0.458496,0.23779299999999998
2018-10-22T23:25:13.901544Z,0.5763550000000001,-1.074158,1.719971
2018-10-22T23:25:14.111544Z,0.755127,-0.212463,-1.000977
2018-10-22T23:25:14.294544Z,0.310303,0.023865,0.295959
2018-10-22T23:25:14.494544Z,-0.42498800000000003,0.642944,-0.405518
2018-10-22T23:25:14.696544Z,-1.15741,-0.460266,-1.484192
2018-10-22T23:25:14.903544Z,-0.346497,-0.874817,-0.9242549999999999
2018-10-22T23:25:15.105544Z,-0.790894,0.047852,-0.7132569999999999
2018-10-22T23:25:15.293544Z,-0.475342,-0.667786,-0.0063479999999999995
2018-10-22T23:25:15.494544Z,-0.733093,-0.159363,-0.484863
2018-10-22T23:25:15.693544Z,-0.9320069999999999,-0.688599,-0.741516
2018-10-22T23:25:15.900544Z,-1.397522,0.9311520000000001,-0.187927
2018-10-22T23:25:16.093544Z,-0.17999300000000001,0.057495000000000004,0.031006
2018-10-22T23:25:16.295544Z,0.254272,-1.6358030000000001,2.351196
2018-10-22T23:25:16.494544Z,0.525879,-0.8222659999999999,-0.409302
2018-10-22T23:25:16.694544Z,-0.211548,0.311096,-0.7792359999999999
2018-10-22T23:25:16.895544Z,0.079041,0.5863649999999999,-0.117676
2018-10-22T23:25:17.098544Z,-1.197876,-0.42474399999999995,-1.092163
2018-10-22T23:25:17.301544Z,0.204529,-1.6098629999999998,-1.5996700000000001
2018-10-22T23:25:17.495544Z,-0.7877810000000001,-0.192383,-0.038635
2018-10-22T23:25:17.694544Z,-0.8471069999999999,0.378845,1.3480219999999998
2018-10-22T23:25:17.893544Z,-0.20263699999999998,-1.425476,-0.064636
2018-10-22T23:25:18.093544Z,0.157104,-1.409729,0.449097
2018-10-22T23:25:18.300544Z,0.306213,-0.564087,-0.013916
2018-10-22T23:25:18.493544Z,1.289978,-0.353027,-0.016235
2018-10-22T23:25:18.699544Z,0.543335,0.45544399999999996,-0.196655
2018-10-22T23:25:18.910544Z,0.578308,0.146729,0.187256
2018-10-22T23:25:19.104544Z,-0.559631,-0.301331,0.50647
2018-10-22T23:25:19.302544Z,-0.45929,-0.594971,0.20263699999999998
2018-10-22T23:25:19.496544Z,0.173096,0.34558099999999997,-0.492188
2018-10-22T23:25:19.702544Z,-0.253845,0.467163,-0.6439819999999999
2018-10-22T23:25:19.904544Z,1.2185059999999999,0.019226,-0.547668
2018-10-22T23:25:20.104544Z,-0.348877,1.226868,-2.2612919999999996
2018-10-22T23:25:20.304544Z,0.5202640000000001,0.5681149999999999,-0.7969970000000001
2018-10-22T23:25:20.504544Z,0.41345200000000004,0.555542,0.168762
2018-10-22T23:25:20.712544Z,1.053833,-1.427185,1.517639
2018-10-22T23:25:20.914544Z,0.031432999999999996,-1.862122,-0.017273
2018-10-22T23:25:21.110544Z,-0.316284,-0.583679,0.386353
2018-10-22T23:25:21.319544Z,0.272888,-0.271912,0.200256
2018-10-22T23:25:21.510544Z,-0.009155,-0.321533,0.554504
2018-10-22T23:25:21.708544Z,0.511047,0.054749,-0.059021000000000004
2018-10-22T23:25:21.909544Z,0.658691,1.15802,-0.369629
2018-10-22T23:25:22.108544Z,0.158752,1.381042,-0.045531999999999996
2018-10-22T23:25:22.308544Z,0.286438,-1.661255,2.0802
2018-10-22T23:25:22.499544Z,0.42071499999999995,-1.1560059999999999,-0.651306
2018-10-22T23:25:22.703544Z,-0.404846,0.31366,-0.835938
2018-10-22T23:25:22.901544Z,-0.001038,0.43041999999999997,0.687561
2018-10-22T23:25:23.103544Z,0.943909,-1.04126,-0.18743900000000002
2018-10-22T23:25:23.310544Z,0.49523900000000004,0.513062,-2.059082
2018-10-22T23:25:23.504544Z,0.426025,1.062561,-0.687195
2018-10-22T23:25:23.922544Z,-0.136536,0.533508,0.553162
2018-10-22T23:25:24.111544Z,-0.8034060000000001,-1.756104,1.482788
2018-10-22T23:25:24.315544Z,0.215088,-0.315552,-0.296631
2018-10-22T23:25:24.503544Z,-0.340271,0.430725,-0.28631599999999996
2018-10-22T23:25:24.704544Z,0.5119630000000001,-0.8745729999999999,2.12207
2018-10-22T23:25:24.903544Z,0.47106899999999996,-0.085388,-1.672791
2018-10-22T23:25:25.103544Z,0.29681399999999997,0.684326,-0.503052
2018-10-22T23:25:25.303544Z,-1.009277,-0.035644999999999996,1.2373049999999999
2018-10-22T23:25:25.503544Z,-0.249756,-0.971252,-1.052917
2018-10-22T23:25:25.708544Z,0.08935499999999999,-0.18823199999999998,-0.10388199999999999
2018-10-22T23:25:25.909544Z,0.690186,-0.252197,0.07428
2018-10-22T23:25:26.144544Z,-0.503418,-0.9105219999999999,0.195923
2018-10-22T23:25:26.313544Z,-0.42321800000000004,-0.369019,0.854065
2018-10-22T23:25:26.505544Z,-1.775696,-1.086914,1.737122
2018-10-22T23:25:26.707544Z,-2.2953490000000003,-1.686768,-0.07372999999999999
2018-10-22T23:25:26.904544Z,-3.01062,-0.291931,-1.477722
2018-10-22T23:25:27.104544Z,-1.361633,-0.007568000000000001,-0.40679899999999997
2018-10-22T23:25:27.304544Z,-0.7146,-0.517578,0.687561
2018-10-22T23:25:27.505544Z,-1.610657,-1.69812,0.08258099999999999
2018-10-22T23:25:27.704544Z,-0.678772,0.43505900000000003,-0.121399
2018-10-22T23:25:27.904544Z,-1.520508,0.820435,0.353455
2018-10-22T23:25:28.100544Z,-2.753357,-0.246704,-1.49054
2018-10-22T23:25:28.308544Z,-0.067871,-0.488037,-0.736267
2018-10-22T23:25:28.509544Z,-1.4641110000000002,0.71814,0.38818400000000003
2018-10-22T23:25:28.704544Z,-1.6519169999999999,-0.477966,-1.8990479999999998
2018-10-22T23:25:28.903544Z,-1.890991,0.330627,-0.8598629999999999
2018-10-22T23:25:29.165544Z,-1.3500370000000002,0.531433,0.185852
2018-10-22T23:25:29.309544Z,-1.109253,-0.628296,-0.737122
2018-10-22T23:25:29.513544Z,-2.119934,-0.599304,-0.157593
2018-10-22T23:25:29.708544Z,-2.869934,0.676025,-0.59375
2018-10-22T23:25:29.904544Z,-1.556885,1.517517,0.25750700000000004
2018-10-22T23:25:30.101544Z,-0.418213,0.211914,-0.582336
2018-10-22T23:25:30.313544Z,-0.014343,0.123047,-3.125122
2018-10-22T23:25:30.504544Z,0.413574,2.115967,0.298096
2018-10-22T23:25:30.705544Z,-1.367371,1.599365,-1.7833860000000001
2018-10-22T23:25:30.905544Z,-1.356201,-0.684021,-0.592773
2018-10-22T23:25:31.710544Z,-0.904358,0.922852,-1.015503
2018-10-22T23:25:31.716544Z,-0.9703370000000001,0.937683,0.48053
2018-10-22T23:25:31.723544Z,-0.966125,-0.40423600000000004,0.394531
2018-10-22T23:25:31.729544Z,-1.03064,0.176819,-0.039612
2018-10-22T23:25:31.905544Z,-0.680725,1.114075,-1.0448
2018-10-22T23:25:32.106544Z,-0.131714,-0.080078,0.526978
2018-10-22T23:25:32.303544Z,-1.621155,0.595703,-0.686401
2018-10-22T23:25:32.504544Z,-1.3990479999999998,0.529541,-0.37701399999999996
2018-10-22T23:25:32.711544Z,-2.889282,1.505737,-0.8566889999999999
2018-10-22T23:25:32.902544Z,-0.987244,1.241028,-0.102783
2018-10-22T23:25:33.102544Z,-0.292908,-0.558228,2.151245
2018-10-22T23:25:33.305544Z,0.268127,0.513306,-1.023865
2018-10-22T23:25:33.503544Z,0.7223510000000001,1.7824099999999998,-0.60083
2018-10-22T23:25:33.703544Z,-0.062561,1.790039,-1.652832
2018-10-22T23:25:33.905544Z,-2.0181270000000002,0.047852,0.564087
2018-10-22T23:25:34.107544Z,-0.887756,0.565613,-2.250732
2018-10-22T23:25:34.307544Z,-1.7201540000000002,1.983337,-1.024841
2018-10-22T23:25:34.504544Z,-0.091553,-0.159546,-0.161926
2018-10-22T23:25:34.704544Z,-0.070251,0.13983199999999998,-3.690186
2018-10-22T23:25:34.906544Z,0.152649,1.135254,-1.192566
2018-10-22T23:25:35.104544Z,-1.689941,-0.563293,1.260254
2018-10-22T23:25:35.294544Z,-2.248352,-0.23120100000000002,-0.969727
2018-10-22T23:25:35.503544Z,-0.9669190000000001,-0.06304900000000001,0.353821
2018-10-22T23:25:35.771544Z,-0.746155,-0.083374,-0.174377
2018-10-22T23:25:35.918544Z,-0.503052,0.401672,-0.430237
2018-10-22T23:25:36.109544Z,-0.40564,0.472778,-0.437439
2018-10-22T23:25:36.311544Z,-0.45568800000000004,0.502991,-0.946167
2018-10-22T23:25:36.503544Z,-0.457092,1.143738,-0.48193400000000003
2018-10-22T23:25:36.704544Z,0.177002,-0.202209,1.571106
2018-10-22T23:25:36.903544Z,0.13030999999999998,-1.034302,1.2613530000000002
2018-10-22T23:25:37.104544Z,0.658203,-0.082886,1.015625
2018-10-22T23:25:37.303544Z,0.652283,0.430359,0.25402800000000003
2018-10-22T23:25:37.503544Z,0.177673,-2.259949,2.924561
2018-10-22T23:25:38.860544Z,-0.568298,-1.7055049999999998,-0.20965599999999998
2018-10-22T23:25:38.867544Z,-0.6089479999999999,-0.476196,-0.111877
2018-10-22T23:25:38.873544Z,-0.8781129999999999,0.369263,0.112854
2018-10-22T23:25:38.880544Z,-0.037537,-0.16656500000000002,-0.758484
2018-10-22T23:25:38.886544Z,0.057067999999999994,-1.079712,-0.005249
2018-10-22T23:25:38.900544Z,0.159912,-1.217041,-0.115784
2018-10-22T23:25:39.105544Z,0.35638400000000003,-0.601746,0.337402
2018-10-22T23:25:39.308544Z,0.25616500000000003,-0.17804,-0.056701999999999995
2018-10-22T23:25:39.518544Z,-0.12286400000000001,0.055175999999999996,-0.402649
2018-10-22T23:25:39.714544Z,0.412415,0.644043,-0.084229
2018-10-22T23:25:39.915544Z,-0.187927,0.5257569999999999,0.393921
2018-10-22T23:25:40.103544Z,-0.16735799999999998,-0.5976560000000001,0.776245
2018-10-22T23:25:40.304544Z,-0.6528930000000001,-2.124146,-1.1480709999999998
2018-10-22T23:25:40.503544Z,-0.30304000000000003,0.544067,1.645935
2018-10-22T23:25:40.703544Z,-0.21759,-0.083557,0.816345
2018-10-22T23:25:40.903544Z,-0.20636,-1.10144,-1.860413
2018-10-22T23:25:41.101544Z,-0.088928,-0.310974,-1.700439
2018-10-22T23:25:41.327544Z,-0.151062,0.590332,-3.2844849999999997
2018-10-22T23:25:41.506544Z,0.41955600000000004,-0.986389,0.816467
2018-10-22T23:25:41.706544Z,-0.36645500000000003,-1.812866,0.8485719999999999
2018-10-22T23:25:41.908544Z,-0.52832,0.174988,0.343262
2018-10-22T23:25:42.101544Z,0.441833,0.255676,0.316772
2018-10-22T23:25:42.301544Z,-0.016541,-1.586487,0.608887
2018-10-22T23:25:42.517544Z,0.257751,0.369629,0.092712
2018-10-22T23:25:42.702544Z,-0.21991,0.24029499999999998,0.708862
2018-10-22T23:25:42.902544Z,-0.750793,-1.9486080000000001,1.17218
2018-10-22T23:25:43.109544Z,-0.789734,-0.191528,0.418091
2018-10-22T23:25:43.305544Z,0.603577,0.082886,0.582275
2018-10-22T23:25:43.505544Z,0.066589,-1.692078,1.5684200000000001
2018-10-22T23:25:43.705544Z,-0.185974,0.372864,0.827148
2018-10-22T23:25:43.904544Z,-0.275574,1.00531,-0.145752
2018-10-22T23:25:44.104544Z,-0.657776,-2.0123290000000003,0.479004
2018-10-22T23:25:44.304544Z,-0.44470200000000004,-0.372864,0.259155
2018-10-22T23:25:44.503544Z,-0.297668,-0.5878909999999999,0.7109989999999999
2018-10-22T23:25:44.703544Z,-0.348999,-1.329651,0.719971
2018-10-22T23:25:44.907544Z,-0.838684,-0.562683,0.8216549999999999
2018-10-22T23:25:45.105544Z,-1.946838,-1.866638,2.241821
2018-10-22T23:25:45.315544Z,-2.198486,-2.209717,-0.058776999999999996
2018-10-22T23:25:45.510544Z,-2.502319,-0.22466999999999998,0.196411
2018-10-22T23:25:45.708544Z,-1.482361,0.36193800000000004,0.144226
2018-10-22T23:25:45.910544Z,-1.072388,-1.016785,1.132751
2018-10-22T23:25:46.103544Z,-1.702881,0.451904,-0.276917
2018-10-22T23:25:46.303544Z,-1.7848509999999997,0.411682,-1.967529
2018-10-22T23:25:46.501544Z,-2.398987,-0.612671,-0.540771
2018-10-22T23:25:46.700544Z,-1.7037959999999999,0.06274400000000001,-0.8142699999999999
2018-10-22T23:25:46.914544Z,-1.0166629999999999,0.387024,0.17840599999999998
2018-10-22T23:25:47.105544Z,-1.011169,0.28936799999999996,-2.759705
2018-10-22T23:25:47.310544Z,-1.423157,0.411682,-1.2583010000000001
2018-10-22T23:25:47.510544Z,-1.606323,0.301453,0.8909299999999999
2018-10-22T23:25:47.703544Z,-2.088867,-1.280151,-1.092651
2018-10-22T23:25:47.896544Z,-1.968445,0.35754400000000003,-1.031189
2018-10-22T23:25:48.100544Z,-1.6818240000000002,1.050293,-0.009033
2018-10-22T23:25:48.306544Z,-1.065979,-0.597717,-0.417969
2018-10-22T23:25:48.503544Z,-1.11676,0.19458,-2.084045
2018-10-22T23:25:48.712544Z,-1.0385739999999999,1.183594,-0.661011
2018-10-22T23:25:48.916544Z,-1.634155,-1.362732,0.72644
2018-10-22T23:25:49.110544Z,-1.690247,0.100952,-1.2265620000000002
2018-10-22T23:25:49.303544Z,-2.006165,1.363342,-0.414429
2018-10-22T23:25:49.502544Z,-1.330444,-0.49102799999999996,3.153564
2018-10-22T23:25:49.703544Z,-1.396301,-0.016724,-3.061707
2018-10-22T23:25:49.903544Z,-1.880798,0.8760379999999999,0.47747799999999996
2018-10-22T23:25:50.110544Z,-2.547302,-1.411438,3.887207
2018-10-22T23:25:50.303544Z,-1.7092900000000002,0.581238,-1.911255
2018-10-22T23:25:50.505544Z,-1.38855,1.6828,0.602905
2018-10-22T23:25:50.710544Z,-0.638916,-0.120972,0.5922850000000001
2018-10-22T23:25:51.110544Z,-1.09552,0.8959959999999999,-2.476624
2018-10-22T23:25:51.372544Z,-1.2788700000000002,0.9332889999999999,-0.021851
2018-10-22T23:25:51.504544Z,-1.0908200000000001,-0.263,-0.063416
2018-10-22T23:25:51.716544Z,-0.8482059999999999,-0.295471,-1.551758
2018-10-22T23:25:51.923544Z,-2.24707,1.032166,-2.977905
2018-10-22T23:25:52.101544Z,-0.313477,1.702332,-0.817749
2018-10-22T23:25:52.304544Z,0.22045900000000002,1.713501,-2.130859
2018-10-22T23:25:52.504544Z,-0.17346199999999998,0.435913,-0.406738
2018-10-22T23:25:52.703544Z,-0.930908,1.341064,-0.236145
2018-10-22T23:25:52.957544Z,-0.8685299999999999,-0.103699,0.687439
2018-10-22T23:25:53.103544Z,-1.606262,-0.71521,-1.349731
2018-10-22T23:25:53.306544Z,-1.3065799999999999,0.21820100000000003,-0.209473
2018-10-22T23:25:53.511544Z,-1.2896729999999998,1.103638,0.172974
2018-10-22T23:25:53.711544Z,-1.566711,0.211548,-1.523682
2018-10-22T23:25:53.902544Z,-2.006653,0.97467,-1.9774169999999998
2018-10-22T23:25:54.105544Z,-1.719116,0.983093,0.194458
2018-10-22T23:25:54.303544Z,-2.671265,-1.098877,-2.4740599999999997
2018-10-22T23:25:54.503544Z,-1.6117549999999998,0.20459000000000002,-1.194519
2018-10-22T23:25:54.703544Z,-0.496521,1.223083,-0.9144899999999999
2018-10-22T23:25:54.905544Z,-0.873718,-0.717834,0.51947
2018-10-22T23:25:55.112544Z,-1.19751,1.305481,0.612
2018-10-22T23:25:55.304544Z,-1.5230709999999998,0.880798,0.315735
2018-10-22T23:25:55.510544Z,-1.938416,-0.545654,0.43493699999999996
2018-10-22T23:25:55.714544Z,-1.12323,1.3302610000000001,0.019897
2018-10-22T23:25:55.907544Z,-1.9404299999999999,0.511658,2.2807619999999997
2018-10-22T23:25:56.104544Z,-1.0865479999999998,0.875,-2.6948849999999998
2018-10-22T23:25:56.304544Z,-0.821594,1.084167,-0.9566040000000001
2018-10-22T23:25:56.523544Z,-1.8976439999999999,-1.044617,2.936157
2018-10-22T23:25:56.704544Z,-0.957153,0.668701,-2.465027
2018-10-22T23:25:56.909544Z,-1.535706,1.4055790000000001,-0.24102800000000002
2018-10-22T23:25:57.108544Z,-0.444458,-0.47955299999999995,0.692627
2018-10-22T23:25:57.304544Z,-0.653442,1.2875370000000002,-2.6534419999999996
2018-10-22T23:25:57.506544Z,-0.347412,1.526367,0.224304
2018-10-22T23:25:57.705544Z,-0.844299,-0.473267,1.457336
2018-10-22T23:25:57.905544Z,-0.203369,-0.039917,-1.012451
2018-10-22T23:25:58.104544Z,-0.728638,0.48895299999999997,-1.239868
2018-10-22T23:25:58.303544Z,-0.781555,-0.053589,0.20654299999999998
2018-10-22T23:25:58.506544Z,-0.716064,-0.435486,1.304138
2018-10-22T23:25:58.704544Z,0.095459,0.508484,0.161133
2018-10-22T23:25:58.903544Z,-0.769165,0.9622799999999999,-0.5872189999999999
2018-10-22T23:25:59.118544Z,-0.083984,0.9238280000000001,0.23571799999999998
2018-10-22T23:25:59.319544Z,-0.898193,-0.517517,1.236633
2018-10-22T23:25:59.503544Z,-0.802429,-0.9609989999999999,0.133606
2018-10-22T23:25:59.694544Z,-1.13446,0.5119020000000001,-0.8473510000000001
2018-10-22T23:25:59.902544Z,-0.685913,0.48138400000000003,-0.635559
2018-10-22T23:26:00.102544Z,-0.448669,-1.966431,3.5899050000000003
2018-10-22T23:26:00.302544Z,-0.07482899999999999,1.392517,-0.7252810000000001
2018-10-22T23:26:00.502544Z,-0.324341,0.096191,-1.399231
2018-10-22T23:26:00.717544Z,-0.441895,-0.22998000000000002,1.012451
2018-10-22T23:26:00.909544Z,-2.374695,-0.6837770000000001,-1.094666
2018-10-22T23:26:01.107544Z,-2.6340939999999997,-0.34075900000000003,-0.9966430000000001
2018-10-22T23:26:01.326544Z,-0.485229,-0.014099,-1.286865
2018-10-22T23:26:01.503544Z,-1.2456049999999999,0.9496459999999999,-0.946838
2018-10-22T23:26:01.703544Z,-1.026917,-0.489807,1.022522
2018-10-22T23:26:01.904544Z,-1.001709,0.774292,-0.480896
2018-10-22T23:26:02.104544Z,-0.882141,0.299133,0.03772
2018-10-22T23:26:02.305544Z,-1.476135,-0.978455,-2.5551150000000002
2018-10-22T23:26:02.504544Z,-1.835388,-0.255249,-1.091675
2018-10-22T23:26:03.880544Z,-1.0627440000000001,0.5249020000000001,-0.943298
2018-10-22T23:26:03.886544Z,-1.010559,0.216919,-0.413757
2018-10-22T23:26:03.893544Z,0.126709,-1.2982790000000002,0.9417719999999999
2018-10-22T23:26:03.899544Z,-0.20849600000000001,-0.60437,0.170776
2018-10-22T23:26:03.906544Z,0.087158,-0.11969,-0.692322
2018-10-22T23:26:03.911544Z,-1.026733,0.022461000000000002,0.6984859999999999
2018-10-22T23:26:03.918544Z,-1.0616459999999999,-1.3286129999999998,-0.554871
2018-10-22T23:26:04.106544Z,-2.546875,-0.36486799999999997,-0.776062
2018-10-22T23:26:04.506544Z,-2.03064,-1.025391,-0.813843
2018-10-22T23:26:04.704544Z,-1.165405,-1.05719,0.294983
2018-10-22T23:26:04.904544Z,-0.407776,0.288269,0.010620000000000001
2018-10-22T23:26:05.107544Z,-0.55957,0.952759,-0.199524
2018-10-22T23:26:05.304544Z,0.065247,0.366394,-1.271362
2018-10-22T23:26:05.503544Z,-0.140442,0.173279,-0.211182
2018-10-22T23:26:05.704544Z,-0.358337,0.415588,-0.525452
2018-10-22T23:26:05.905544Z,-0.091187,0.315735,-0.313171
2018-10-22T23:26:06.106544Z,-0.569946,0.5158689999999999,-0.341125
2018-10-22T23:26:06.304544Z,-0.08520499999999999,-0.21905500000000003,-0.128479
2018-10-22T23:26:06.503544Z,-0.553894,-0.69812,-0.189697
2018-10-22T23:26:06.702544Z,-1.182007,0.304138,0.38385
2018-10-22T23:26:06.903544Z,-0.283997,-0.237183,0.398376
2018-10-22T23:26:07.102544Z,-1.996155,-0.738159,0.370667
2018-10-22T23:26:07.304544Z,-1.092041,-0.035889,0.108643
2018-10-22T23:26:07.512544Z,-0.076538,-0.215027,-0.402588
2018-10-22T23:26:07.734544Z,-1.488464,-1.415405,1.6574099999999998
2018-10-22T23:26:07.920544Z,-2.151123,-0.599548,-0.760437
2018-10-22T23:26:08.114544Z,-1.139343,0.333557,-1.079468
2018-10-22T23:26:08.313544Z,0.696655,1.514343,0.150269
2018-10-22T23:26:08.531544Z,-0.46728500000000006,0.176147,-1.344666
2018-10-22T23:26:08.714544Z,-0.564941,-0.954102,0.794617
2018-10-22T23:26:08.913544Z,-0.18090799999999999,0.293823,0.271301
2018-10-22T23:26:09.120544Z,-0.177368,0.528809,-0.066528
2018-10-22T23:26:09.313544Z,-1.8477169999999998,-0.829102,-1.9563599999999999
2018-10-22T23:26:09.527544Z,-1.41925,0.022705,-1.2747190000000002
2018-10-22T23:26:09.716544Z,-0.7265010000000001,0.180786,0.622559
2018-10-22T23:26:09.919544Z,-1.289917,-0.134705,-1.411499
2018-10-22T23:26:10.115544Z,-2.497559,-0.175781,-0.505981
2018-10-22T23:26:10.313544Z,-3.332703,-1.292297,-0.141846
2018-10-22T23:26:10.513544Z,-2.823242,-0.907043,-0.822693
2018-10-22T23:26:10.721544Z,-0.8933110000000001,0.992981,0.276001
2018-10-22T23:26:10.913544Z,-1.2664790000000001,-0.657532,2.930542
2018-10-22T23:26:11.113544Z,-0.667786,0.393433,-2.439575
2018-10-22T23:26:11.319544Z,-0.365051,0.838684,0.458496
2018-10-22T23:26:11.516544Z,-0.593567,-0.017334,1.9414060000000002
2018-10-22T23:26:11.717544Z,0.8695069999999999,-0.127136,-1.388367
2018-10-22T23:26:11.919544Z,-0.767517,0.21234099999999997,-0.287354
2018-10-22T23:26:12.120544Z,0.67572,-1.580566,1.203064
2018-10-22T23:26:12.336544Z,-0.203735,-0.24536100000000002,-0.209351
2018-10-22T23:26:12.513544Z,-2.179626,0.695862,-0.24273699999999998
2018-10-22T23:26:12.714544Z,-2.041626,-0.748413,-1.952759
2018-10-22T23:26:12.915544Z,-0.12658699999999998,0.275818,0.362427
2018-10-22T23:26:13.113544Z,0.08252000000000001,-1.282837,0.93811
2018-10-22T23:26:13.313544Z,0.219849,0.020752,-1.551453
2018-10-22T23:26:13.596544Z,-1.872925,0.8884280000000001,2.12561
2018-10-22T23:26:13.711544Z,-1.2434690000000002,-1.7443240000000002,-0.762512
2018-10-22T23:26:13.904544Z,-0.308105,-0.951233,-0.59021
2018-10-22T23:26:14.119544Z,-0.14935299999999999,0.188538,-0.32611100000000004
2018-10-22T23:26:14.312544Z,-0.197876,-0.843201,0.7757569999999999
2018-10-22T23:26:14.526544Z,0.168396,-0.145813,-0.961304
2018-10-22T23:26:14.713544Z,0.091309,0.540161,0.920227
2018-10-22T23:26:14.913544Z,-0.8788450000000001,-1.1245120000000002,1.204651
2018-10-22T23:26:15.115544Z,-1.103394,-0.943665,-0.334534
2018-10-22T23:26:15.318544Z,-0.46563699999999997,0.7070310000000001,0.104675
2018-10-22T23:26:15.521544Z,-0.039062,-0.5863649999999999,-0.658203
2018-10-22T23:26:15.719544Z,-0.29284699999999997,-1.1091309999999999,-1.208923
2018-10-22T23:26:15.915544Z,-0.36120599999999997,0.469971,0.096252
2018-10-22T23:26:16.114544Z,-0.994568,-0.583435,2.269531
2018-10-22T23:26:16.313544Z,-0.6994630000000001,-1.4633180000000001,-0.10790999999999999
2018-10-22T23:26:16.510544Z,-0.929565,-0.37988299999999997,-0.685669
2018-10-22T23:26:16.723544Z,-0.308716,0.159607,-0.07110599999999999
2018-10-22T23:26:16.916544Z,-1.107544,-1.1802979999999998,3.4553830000000003
2018-10-22T23:26:17.112544Z,0.239197,-0.407227,-2.068542
2018-10-22T23:26:17.312544Z,-0.319397,-0.24456799999999998,0.008362
2018-10-22T23:26:17.522544Z,-0.71875,-1.332336,2.59552
2018-10-22T23:26:17.714544Z,0.34362800000000004,-0.971558,-0.095032
2018-10-22T23:26:17.927544Z,0.244141,-0.760193,1.1942139999999999
2018-10-22T23:26:18.315544Z,1.307251,-1.0865479999999998,-0.664551
2018-10-22T23:26:18.512544Z,1.088379,-0.013489,-1.170654
2018-10-22T23:26:18.718544Z,0.8598020000000001,0.49261499999999997,-0.9245
2018-10-22T23:26:18.910544Z,0.148254,1.32843,0.34081999999999996
2018-10-22T23:26:19.119544Z,-0.22937,-0.576538,0.8673709999999999
2018-10-22T23:26:19.314544Z,0.07067899999999999,-0.484192,-1.696655
2018-10-22T23:26:19.513544Z,-0.550354,0.6984859999999999,-0.385986
2018-10-22T23:26:19.723544Z,-0.138733,0.602478,0.289612
2018-10-22T23:26:19.915544Z,0.23345900000000003,-0.406738,-0.503479
2018-10-22T23:26:20.115544Z,0.42926000000000003,-0.190247,-2.534973
2018-10-22T23:26:20.321544Z,-0.6757810000000001,0.307373,0.425842
2018-10-22T23:26:20.521544Z,-1.2387700000000001,-2.214539,-0.531555
2018-10-22T23:26:20.728544Z,-1.622192,-1.367004,-0.732544
2018-10-22T23:26:20.912544Z,-0.360046,-1.146973,-0.17804
2018-10-22T23:26:21.113544Z,-0.8884280000000001,-0.31237800000000004,-0.256897
2018-10-22T23:26:21.321544Z,-1.907471,-1.5128780000000002,0.511414
2018-10-22T23:26:21.513544Z,-1.184998,-0.21447800000000003,0.285828
2018-10-22T23:26:22.949544Z,-0.886963,0.331909,-0.046143
2018-10-22T23:26:22.955544Z,-1.838928,-1.1713870000000002,-2.524475
2018-10-22T23:26:22.962544Z,-0.647949,-0.9790040000000001,2.489563
2018-10-22T23:26:22.968544Z,-1.36084,0.472229,-3.149048
2018-10-22T23:26:22.974544Z,-1.368591,-0.22796599999999997,0.8338620000000001
2018-10-22T23:26:22.980544Z,0.255249,-0.169067,-1.222717
2018-10-22T23:26:22.986544Z,-0.37262,-0.658142,0.41845699999999997
2018-10-22T23:26:23.113544Z,-0.375854,0.5878909999999999,-0.12103299999999999
2018-10-22T23:26:23.314544Z,-2.3377689999999998,-0.154358,-1.858582
2018-10-22T23:26:23.513544Z,-4.37561,-0.142395,-1.8264770000000001
2018-10-22T23:26:23.712544Z,-1.493652,-1.4697879999999999,0.5584720000000001
2018-10-22T23:26:23.914544Z,-1.7130130000000001,-0.9420780000000001,0.636047
2018-10-22T23:26:24.147544Z,-1.416382,-0.577087,-1.2432860000000001
2018-10-22T23:26:24.316544Z,-2.149475,0.0047,-0.438904
2018-10-22T23:26:24.514544Z,-2.360657,-0.18158,-0.183777
2018-10-22T23:26:24.712544Z,-1.252075,-0.016724,-0.602783
2018-10-22T23:26:24.913544Z,-0.270752,0.803833,-0.671692
2018-10-22T23:26:25.116544Z,-0.8639530000000001,-1.090454,3.0085450000000002
2018-10-22T23:26:25.312544Z,-0.19519,-0.43286099999999994,-1.4641110000000002
2018-10-22T23:26:25.513544Z,-0.9996950000000001,0.632568,-0.558289
2018-10-22T23:26:25.715544Z,-1.266235,0.44226099999999996,0.480347
2018-10-22T23:26:25.929544Z,-1.300049,-0.596558,-2.586304
2018-10-22T23:26:26.121544Z,-1.1958010000000001,0.606812,-0.600891
2018-10-22T23:26:26.314544Z,-0.644165,0.6184689999999999,0.27124000000000004
2018-10-22T23:26:26.514544Z,-0.878296,-0.9052120000000001,-0.9383540000000001
2018-10-22T23:26:26.714544Z,-0.211243,-0.388,-0.790405
2018-10-22T23:26:26.913544Z,-0.686951,0.562012,0.105103
2018-10-22T23:26:27.121544Z,-0.22229000000000002,-1.437927,0.305115
2018-10-22T23:26:27.321544Z,0.8486940000000001,-1.4528809999999999,-0.821106
2018-10-22T23:26:27.519544Z,0.666626,-1.4916989999999999,1.38739
2018-10-22T23:26:27.718544Z,0.93811,0.36694299999999996,-0.243042
2018-10-22T23:26:27.921544Z,-0.067505,0.680237,0.026427999999999997
2018-10-22T23:26:28.114544Z,1.1380620000000001,-0.778625,2.6729130000000003
2018-10-22T23:26:28.313544Z,-0.904724,0.100647,-1.282593
2018-10-22T23:26:28.513544Z,-0.9124760000000001,0.448608,-0.8510129999999999
2018-10-22T23:26:28.714544Z,-0.5275270000000001,1.021606,-1.1226200000000002
2018-10-22T23:26:28.906544Z,0.549866,1.040039,-1.2677
2018-10-22T23:26:29.120544Z,0.48095699999999997,-1.1206049999999999,2.772278
2018-10-22T23:26:29.316544Z,-0.179321,-0.401062,-0.579346
2018-10-22T23:26:29.514544Z,0.325928,0.41290299999999996,0.290894
2018-10-22T23:26:29.711544Z,-0.399902,-2.120117,3.229675
2018-10-22T23:26:29.914544Z,-1.267822,-1.843323,0.414185
2018-10-22T23:26:30.114544Z,-3.2003169999999996,-1.354309,-0.6723020000000001
2018-10-22T23:26:30.312544Z,-0.028748000000000003,-1.367371,0.084412
2018-10-22T23:26:30.509544Z,1.135498,-1.067017,-0.8773799999999999
2018-10-22T23:26:30.793544Z,-0.205261,-1.139038,-0.231567
2018-10-22T23:26:31.000544Z,-1.189941,-0.8322139999999999,-0.338928
2018-10-22T23:26:31.194544Z,-3.381958,0.537964,-0.087646
2018-10-22T23:26:31.403544Z,-1.935974,0.822693,0.464478
2018-10-22T23:26:31.593544Z,-1.1214600000000001,0.651306,-0.6286619999999999
2018-10-22T23:26:31.793544Z,-0.004028,-0.738708,-2.091675
2018-10-22T23:26:31.993544Z,-0.299622,-0.049132999999999996,-1.743225
2018-10-22T23:26:32.195544Z,-1.085999,1.275024,-0.253662
2018-10-22T23:26:32.396544Z,-1.508789,-0.858459,1.390259
2018-10-22T23:26:32.638544Z,-1.869995,-1.300781,0.034789999999999995
2018-10-22T23:26:32.810544Z,-1.986633,0.374023,-0.99231
2018-10-22T23:26:32.991544Z,-1.6624150000000002,1.022644,0.96344
2018-10-22T23:26:33.200544Z,-0.231384,-0.131775,-2.185913
2018-10-22T23:26:33.393544Z,-0.9802860000000001,-0.26452600000000004,-1.015442
2018-10-22T23:26:33.593544Z,-1.096741,0.42865,-0.266907
2018-10-22T23:26:33.788544Z,-1.427612,-1.531311,-0.636414
2018-10-22T23:26:33.993544Z,-0.23144499999999998,-1.2144780000000002,-0.31738299999999997
2018-10-22T23:26:34.183544Z,-0.729553,-0.693787,0.502991
2018-10-22T23:26:34.409544Z,0.182007,-2.215332,1.928345
2018-10-22T23:26:34.607544Z,0.699951,-0.907593,0.115723
2018-10-22T23:26:34.792544Z,-0.092102,-0.14141800000000002,-0.570679
2018-10-22T23:26:34.995544Z,1.417297,1.0697020000000002,-0.645813
2018-10-22T23:26:35.194544Z,0.597046,-1.6880490000000001,1.218689
2018-10-22T23:26:35.393544Z,0.030883999999999998,-1.5534059999999998,0.299622
2018-10-22T23:26:35.594544Z,-1.0040280000000001,0.112488,-0.162109
2018-10-22T23:26:35.794544Z,-0.020508000000000002,0.635193,-1.641968
2018-10-22T23:26:35.997544Z,-0.267029,1.294617,1.218933
2018-10-22T23:26:36.198544Z,1.5726930000000001,-1.130737,0.533813
2018-10-22T23:26:36.416544Z,1.032349,-1.053467,-2.264832
2018-10-22T23:26:36.594544Z,1.514648,0.5588989999999999,0.032532
2018-10-22T23:26:36.999544Z,1.828552,0.520508,-0.702759
2018-10-22T23:26:37.194544Z,1.049683,0.539978,-0.322327
2018-10-22T23:26:37.393544Z,0.153137,2.07428,0.5002439999999999
2018-10-22T23:26:37.594544Z,0.42858900000000005,-0.023254,1.263855
2018-10-22T23:26:37.798544Z,-0.25354,-0.644592,-0.9889530000000001
2018-10-22T23:26:37.993544Z,-0.42266800000000004,0.706116,-0.92627
2018-10-22T23:26:38.194544Z,-0.25793499999999997,1.7567139999999999,-0.434204
2018-10-22T23:26:38.395544Z,-0.184021,-0.48113999999999996,2.0985720000000003
2018-10-22T23:26:38.597544Z,0.7445069999999999,0.288696,0.419495
2018-10-22T23:26:38.790544Z,-0.337158,1.2114260000000001,-0.31738299999999997
2018-10-22T23:26:38.999544Z,-0.565674,0.743042,0.23492399999999997
2018-10-22T23:26:39.201544Z,0.108215,-0.62854,0.09197999999999999
2018-10-22T23:26:39.402544Z,0.339783,0.561279,-0.891724
2018-10-22T23:26:39.593544Z,0.454712,1.440491,1.372681
2018-10-22T23:26:39.794544Z,1.69812,-0.15673800000000002,-0.399841
2018-10-22T23:26:40.023544Z,0.261719,0.9127200000000001,-0.462524
2018-10-22T23:26:40.199544Z,0.351501,0.791931,-0.545715
2018-10-22T23:26:40.393544Z,-1.3393549999999999,-0.184326,0.011658
2018-10-22T23:26:40.593544Z,-0.162354,0.515259,-0.6325069999999999
2018-10-22T23:26:40.874544Z,0.44696,0.792908,0.28949
2018-10-22T23:26:41.000544Z,0.335327,-0.723999,1.350586
2018-10-22T23:26:41.195544Z,-0.098816,-0.073608,-0.182007
2018-10-22T23:26:41.410544Z,0.8427120000000001,0.100952,-0.42089799999999994
2018-10-22T23:26:41.595544Z,0.45654300000000003,0.028442000000000002,-1.159363
2018-10-22T23:26:41.803544Z,-1.241516,1.267944,0.263
2018-10-22T23:26:41.994544Z,-0.386902,1.003479,-0.381409
2018-10-22T23:26:42.193544Z,0.23791500000000002,0.706055,0.34936500000000004
2018-10-22T23:26:42.394544Z,0.267029,-0.630676,1.405151
2018-10-22T23:26:42.595544Z,-0.43158,0.174072,-0.183044
2018-10-22T23:26:42.794544Z,0.292908,0.341614,0.421509
2018-10-22T23:26:42.993544Z,-0.46575900000000003,-0.721191,-1.7733150000000002
2018-10-22T23:26:43.206544Z,-0.157898,-0.5429689999999999,-1.072449
2018-10-22T23:26:43.413544Z,-0.48132299999999995,-0.176086,-0.189636
2018-10-22T23:26:43.593544Z,-1.4909059999999998,0.543945,-0.075928
2018-10-22T23:26:43.800544Z,-1.306274,0.071289,-0.970825
2018-10-22T23:26:43.994544Z,-1.919556,0.883667,-0.504761
2018-10-22T23:26:44.193544Z,-0.131714,0.8636469999999999,-0.24865700000000002
2018-10-22T23:26:44.397544Z,0.654968,-0.959412,0.067322
2018-10-22T23:26:44.593544Z,0.31738299999999997,-0.639893,-1.249695
2018-10-22T23:26:44.794544Z,-0.602539,0.7547,-0.169983
2018-10-22T23:26:45.000544Z,-1.016846,-0.633789,-0.098511
2018-10-22T23:26:45.200544Z,-1.5115969999999999,-0.295105,1.568665
2018-10-22T23:26:45.405544Z,-2.063599,-0.247986,0.759644
2018-10-22T23:26:45.595544Z,-1.203552,-1.133545,-0.5349729999999999
2018-10-22T23:26:45.793544Z,-1.100708,-0.140991,-1.06958
2018-10-22T23:26:46.002544Z,-0.405212,-0.37298600000000004,-1.049561
2018-10-22T23:26:46.238544Z,-0.632629,-0.34320100000000003,-0.626709
2018-10-22T23:26:46.405544Z,-0.7479859999999999,0.052124000000000004,-0.136047
2018-10-22T23:26:46.598544Z,-0.8787229999999999,0.215271,-0.553467
2018-10-22T23:26:46.799544Z,-0.9707030000000001,0.032837,-0.311523
2018-10-22T23:26:46.992544Z,-0.703125,0.671936,-0.012878
2018-10-22T23:26:47.190544Z,-0.354675,0.160339,0.168518
2018-10-22T23:26:47.400544Z,-0.038086,-1.526062,1.480957
2018-10-22T23:26:47.611544Z,0.594849,-0.542114,-0.6754760000000001
2018-10-22T23:26:47.794544Z,0.405579,0.353027,-0.271851
2018-10-22T23:26:48.000544Z,0.092834,-0.021422999999999998,-0.267883
2018-10-22T23:26:48.184544Z,-1.5509030000000001,-1.3050540000000002,-0.9931030000000001
2018-10-22T23:26:48.404544Z,-0.20538299999999998,-0.078064,-0.292236
2018-10-22T23:26:48.593544Z,0.9575809999999999,-0.49291999999999997,0.083557
2018-10-22T23:26:49.001544Z,-1.063965,-1.5317379999999998,2.0128169999999996
2018-10-22T23:26:49.195544Z,-0.3703,-0.583679,0.16095
2018-10-22T23:26:49.400544Z,-0.019958,-1.619263,3.240845
2018-10-22T23:26:49.592544Z,1.212402,-1.614319,-0.22894299999999998
2018-10-22T23:26:49.796544Z,0.783142,-0.9324950000000001,0.909058
2018-10-22T23:26:49.995544Z,2.245911,-2.261108,1.0827639999999998
2018-10-22T23:26:50.193544Z,1.87915,1.473633,-0.51062
2018-10-22T23:26:50.393544Z,0.55957,1.9224849999999998,-0.106262
2018-10-22T23:26:50.603544Z,0.314087,-0.040283,0.31048600000000004
2018-10-22T23:26:50.793544Z,-0.274353,0.072937,-2.137939
2018-10-22T23:26:50.993544Z,0.40802,1.02655,0.690735
2018-10-22T23:26:51.194544Z,1.3558350000000001,-0.087952,-2.334351
2018-10-22T23:26:51.394544Z,-0.332703,-0.031311,-1.4754639999999999
2018-10-22T23:26:51.593544Z,-1.168823,-0.024353,0.243286
2018-10-22T23:26:51.793544Z,-2.309387,-2.138794,0.9682620000000001
2018-10-22T23:26:51.993544Z,0.5917359999999999,-0.421204,0.768616
2018-10-22T23:26:52.194544Z,0.073242,-0.71521,2.0226439999999997
2018-10-22T23:26:52.392544Z,0.562134,-0.731812,-0.931702
2018-10-22T23:26:52.593544Z,0.028502999999999997,-0.013123,0.6937260000000001
2018-10-22T23:26:52.793544Z,-0.839722,-1.484253,3.639587
2018-10-22T23:26:52.993544Z,1.224487,-1.184326,1.103149
2018-10-22T23:26:53.200544Z,0.398987,-0.690308,1.395691
2018-10-22T23:26:53.403544Z,0.810608,-2.132935,2.115662
2018-10-22T23:26:53.591544Z,0.97821,-0.750549,-0.081482
2018-10-22T23:26:53.822544Z,-0.34137,-1.44397,-1.341919
2018-10-22T23:26:54.282544Z,0.369324,-0.44928,-0.724426
2018-10-22T23:26:54.872544Z,-0.355957,0.215027,-0.22332800000000003
2018-10-22T23:26:55.302544Z,-0.429626,1.438843,0.016113
2018-10-22T23:26:55.314544Z,0.638306,1.014099,0.8410030000000001
2018-10-22T23:26:55.320544Z,1.189575,-0.658569,1.442505
2018-10-22T23:26:55.326544Z,0.775146,0.434753,-2.027039
2018-10-22T23:26:55.333544Z,1.300781,1.1384889999999999,-0.15698199999999998
