Datetime,accx,accy,accz
2018-10-31T17:24:27.399072Z,-0.723267,4.035705999999999,-1.346191
2018-10-31T17:24:27.601072Z,2.6408080000000003,1.804932,-2.8480830000000004
2018-10-31T17:24:27.801072Z,3.3958129999999995,2.718628,-1.475342
2018-10-31T17:24:27.999072Z,-2.01355,-0.370361,-0.036682
2018-10-31T17:24:28.200072Z,-4.071228,-2.71106,1.473694
2018-10-31T17:24:28.399072Z,-1.5816649999999999,-1.837219,0.277771
2018-10-31T17:24:28.599072Z,-2.583923,-0.9368290000000001,0.8955690000000001
2018-10-31T17:24:28.801072Z,-2.200256,-0.289917,-0.390808
2018-10-31T17:24:29.000072Z,-4.202332,-0.5817869999999999,-1.5935059999999999
2018-10-31T17:24:29.203072Z,-4.681885,-0.033325,-1.473511
2018-10-31T17:24:29.405072Z,-3.9222410000000005,0.695312,-0.798157
2018-10-31T17:24:29.800072Z,-1.028564,-0.758728,0.932434
2018-10-31T17:24:30.000072Z,-2.382568,1.398865,-1.243652
2018-10-31T17:24:30.201072Z,-2.835266,2.020142,0.845032
2018-10-31T17:24:30.400072Z,-2.171631,-0.643494,1.571472
2018-10-31T17:24:30.600072Z,-2.230286,0.34924299999999997,-1.232544
2018-10-31T17:24:30.800072Z,-2.227112,1.348511,-1.0650629999999999
2018-10-31T17:24:31.000072Z,-1.424866,0.470398,-0.366333
2018-10-31T17:24:31.198072Z,-1.9545290000000002,-0.558533,0.373474
2018-10-31T17:24:31.399072Z,-2.9223630000000003,-0.676147,0.04187
2018-10-31T17:24:31.600072Z,-2.185791,-0.603943,-0.9103389999999999
2018-10-31T17:24:31.800072Z,-1.0981450000000001,0.7077640000000001,-0.099915
2018-10-31T17:24:32.003072Z,-2.805298,-0.267212,-0.328491
2018-10-31T17:24:32.205072Z,-2.293884,-0.301331,-0.010131999999999999
2018-10-31T17:24:32.399072Z,-1.7354740000000002,-0.022583000000000002,-0.16650399999999999
2018-10-31T17:24:32.605072Z,-1.160828,-0.12176500000000001,-0.234192
2018-10-31T17:24:32.803072Z,-1.371033,-0.599121,0.63562
2018-10-31T17:24:33.000072Z,-1.007019,-0.28234899999999996,0.11096199999999999
2018-10-31T17:24:33.202072Z,-0.387329,-0.12207,0.24682600000000002
2018-10-31T17:24:33.400072Z,0.509216,-0.270996,-1.2418209999999998
2018-10-31T17:24:33.600072Z,1.8267209999999998,0.184692,0.124207
2018-10-31T17:24:33.800072Z,1.082703,0.588989,0.330872
2018-10-31T17:24:34.001072Z,-0.963501,0.9156489999999999,0.21221900000000002
2018-10-31T17:24:34.200072Z,-0.462158,-1.4539790000000001,-0.594849
2018-10-31T17:24:34.400072Z,0.000122,-0.747681,-0.846741
2018-10-31T17:24:34.599072Z,-0.61145,0.188538,-0.996033
2018-10-31T17:24:34.799072Z,-0.38745100000000005,0.687988,-0.139587
2018-10-31T17:24:35.014072Z,1.353577,-0.752075,5.238341999999999
2018-10-31T17:24:35.199072Z,1.010925,-0.26507600000000003,-1.6949459999999998
2018-10-31T17:24:35.399072Z,1.900879,1.268433,-1.237488
2018-10-31T17:24:35.599072Z,-0.201477,1.855835,0.606201
2018-10-31T17:24:35.799072Z,0.146545,-0.09668,2.055725
2018-10-31T17:24:35.999072Z,-0.674622,-1.256104,-1.822632
2018-10-31T17:24:36.200072Z,0.18023699999999998,0.968506,-0.26763899999999996
2018-10-31T17:24:36.400072Z,1.298096,0.751099,0.088989
2018-10-31T17:24:36.599072Z,0.574646,0.07067899999999999,-0.69635
2018-10-31T17:24:36.800072Z,0.331665,0.818909,-0.673279
2018-10-31T17:24:37.000072Z,0.384888,1.36615,-0.380737
2018-10-31T17:24:37.199072Z,-0.058899,0.323792,-1.8035279999999998
2018-10-31T17:24:37.400072Z,0.259521,0.41918900000000003,-0.570435
2018-10-31T17:24:37.601072Z,-0.47229,0.939758,-0.901489
2018-10-31T17:24:37.800072Z,-0.067017,0.606689,-0.924866
2018-10-31T17:24:38.000072Z,-1.029358,1.203125,1.7967529999999998
2018-10-31T17:24:38.199072Z,-0.6697390000000001,2.174744,0.136536
2018-10-31T17:24:38.399072Z,-1.2658690000000001,-0.201721,4.309082
2018-10-31T17:24:38.614072Z,-0.36254899999999995,-1.376831,-0.7733760000000001
2018-10-31T17:24:38.799072Z,0.081604,-0.6953739999999999,1.097229
2018-10-31T17:24:38.999072Z,-0.19531199999999999,-0.43640100000000004,-0.7303470000000001
2018-10-31T17:24:39.207072Z,-2.076538,0.006531,0.727417
2018-10-31T17:24:39.408072Z,-1.6594849999999999,-0.979675,0.472351
2018-10-31T17:24:39.599072Z,-1.4823,-0.138794,-0.716431
2018-10-31T17:24:39.802072Z,-1.445251,0.619629,-0.9168700000000001
2018-10-31T17:24:40.000072Z,-0.744324,-0.335754,1.180908
2018-10-31T17:24:40.200072Z,-1.302002,-1.04126,-0.8319700000000001
2018-10-31T17:24:40.401072Z,-0.633301,0.087341,-0.410217
2018-10-31T17:24:40.600072Z,-1.4778440000000002,1.403931,1.8035889999999999
2018-10-31T17:24:40.799072Z,-1.401733,0.053345000000000004,-0.8034060000000001
2018-10-31T17:24:41.003072Z,-3.1572880000000003,-1.8119509999999999,0.48944099999999996
2018-10-31T17:24:41.253072Z,-2.897888,-0.300354,0.863525
2018-10-31T17:24:41.400072Z,-2.531555,0.020081,-0.269836
2018-10-31T17:24:41.599072Z,-2.070862,0.178894,0.511108
2018-10-31T17:24:41.799072Z,-2.068848,0.9609989999999999,-0.63147
2018-10-31T17:24:42.000072Z,-0.240723,0.6957399999999999,-0.930481
2018-10-31T17:24:42.199072Z,-1.17688,1.072266,-1.033325
2018-10-31T17:24:42.503072Z,-2.8012080000000004,-0.145508,3.3216550000000002
2018-10-31T17:24:42.598072Z,-0.30896,-0.880249,-1.799133
2018-10-31T17:24:42.799072Z,0.03125,-0.501526,-0.295471
2018-10-31T17:24:43.202072Z,-0.682678,-2.182617,1.7246700000000001
2018-10-31T17:24:43.405072Z,-0.71637,-0.789551,-0.284912
2018-10-31T17:24:43.601072Z,-0.703186,0.7191770000000001,0.377869
2018-10-31T17:24:43.802072Z,-1.697998,0.759888,-0.32043499999999997
2018-10-31T17:24:44.000072Z,-1.581726,-1.0806879999999999,0.8482059999999999
2018-10-31T17:24:44.200072Z,-1.180359,-1.092957,-0.8933719999999999
2018-10-31T17:24:44.400072Z,-1.16272,0.504883,-1.2211299999999998
2018-10-31T17:24:44.600072Z,-1.197144,0.248962,-0.20733600000000002
2018-10-31T17:24:44.801072Z,-1.3743290000000001,-1.188416,-0.23449699999999998
2018-10-31T17:24:45.000072Z,-1.70697,0.005065999999999999,-0.46386700000000003
2018-10-31T17:24:45.201072Z,-1.497742,-0.304688,-1.1655879999999998
2018-10-31T17:24:45.403072Z,-3.39679,-1.456543,-0.369141
2018-10-31T17:24:45.599072Z,-2.178711,-0.296082,0.90686
2018-10-31T17:24:45.799072Z,-0.955261,0.288269,0.09887699999999999
2018-10-31T17:24:46.000072Z,-2.2704470000000003,0.060486,1.061951
2018-10-31T17:24:46.213072Z,-1.116943,0.36084,-2.014709
2018-10-31T17:24:46.399072Z,0.30426,1.0665280000000001,-0.861816
2018-10-31T17:24:46.601072Z,-1.329712,1.6929319999999999,-0.592834
2018-10-31T17:24:46.802072Z,-1.9642330000000001,-0.171021,-0.866821
2018-10-31T17:24:47.000072Z,-1.462097,-0.010803,-0.810608
2018-10-31T17:24:47.202072Z,-1.572998,0.44824200000000003,0.0038450000000000003
2018-10-31T17:24:47.399072Z,-0.821533,-0.354065,1.840027
2018-10-31T17:24:47.600072Z,-1.9915770000000002,-0.570435,-0.458313
2018-10-31T17:24:47.801072Z,-1.312073,0.512634,-0.36181599999999997
2018-10-31T17:24:48.000072Z,-1.360596,0.6031489999999999,-1.132568
2018-10-31T17:24:48.199072Z,-2.222717,1.168213,0.07586699999999999
2018-10-31T17:24:48.400072Z,-1.430664,1.353882,-0.28234899999999996
2018-10-31T17:24:48.599072Z,-0.8933110000000001,0.921143,0.196899
2018-10-31T17:24:48.799072Z,-1.939758,-0.269958,0.791077
2018-10-31T17:24:49.006072Z,-0.6442869999999999,-1.167664,-0.9158940000000001
2018-10-31T17:24:49.199072Z,-0.40331999999999996,-0.242493,0.386108
2018-10-31T17:24:49.400072Z,-1.14386,-0.162964,0.269104
2018-10-31T17:24:49.693072Z,-0.694092,-0.350586,-1.086792
2018-10-31T17:24:49.800072Z,-0.115356,0.22729499999999997,-0.231079
2018-10-31T17:24:49.999072Z,-1.056702,-0.717163,0.799622
2018-10-31T17:24:50.200072Z,-0.278503,-0.268921,-0.497253
2018-10-31T17:24:50.411072Z,0.5001220000000001,0.676636,-0.219421
2018-10-31T17:24:50.602072Z,-0.181946,0.224854,-0.687988
2018-10-31T17:24:50.800072Z,0.06323200000000001,1.688843,-1.222717
2018-10-31T17:24:51.000072Z,-1.518616,-0.068665,3.819336
2018-10-31T17:24:51.200072Z,-0.107849,-2.216309,-0.017943999999999998
2018-10-31T17:24:51.400072Z,-0.9299930000000001,-1.769775,-0.712708
2018-10-31T17:24:51.600072Z,0.043823,0.025635,-0.21539299999999997
2018-10-31T17:24:51.818072Z,-0.482117,0.16748,0.066162
2018-10-31T17:24:51.999072Z,0.8316040000000001,-0.20788600000000002,-0.091248
2018-10-31T17:24:52.199072Z,2.478638,-0.5818479999999999,0.8579100000000001
2018-10-31T17:24:52.399072Z,3.219177,0.68396,1.475769
2018-10-31T17:24:52.599072Z,-2.0048220000000003,-0.016235,-0.476074
2018-10-31T17:24:52.799072Z,1.158752,1.854797,-1.848999
2018-10-31T17:24:53.000072Z,0.798584,2.043884,-1.303772
2018-10-31T17:24:53.199072Z,-0.180359,0.049988,1.698364
2018-10-31T17:24:53.415072Z,0.531189,-0.108276,-2.445251
2018-10-31T17:24:53.601072Z,0.7132569999999999,0.960083,0.459167
2018-10-31T17:24:53.801072Z,1.118347,0.502808,-0.36138899999999996
2018-10-31T17:24:54.003072Z,0.650085,0.916626,-0.259277
2018-10-31T17:24:54.200072Z,-0.513733,2.388855,-1.145874
2018-10-31T17:24:54.400072Z,0.404358,2.025818,-1.381165
2018-10-31T17:24:54.602072Z,-0.17718499999999998,-0.83075,-0.408508
2018-10-31T17:24:54.800072Z,0.47753900000000005,-0.08343500000000001,0.350037
2018-10-31T17:24:55.000072Z,1.296265,-0.26269499999999996,2.089966
2018-10-31T17:24:55.200072Z,0.16076700000000002,0.522949,-0.9972530000000001
2018-10-31T17:24:55.399072Z,1.212952,0.269165,0.030151
2018-10-31T17:24:55.602072Z,-0.282227,0.424133,1.0864260000000001
2018-10-31T17:24:55.803072Z,-0.5234989999999999,-1.077209,-0.006836
2018-10-31T17:24:56.084072Z,0.344604,-0.637695,1.3931879999999999
2018-10-31T17:24:56.198072Z,0.7153930000000001,0.501343,0.5356449999999999
2018-10-31T17:24:56.599072Z,0.16278099999999998,0.092468,-0.41131599999999996
2018-10-31T17:24:56.800072Z,0.38256799999999996,0.365295,0.421204
2018-10-31T17:24:56.999072Z,0.450867,0.565308,0.251038
2018-10-31T17:24:57.200072Z,0.201172,1.211975,-0.573853
2018-10-31T17:24:57.399072Z,-0.13378900000000002,0.9612430000000001,-1.4261469999999998
2018-10-31T17:24:57.610072Z,0.400879,1.156128,0.834045
2018-10-31T17:24:57.799072Z,0.952942,-0.8293459999999999,-0.587097
2018-10-31T17:24:58.000072Z,0.669922,0.292725,-0.806519
2018-10-31T17:24:58.199072Z,1.1571040000000001,1.085205,-0.410583
2018-10-31T17:24:58.400072Z,0.7109989999999999,0.015869,0.9718629999999999
2018-10-31T17:24:58.601072Z,-1.1937870000000002,-1.489258,0.759216
2018-10-31T17:24:58.800072Z,-0.122314,-1.29071,0.12286400000000001
2018-10-31T17:24:58.999072Z,0.429626,0.087891,0.33520500000000003
2018-10-31T17:24:59.200072Z,1.155701,0.750488,-1.892334
2018-10-31T17:24:59.400072Z,0.788452,0.340332,0.964355
2018-10-31T17:24:59.599072Z,-0.579529,-0.960815,1.1298219999999999
2018-10-31T17:24:59.799072Z,-0.927307,-1.3076780000000001,-0.072937
2018-10-31T17:25:00.005072Z,-1.577148,-0.497192,0.602539
2018-10-31T17:25:00.199072Z,-0.629761,-0.7205199999999999,0.508057
2018-10-31T17:25:00.399072Z,-0.602173,-0.8690190000000001,-0.39679000000000003
2018-10-31T17:25:00.600072Z,-0.349426,0.272827,0.179321
2018-10-31T17:25:00.800072Z,1.917603,0.680603,1.01239
2018-10-31T17:25:01.000072Z,-0.12799100000000002,-1.0458370000000001,0.822937
2018-10-31T17:25:01.200072Z,-1.197021,-0.296448,0.968872
2018-10-31T17:25:01.400072Z,-1.2052,1.0821530000000001,0.7924800000000001
2018-10-31T17:25:01.603072Z,-0.525208,-1.928955,-2.2603150000000003
2018-10-31T17:25:01.817072Z,-2.0408939999999998,-0.8943479999999999,-2.1066279999999997
2018-10-31T17:25:02.008072Z,-1.5751950000000001,-0.029968,0.5863649999999999
2018-10-31T17:25:02.201072Z,0.40631100000000003,-0.290894,1.002991
2018-10-31T17:25:02.399072Z,-1.504883,-0.811096,-0.336975
2018-10-31T17:25:02.599072Z,-0.658447,0.25756799999999996,-0.14746099999999998
2018-10-31T17:25:02.804072Z,-0.460266,0.8986209999999999,-0.612427
2018-10-31T17:25:03.000072Z,-0.9799190000000001,-0.023743,1.3012700000000001
2018-10-31T17:25:03.257072Z,-2.540161,-0.984558,0.910217
2018-10-31T17:25:03.401072Z,-1.6420290000000002,-1.659729,-0.323975
2018-10-31T17:25:03.599072Z,-1.576416,-0.595093,0.993958
2018-10-31T17:25:03.799072Z,-0.737915,-0.43774399999999997,-0.875244
2018-10-31T17:25:04.000072Z,-3.527832,0.16802999999999998,0.423401
2018-10-31T17:25:04.200072Z,-1.810486,0.15771500000000002,-0.6701050000000001
2018-10-31T17:25:04.400072Z,-1.031433,-0.164917,-0.660828
2018-10-31T17:25:04.601072Z,-1.559448,1.36731,-1.2626950000000001
2018-10-31T17:25:04.800072Z,-0.912781,0.054443,0.157654
2018-10-31T17:25:04.999072Z,-0.710388,-0.006409000000000001,-1.4339600000000001
2018-10-31T17:25:05.199072Z,0.037781,0.8007810000000001,-1.03009
2018-10-31T17:25:05.400072Z,-1.293152,0.856567,-0.196655
2018-10-31T17:25:05.600072Z,-1.086609,-0.319763,-0.977783
2018-10-31T17:25:05.799072Z,-0.827393,-0.707275,-1.65155
2018-10-31T17:25:05.999072Z,-1.1104129999999999,0.359863,-0.122498
2018-10-31T17:25:06.199072Z,-1.253113,0.388306,-0.52533
2018-10-31T17:25:06.399072Z,-1.8231810000000002,-0.612427,-0.9143680000000001
2018-10-31T17:25:06.601072Z,-0.262268,0.756042,1.9149169999999998
2018-10-31T17:25:06.799072Z,-1.004211,0.429199,-0.536194
2018-10-31T17:25:07.004072Z,-1.572327,0.045715,-0.846375
2018-10-31T17:25:07.200072Z,-2.8283080000000003,0.792053,-0.379517
2018-10-31T17:25:07.399072Z,-1.159973,0.95575,-0.25
2018-10-31T17:25:07.600072Z,0.252319,-0.641418,-0.49585
2018-10-31T17:25:07.800072Z,-0.112,-0.956909,-0.757935
2018-10-31T17:25:08.000072Z,-0.514709,0.578064,-0.240601
2018-10-31T17:25:08.200072Z,-0.329773,-0.520813,-0.543396
2018-10-31T17:25:08.400072Z,-0.23382600000000003,-1.0139770000000001,3.330139
2018-10-31T17:25:08.600072Z,-0.280762,-1.9628299999999999,-1.382507
2018-10-31T17:25:08.803072Z,-0.76825,-0.107544,1.925415
2018-10-31T17:25:09.003072Z,-0.087891,0.21557600000000002,-0.072693
2018-10-31T17:25:09.399072Z,-0.213135,0.060608,-0.408142
2018-10-31T17:25:09.599072Z,-0.668823,0.139648,0.023254
2018-10-31T17:25:09.799072Z,-0.063721,0.040161,-0.45373500000000005
2018-10-31T17:25:09.999072Z,0.567078,0.05127,-0.282898
2018-10-31T17:25:10.200072Z,-0.025146,0.28064,0.364624
2018-10-31T17:25:10.399072Z,0.664062,0.48693800000000004,-1.099243
2018-10-31T17:25:10.599072Z,-0.7223510000000001,1.0238040000000002,0.274048
2018-10-31T17:25:10.799072Z,-1.1243290000000001,1.2299799999999999,-1.193481
2018-10-31T17:25:11.000072Z,0.48492399999999997,0.150574,-0.293213
2018-10-31T17:25:11.201072Z,0.8831180000000001,-1.883301,1.024658
2018-10-31T17:25:11.402072Z,0.23754899999999998,-1.766907,0.138184
2018-10-31T17:25:11.600072Z,0.839233,-1.7612919999999999,0.383301
2018-10-31T17:25:11.799072Z,-1.435669,-0.9458620000000001,0.43261700000000003
2018-10-31T17:25:11.999072Z,-1.2451780000000001,2.335632,-2.6900020000000002
2018-10-31T17:25:12.200072Z,-1.030029,2.507202,-1.197021
2018-10-31T17:25:12.400072Z,-0.845093,1.384949,-0.774414
2018-10-31T17:25:12.604072Z,0.87677,1.26593,-0.967651
2018-10-31T17:25:12.799072Z,-0.6745,2.368835,-1.097046
2018-10-31T17:25:12.999072Z,-0.11096199999999999,2.325989,1.16333
2018-10-31T17:25:13.199072Z,-2.3797610000000002,-1.61554,-1.8605349999999998
2018-10-31T17:25:13.399072Z,-1.629578,-1.418091,-2.835876
2018-10-31T17:25:13.599072Z,3.952515,2.084839,2.361755
2018-10-31T17:25:13.799072Z,1.121033,-1.45813,-1.713623
2018-10-31T17:25:13.999072Z,-2.3313599999999997,1.189453,-0.40325900000000003
2018-10-31T17:25:14.199072Z,-0.605835,2.0496220000000003,-0.746155
2018-10-31T17:25:14.400072Z,-0.37677,0.34729,3.554932
2018-10-31T17:25:14.600072Z,-0.801086,-1.69397,-1.891113
2018-10-31T17:25:14.801072Z,-1.03125,-1.073792,0.547974
2018-10-31T17:25:15.000072Z,-0.237488,0.21929899999999997,0.392212
2018-10-31T17:25:15.200072Z,-0.359558,-0.000732,-0.095947
2018-10-31T17:25:15.400072Z,-0.9044190000000001,0.16333,0.030212
2018-10-31T17:25:15.601072Z,-0.693237,0.153137,0.431335
2018-10-31T17:25:15.880072Z,-0.627319,0.176331,-0.46551499999999996
2018-10-31T17:25:16.000072Z,-0.193726,-0.009155,-0.319275
2018-10-31T17:25:16.201072Z,-0.45568800000000004,0.023621,-0.26416
2018-10-31T17:25:16.403072Z,-0.654602,0.06915299999999999,0.062622
2018-10-31T17:25:16.599072Z,-1.3070680000000001,-0.430237,-1.609314
2018-10-31T17:25:16.800072Z,-2.938232,0.014771000000000001,1.8640139999999998
2018-10-31T17:25:16.999072Z,-0.729614,-0.727661,0.433838
2018-10-31T17:25:17.199072Z,0.143127,-0.383972,-0.630432
2018-10-31T17:25:17.400072Z,-0.6721189999999999,0.21148699999999998,-0.009766
2018-10-31T17:25:17.675072Z,-0.777771,0.416504,-3.030151
2018-10-31T17:25:17.804072Z,-0.104492,0.616943,-1.058533
2018-10-31T17:25:18.000072Z,-0.697083,0.22998000000000002,0.13147
2018-10-31T17:25:18.200072Z,-1.263306,-1.8192139999999999,1.7206419999999998
2018-10-31T17:25:18.400072Z,-0.8662110000000001,-0.380371,-1.01532
2018-10-31T17:25:18.600072Z,0.17846700000000001,1.310486,-0.839355
2018-10-31T17:25:18.800072Z,-0.690063,0.520813,-0.842834
2018-10-31T17:25:19.000072Z,-0.7297359999999999,-1.083679,-0.8444209999999999
2018-10-31T17:25:19.201072Z,-0.459167,0.921997,-1.150085
2018-10-31T17:25:19.400072Z,-0.6450199999999999,0.671204,0.07196
2018-10-31T17:25:19.600072Z,-0.43640100000000004,-2.033264,-1.114746
2018-10-31T17:25:19.799072Z,-0.876343,-0.889648,-1.048584
2018-10-31T17:25:19.999072Z,-0.951233,0.10955799999999999,-0.08075
2018-10-31T17:25:20.199072Z,0.5231319999999999,-0.663574,-0.8762209999999999
2018-10-31T17:25:20.405072Z,1.02948,-2.44342,0.279968
2018-10-31T17:25:20.600072Z,0.371948,-1.074646,0.516785
2018-10-31T17:25:20.803072Z,0.651672,-1.254211,-0.110168
2018-10-31T17:25:20.999072Z,1.405884,-0.540955,-0.608276
2018-10-31T17:25:21.200072Z,-1.6273799999999998,1.0635379999999999,0.336731
2018-10-31T17:25:21.399072Z,-0.339966,0.10022,0.348938
2018-10-31T17:25:21.603072Z,-0.874207,-0.040161,-0.6801149999999999
2018-10-31T17:25:21.802072Z,-1.224609,0.8107300000000001,-0.7913819999999999
2018-10-31T17:25:22.000072Z,-0.023926,1.835205,0.053405999999999995
2018-10-31T17:25:22.200072Z,-2.040649,0.891968,3.052795
2018-10-31T17:25:22.401072Z,0.647034,0.318848,-1.710388
2018-10-31T17:25:22.600072Z,0.331909,0.65387,0.38623
2018-10-31T17:25:23.000072Z,-0.256409,-0.913269,-0.589417
2018-10-31T17:25:23.200072Z,0.370422,-1.232483,-1.694031
2018-10-31T17:25:23.400072Z,0.434692,-0.295715,0.737244
2018-10-31T17:25:23.599072Z,-0.29888899999999996,-0.5534060000000001,1.736633
2018-10-31T17:25:23.799072Z,1.37915,-0.179016,-1.096069
2018-10-31T17:25:24.010072Z,1.2852780000000001,-0.11267100000000001,0.040833
2018-10-31T17:25:24.199072Z,0.549255,0.493958,0.703796
2018-10-31T17:25:24.399072Z,-0.7775880000000001,0.190002,-0.47338900000000006
2018-10-31T17:25:24.601072Z,0.021912,-0.003662,0.21844499999999997
2018-10-31T17:25:24.800072Z,0.561523,0.585022,0.388306
2018-10-31T17:25:25.000072Z,-0.815247,1.035767,0.666504
2018-10-31T17:25:25.201072Z,0.305969,0.8486940000000001,0.487183
2018-10-31T17:25:25.400072Z,1.73468,0.06439199999999999,0.147339
2018-10-31T17:25:25.602072Z,1.516785,0.052063,-1.325806
2018-10-31T17:25:25.800072Z,-0.169006,0.8380129999999999,-0.10675
2018-10-31T17:25:26.000072Z,-1.2409059999999998,0.985718,-1.378052
2018-10-31T17:25:26.202072Z,-0.723328,0.960083,-0.36645500000000003
2018-10-31T17:25:26.400072Z,-0.467529,0.874023,-1.549377
2018-10-31T17:25:26.603072Z,0.158752,1.22644,0.524475
2018-10-31T17:25:26.803072Z,0.07067899999999999,0.179565,-1.162659
2018-10-31T17:25:26.999072Z,-0.174438,1.388916,0.060608
2018-10-31T17:25:27.199072Z,-1.374084,1.213379,1.03186
2018-10-31T17:25:27.399072Z,-0.429932,0.033264,-1.845093
2018-10-31T17:25:27.603072Z,0.139282,1.139893,0.10583499999999998
2018-10-31T17:25:27.804072Z,-0.6359859999999999,0.458496,-0.703613
2018-10-31T17:25:27.999072Z,-0.217651,0.628967,-1.184082
2018-10-31T17:25:28.200072Z,-0.959045,0.20916700000000002,-1.184143
2018-10-31T17:25:28.400072Z,-1.0266110000000002,-0.404724,-0.613953
2018-10-31T17:25:28.599072Z,-0.33618200000000004,0.602905,-0.9141239999999999
2018-10-31T17:25:28.801072Z,-0.706238,0.518433,1.1785889999999999
2018-10-31T17:25:28.999072Z,0.17749,0.525452,-1.270813
2018-10-31T17:25:29.210072Z,-0.5231319999999999,2.080261,0.017761000000000002
2018-10-31T17:25:29.407072Z,-2.5151369999999997,0.9389040000000001,2.375305
2018-10-31T17:25:29.600072Z,-1.6806029999999998,0.521301,-0.438721
2018-10-31T17:25:29.800072Z,-1.580383,0.562683,0.8348389999999999
2018-10-31T17:25:29.999072Z,-0.925415,-0.9899290000000001,-0.461487
2018-10-31T17:25:30.199072Z,-0.389954,0.07147200000000001,-0.699158
2018-10-31T17:25:30.406072Z,-0.6283569999999999,-0.958557,0.027954000000000003
2018-10-31T17:25:30.599072Z,-1.217773,-0.062927,-1.0722049999999999
2018-10-31T17:25:30.799072Z,-1.326172,0.903748,-1.43103
2018-10-31T17:25:31.000072Z,-0.03418,0.813599,0.38269000000000003
2018-10-31T17:25:31.199072Z,0.404724,-0.118408,0.48681599999999997
2018-10-31T17:25:31.399072Z,0.8235469999999999,0.905518,-1.056396
2018-10-31T17:25:31.599072Z,-0.073975,1.8663330000000002,-0.52771
2018-10-31T17:25:31.802072Z,-2.239929,0.27002,2.944275
2018-10-31T17:25:32.001072Z,-1.460754,-0.538452,-2.586243
2018-10-31T17:25:32.200072Z,-0.8905639999999999,0.190063,-0.246216
2018-10-31T17:25:32.399072Z,-0.896912,-0.240356,0.008728
2018-10-31T17:25:32.601072Z,-1.615417,0.267334,-1.1028440000000002
2018-10-31T17:25:32.799072Z,-0.5568850000000001,0.43512,0.054443
2018-10-31T17:25:32.999072Z,-1.637146,0.123047,1.28833
2018-10-31T17:25:33.200072Z,-4.394897,-1.0840450000000001,-1.4713129999999999
2018-10-31T17:25:33.400072Z,-2.5453490000000003,-0.574036,-0.006775
2018-10-31T17:25:33.598072Z,-0.186157,0.57312,-0.238831
2018-10-31T17:25:33.799072Z,-1.4741819999999999,0.22961399999999998,0.486389
2018-10-31T17:25:33.999072Z,-1.8564450000000001,0.191162,-0.6879270000000001
2018-10-31T17:25:34.199072Z,-0.490295,1.360291,-2.223938
2018-10-31T17:25:34.399072Z,-0.659546,0.9006959999999999,-1.175354
2018-10-31T17:25:34.599072Z,-1.820801,-0.523987,0.40331999999999996
2018-10-31T17:25:34.800072Z,-1.103027,0.38269000000000003,-0.299927
2018-10-31T17:25:34.999072Z,0.255554,0.279846,0.824829
2018-10-31T17:25:35.200072Z,0.031006,0.30365,-1.171326
2018-10-31T17:25:35.405072Z,-0.61615,1.277283,0.12475599999999999
2018-10-31T17:25:35.599072Z,-1.586365,-0.5033569999999999,2.223938
2018-10-31T17:25:35.800072Z,0.018494,-0.047057999999999996,-1.4296879999999998
2018-10-31T17:25:36.000072Z,-0.530029,0.042969,-1.479248
2018-10-31T17:25:36.202072Z,-1.48761,-0.338196,3.5254519999999996
2018-10-31T17:25:36.400072Z,-1.105469,0.5903930000000001,-1.61322
2018-10-31T17:25:36.600072Z,-0.565979,2.340271,0.342041
2018-10-31T17:25:36.800072Z,-0.73938,-0.58313,0.309143
2018-10-31T17:25:37.199072Z,0.460083,-0.6327510000000001,-1.9021
2018-10-31T17:25:37.398072Z,-0.082214,0.030579000000000002,0.209229
2018-10-31T17:25:37.599072Z,-0.16833499999999998,-0.666443,0.303711
2018-10-31T17:25:37.801072Z,-0.870117,0.021667,-1.030029
2018-10-31T17:25:38.010072Z,-0.636414,1.8065799999999999,0.088135
2018-10-31T17:25:38.203072Z,-1.158142,-0.140747,0.8380129999999999
2018-10-31T17:25:38.400072Z,-1.003723,-0.0061649999999999995,-0.20776399999999998
2018-10-31T17:25:38.599072Z,-0.12548800000000002,0.34436,-0.518372
2018-10-31T17:25:38.800072Z,0.674255,-0.354004,1.6387939999999999
2018-10-31T17:25:39.000072Z,-1.6066280000000002,0.21655300000000002,-1.416687
2018-10-31T17:25:39.200072Z,-0.384705,0.8107300000000001,0.803284
2018-10-31T17:25:39.399072Z,-0.158691,-0.297852,-0.598022
2018-10-31T17:25:39.601072Z,-1.444153,-0.376343,-0.413025
2018-10-31T17:25:39.868072Z,-0.902832,0.096985,-0.552063
2018-10-31T17:25:40.004072Z,-0.730225,0.2948,0.026123
2018-10-31T17:25:40.205072Z,-1.9164430000000001,-0.035217,-0.270447
2018-10-31T17:25:40.400072Z,-0.38769499999999996,0.349976,0.482117
2018-10-31T17:25:40.599072Z,0.058227999999999995,-0.304077,-0.5726319999999999
2018-10-31T17:25:40.799072Z,0.658691,-0.24475100000000002,0.544006
2018-10-31T17:25:41.005072Z,1.281372,-0.223206,-1.062683
2018-10-31T17:25:41.206072Z,0.298767,0.677917,0.666565
2018-10-31T17:25:41.399072Z,-0.038757,-1.8261720000000001,-0.296204
2018-10-31T17:25:41.599072Z,0.51062,-1.0025629999999999,-1.00946
2018-10-31T17:25:41.806072Z,-0.576538,-0.4776,-1.215515
2018-10-31T17:25:41.999072Z,0.91217,-0.780029,-0.234192
2018-10-31T17:25:42.200072Z,1.906555,-0.353149,0.17724600000000001
2018-10-31T17:25:42.427072Z,-0.130432,-0.027893,-0.5056149999999999
2018-10-31T17:25:42.600072Z,0.728943,0.694092,-1.572388
2018-10-31T17:25:42.804072Z,1.002319,-0.076111,-0.769958
2018-10-31T17:25:43.003072Z,0.29742399999999997,1.39917,-1.044373
2018-10-31T17:25:43.200072Z,0.28125,1.269287,-0.587646
2018-10-31T17:25:43.400072Z,0.567749,-0.253784,1.499817
2018-10-31T17:25:43.601072Z,1.317017,0.20654299999999998,-1.533142
2018-10-31T17:25:43.802072Z,0.500854,1.656311,0.8621219999999999
2018-10-31T17:25:43.999072Z,0.8059689999999999,0.407654,-1.281677
2018-10-31T17:25:44.206072Z,1.285461,0.5112300000000001,-1.928345
2018-10-31T17:25:44.401072Z,-0.703125,1.153931,-1.120911
2018-10-31T17:25:44.622072Z,1.321533,0.46820100000000003,-0.59259
2018-10-31T17:25:44.799072Z,1.383728,1.0224,0.404968
2018-10-31T17:25:45.000072Z,0.021973,2.163025,-1.300293
2018-10-31T17:25:45.199072Z,-0.37554899999999997,2.620422,-0.740662
2018-10-31T17:25:45.404072Z,0.578735,0.307068,-0.9321290000000001
2018-10-31T17:25:45.601072Z,-0.27050799999999997,0.45629899999999995,-1.443298
2018-10-31T17:25:45.800072Z,0.902588,1.239624,0.082275
2018-10-31T17:25:46.000072Z,1.201965,0.570557,-0.8526
2018-10-31T17:25:46.200072Z,-0.056946000000000004,2.094055,-0.393372
2018-10-31T17:25:46.403072Z,-0.29931599999999997,1.67157,2.293518
2018-10-31T17:25:46.600072Z,-0.9210209999999999,0.105774,-0.732544
2018-10-31T17:25:46.800072Z,-0.020508000000000002,1.4208370000000001,-0.8822629999999999
2018-10-31T17:25:47.000072Z,1.3739620000000001,1.389404,-0.12439000000000001
2018-10-31T17:25:47.200072Z,0.119019,0.460999,1.30365
2018-10-31T17:25:47.399072Z,-0.029053,1.7780759999999998,-1.384583
2018-10-31T17:25:47.599072Z,-0.8809809999999999,0.598755,1.841003
2018-10-31T17:25:47.800072Z,-0.405273,-0.434692,-1.189941
2018-10-31T17:25:48.000072Z,0.077942,0.704285,-0.458984
2018-10-31T17:25:48.198072Z,-0.522034,0.9204100000000001,1.0128780000000002
2018-10-31T17:25:48.399072Z,0.401306,1.149353,-2.7623290000000003
2018-10-31T17:25:48.806072Z,-0.43615699999999996,2.280884,0.588806
2018-10-31T17:25:49.004072Z,-0.53363,-0.028137,-1.886597
2018-10-31T17:25:49.200072Z,-1.558594,0.080627,-1.967468
2018-10-31T17:25:49.400072Z,-0.555786,1.111694,1.012024
2018-10-31T17:25:49.601072Z,0.671692,-0.065613,-0.262024
2018-10-31T17:25:49.800072Z,0.770996,1.009033,-1.533142
2018-10-31T17:25:50.000072Z,-0.628296,1.728271,0.748291
2018-10-31T17:25:50.201072Z,-0.716125,-0.460876,0.855042
2018-10-31T17:25:50.423072Z,-0.199768,-0.751953,-1.998657
2018-10-31T17:25:50.600072Z,-0.44458000000000003,0.75238,0.539795
2018-10-31T17:25:50.800072Z,0.058289,-1.511719,-0.533081
2018-10-31T17:25:51.000072Z,0.265869,0.8221440000000001,-0.424072
2018-10-31T17:25:51.216072Z,-0.9468989999999999,1.383789,0.016784999999999998
2018-10-31T17:25:51.405072Z,-0.581055,-0.271484,-1.396667
2018-10-31T17:25:51.610072Z,-0.8799440000000001,-0.55896,-2.343506
2018-10-31T17:25:51.799072Z,-0.410706,0.854858,0.8070069999999999
2018-10-31T17:25:52.000072Z,1.9030759999999998,-0.179504,-1.2182620000000002
2018-10-31T17:25:52.199072Z,-0.402649,0.719482,-0.821167
2018-10-31T17:25:52.399072Z,-0.337708,0.9218139999999999,-0.45800799999999997
2018-10-31T17:25:52.600072Z,-0.157104,-0.479187,-1.514282
2018-10-31T17:25:52.809072Z,0.7498779999999999,-0.048035,0.057678
2018-10-31T17:25:53.000072Z,-0.03186,0.295105,0.7617189999999999
2018-10-31T17:25:53.202072Z,1.321472,-0.373474,-1.662109
2018-10-31T17:25:53.400072Z,0.543945,1.035706,-1.850525
2018-10-31T17:25:53.600072Z,0.2005,1.9164430000000001,-0.9746090000000001
2018-10-31T17:25:53.800072Z,0.478943,-0.925842,-0.28137199999999996
2018-10-31T17:25:54.000072Z,0.31445300000000004,-0.350647,-1.200073
2018-10-31T17:25:54.200072Z,-1.249451,-0.024353,3.4760739999999997
2018-10-31T17:25:54.399072Z,0.799927,0.10943599999999999,-1.8103639999999999
2018-10-31T17:25:54.603072Z,1.165649,0.51239,-0.505432
2018-10-31T17:25:54.799072Z,1.27478,-0.97467,1.108032
2018-10-31T17:25:54.999072Z,0.36853,-0.154297,-0.813904
2018-10-31T17:25:55.199072Z,-0.9061889999999999,1.134399,-0.5515140000000001
2018-10-31T17:25:55.399072Z,-0.800049,0.49108900000000005,1.644897
2018-10-31T17:25:55.599072Z,0.061951,1.57959,-1.252441
2018-10-31T17:25:55.799072Z,-0.253784,2.116333,-0.048096
2018-10-31T17:25:56.014072Z,-0.29186999999999996,-0.216919,0.583862
2018-10-31T17:25:56.211072Z,0.45080600000000004,0.9123540000000001,-1.231384
2018-10-31T17:25:56.400072Z,0.935486,0.123352,-0.900452
2018-10-31T17:25:56.609072Z,0.421692,-0.143982,-0.264282
2018-10-31T17:25:56.800072Z,-0.429871,1.461914,-0.301819
2018-10-31T17:25:57.000072Z,-1.072632,0.10272200000000001,-1.368042
2018-10-31T17:25:57.200072Z,-0.245544,0.217773,-1.1910399999999999
2018-10-31T17:25:57.400072Z,-0.035461,0.555664,0.118225
2018-10-31T17:25:57.600072Z,-0.43237299999999995,-0.379578,0.143188
2018-10-31T17:25:57.799072Z,-0.08551,0.6940310000000001,-0.427612
2018-10-31T17:25:58.000072Z,1.137634,0.301025,0.8929440000000001
2018-10-31T17:25:58.199072Z,0.011414,-1.053528,2.0615229999999998
2018-10-31T17:25:58.404072Z,0.366089,-0.757935,0.298767
2018-10-31T17:25:58.600072Z,-0.270569,-0.143677,0.760437
2018-10-31T17:25:58.799072Z,0.748718,1.174927,-0.9714969999999999
2018-10-31T17:25:58.999072Z,-0.43859899999999996,1.0946040000000001,0.450867
2018-10-31T17:25:59.200072Z,-1.97937,1.011536,-1.292725
2018-10-31T17:25:59.402072Z,-2.757202,1.04364,-1.902466
2018-10-31T17:25:59.600072Z,-1.329895,1.597473,0.208191
2018-10-31T17:25:59.800072Z,-0.638062,0.892517,1.349121
2018-10-31T17:26:00.000072Z,-1.5714110000000001,1.169861,-2.2495119999999997
2018-10-31T17:26:00.211072Z,-0.81543,0.8417969999999999,0.559387
2018-10-31T17:26:00.402072Z,-2.418518,-0.889709,-0.76886
2018-10-31T17:26:00.604072Z,-2.7807009999999996,0.7146,-0.38049299999999997
2018-10-31T17:26:00.808072Z,-0.54718,0.680237,0.6875
2018-10-31T17:26:00.999072Z,2.3034060000000003,0.748169,-0.41156000000000004
2018-10-31T17:26:01.221072Z,1.013794,-0.6328739999999999,-1.056946
2018-10-31T17:26:01.406072Z,0.8916629999999999,0.396484,-0.494141
2018-10-31T17:26:01.599072Z,0.146606,1.602234,-0.652161
2018-10-31T17:26:01.799072Z,-1.121399,-0.4104,0.283508
2018-10-31T17:26:01.999072Z,3.534607,-0.393311,1.284485
2018-10-31T17:26:02.199072Z,0.548401,-1.422852,-3.781799
2018-10-31T17:26:02.599072Z,-1.090454,-0.14569100000000001,-0.78656
2018-10-31T17:26:02.800072Z,-0.03833,-0.440125,1.015991
2018-10-31T17:26:03.001072Z,-0.188416,-0.66803,2.01178
2018-10-31T17:26:03.201072Z,-1.9345700000000001,0.49883999999999995,-1.295593
2018-10-31T17:26:03.414072Z,-1.752625,-0.050963999999999995,-1.6026610000000001
2018-10-31T17:26:03.600072Z,0.060608,0.297302,1.206787
2018-10-31T17:26:03.800072Z,-0.734375,-0.265015,-0.292053
2018-10-31T17:26:03.999072Z,-1.28009,-1.5196530000000001,-4.9375
2018-10-31T17:26:04.200072Z,0.48303199999999996,-0.364014,-0.218567
2018-10-31T17:26:04.400072Z,-0.450745,-0.58783,-0.379639
2018-10-31T17:26:04.602072Z,0.11334200000000001,-0.76239,0.099121
2018-10-31T17:26:04.799072Z,0.197021,1.724121,-0.024413999999999998
2018-10-31T17:26:04.999072Z,0.20654299999999998,0.872192,-1.486145
2018-10-31T17:26:05.198072Z,-1.184509,-1.041199,-3.084167
2018-10-31T17:26:05.399072Z,-2.777832,0.5897220000000001,-2.025452
2018-10-31T17:26:05.599072Z,-1.041016,1.467834,-0.304016
2018-10-31T17:26:05.799072Z,0.155029,-0.286926,-0.057373
2018-10-31T17:26:06.001072Z,-0.152344,-1.759827,0.570557
2018-10-31T17:26:06.199072Z,0.095093,-0.6992189999999999,-0.45098900000000003
2018-10-31T17:26:06.400072Z,1.156067,-1.516846,-1.8105470000000001
2018-10-31T17:26:06.601072Z,2.083313,-1.950806,2.662292
2018-10-31T17:26:06.800072Z,1.1732790000000002,-2.731506,-0.902954
2018-10-31T17:26:07.000072Z,0.523315,-1.330139,-0.125366
2018-10-31T17:26:07.200072Z,1.372925,-0.9282229999999999,-1.6649779999999998
2018-10-31T17:26:07.400072Z,-0.7188720000000001,1.378784,0.43963599999999997
2018-10-31T17:26:07.600072Z,-1.136841,0.551697,2.148621
2018-10-31T17:26:07.801072Z,-0.408936,-0.41394,-1.9381709999999999
2018-10-31T17:26:08.002072Z,0.479675,0.876892,0.019958
2018-10-31T17:26:08.198072Z,0.42669700000000005,0.23913600000000002,0.081787
2018-10-31T17:26:08.399072Z,1.358459,1.0759889999999999,-1.812744
2018-10-31T17:26:08.650072Z,1.133606,0.11792000000000001,-1.184387
2018-10-31T17:26:08.803072Z,0.5078739999999999,0.077942,-1.237
2018-10-31T17:26:09.000072Z,-0.521179,0.897766,-0.75647
2018-10-31T17:26:09.200072Z,1.507568,0.168945,-0.560059
2018-10-31T17:26:09.409072Z,1.646484,0.342712,-0.7948
2018-10-31T17:26:09.602072Z,0.721436,0.786377,0.041443
2018-10-31T17:26:09.800072Z,-1.039246,-0.22338899999999998,1.5328979999999999
2018-10-31T17:26:10.000072Z,-1.00415,-0.420471,-1.246399
2018-10-31T17:26:10.201072Z,0.40625,1.3139040000000002,0.259949
2018-10-31T17:26:10.400072Z,0.76886,0.075195,1.3214110000000001
2018-10-31T17:26:10.600072Z,1.448181,-0.342957,-1.6466669999999999
2018-10-31T17:26:10.859072Z,0.25885,-0.11303699999999998,1.9703979999999999
2018-10-31T17:26:11.010072Z,-0.616943,0.019531,-0.597229
2018-10-31T17:26:11.200072Z,0.565063,0.350037,-0.20483400000000002
2018-10-31T17:26:11.401072Z,2.154419,0.272461,0.767883
2018-10-31T17:26:11.599072Z,1.348206,0.801758,-0.138733
2018-10-31T17:26:11.799072Z,-0.012816999999999999,1.550659,-0.545044
2018-10-31T17:26:11.999072Z,-0.35968,-0.281738,-0.22235100000000002
2018-10-31T17:26:12.200072Z,-1.5065309999999998,0.814087,-0.52655
2018-10-31T17:26:12.400072Z,-1.929932,1.5475459999999999,-0.520386
2018-10-31T17:26:12.599072Z,-0.486755,1.739746,-0.942383
2018-10-31T17:26:12.799072Z,-1.0101930000000001,-0.13000499999999998,-0.019287000000000002
2018-10-31T17:26:13.000072Z,0.100891,0.9779049999999999,-1.9249880000000001
2018-10-31T17:26:13.199072Z,0.590881,1.0864260000000001,0.600586
2018-10-31T17:26:13.399072Z,-1.161926,-0.6351319999999999,1.560425
2018-10-31T17:26:13.609072Z,-0.939514,-0.426147,1.8516240000000002
2018-10-31T17:26:13.809072Z,-0.242004,0.348206,-0.048157
2018-10-31T17:26:14.001072Z,0.276917,0.5936279999999999,-0.9163209999999999
2018-10-31T17:26:14.199072Z,0.23596199999999998,0.309998,-0.518799
2018-10-31T17:26:14.399072Z,0.404907,0.907166,0.531311
2018-10-31T17:26:14.600072Z,-0.810242,0.46588100000000005,-0.611328
2018-10-31T17:26:14.802072Z,0.15387,0.47613500000000003,-0.633057
2018-10-31T17:26:15.000072Z,0.39172399999999996,0.897217,-0.47131300000000004
2018-10-31T17:26:15.199072Z,-0.14361600000000002,0.142151,-1.128235
2018-10-31T17:26:15.402072Z,-0.317017,-0.249268,2.783386
2018-10-31T17:26:15.600072Z,0.41674799999999995,-1.288208,-1.253296
2018-10-31T17:26:15.799072Z,0.054564999999999995,-0.009155,0.143921
2018-10-31T17:26:15.999072Z,0.309265,-0.451538,-0.082458
2018-10-31T17:26:16.199072Z,0.152344,-0.224365,-0.019165
2018-10-31T17:26:16.399072Z,0.35638400000000003,-0.274048,-0.550842
2018-10-31T17:26:16.599072Z,1.147705,-0.559326,-0.411987
2018-10-31T17:26:16.800072Z,1.198547,-0.439331,-0.251465
2018-10-31T17:26:16.999072Z,-0.415771,-0.745544,-0.35992399999999997
2018-10-31T17:26:17.199072Z,0.20776399999999998,0.574341,0.149109
2018-10-31T17:26:17.400072Z,-0.525452,-0.019469999999999998,-0.90741
2018-10-31T17:26:17.607072Z,-1.3346559999999998,0.684875,0.449585
2018-10-31T17:26:17.804072Z,-0.41088900000000006,-0.131348,-0.682678
2018-10-31T17:26:18.001072Z,0.17040999999999998,0.017943999999999998,-0.24145500000000003
2018-10-31T17:26:18.400072Z,-0.199402,-0.209839,-0.285461
2018-10-31T17:26:18.599072Z,0.43518100000000004,0.12701400000000002,-0.22961399999999998
2018-10-31T17:26:18.807072Z,0.074951,0.057434000000000006,-0.52356
2018-10-31T17:26:19.013072Z,-0.027161,0.053894000000000004,-0.164001
2018-10-31T17:26:19.199072Z,0.158691,-0.210632,-0.368652
2018-10-31T17:26:19.400072Z,0.24548299999999998,-0.111328,-0.525269
2018-10-31T17:26:19.599072Z,0.111877,0.15826400000000002,0.0849
2018-10-31T17:26:19.799072Z,0.030579000000000002,-0.036864999999999995,-0.133606
2018-10-31T17:26:19.999072Z,0.071838,-0.110779,-0.27655
2018-10-31T17:26:20.200072Z,0.223083,0.041199,-0.228638
2018-10-31T17:26:20.400072Z,0.06225599999999999,0.059570000000000005,-0.389221
2018-10-31T17:26:20.600072Z,0.13610799999999998,-0.085815,-0.290955
2018-10-31T17:26:20.800072Z,0.355896,0.10308800000000001,-0.139282
2018-10-31T17:26:21.000072Z,0.16461199999999998,-0.25012199999999996,-0.249756
2018-10-31T17:26:21.200072Z,0.180725,-0.614502,0.213013
2018-10-31T17:26:21.400072Z,1.043884,-0.329346,-0.25488299999999997
2018-10-31T17:26:21.600072Z,-0.239258,-0.42498800000000003,0.337646
2018-10-31T17:26:21.801072Z,-2.035889,-0.489807,-0.546936
2018-10-31T17:26:21.999072Z,-0.5230100000000001,0.807312,0.30090300000000003
2018-10-31T17:26:22.199072Z,-1.46759,1.124207,0.215881
2018-10-31T17:26:22.399072Z,-0.49505600000000005,1.068848,-0.17926
2018-10-31T17:26:22.600072Z,0.255676,0.8417969999999999,-0.17993199999999998
2018-10-31T17:26:22.799072Z,-0.405334,0.534485,-0.50885
2018-10-31T17:26:22.999072Z,0.233582,0.233704,-0.14721700000000001
2018-10-31T17:26:23.199072Z,-0.15979000000000002,0.355957,-0.453247
2018-10-31T17:26:23.399072Z,0.114685,0.25811799999999996,-0.8330690000000001
2018-10-31T17:26:23.600072Z,-0.37384,0.576172,-0.069458
2018-10-31T17:26:23.800072Z,-0.302551,0.261719,-0.27941900000000003
2018-10-31T17:26:24.000072Z,0.012085,0.173157,-0.224548
2018-10-31T17:26:24.200072Z,0.21344000000000002,0.310364,-0.370483
2018-10-31T17:26:24.400072Z,0.357178,0.048401,-0.515259
2018-10-31T17:26:24.600072Z,-0.528748,0.312866,-0.102783
2018-10-31T17:26:24.800072Z,0.577637,-0.21344000000000002,-0.816589
2018-10-31T17:26:25.001072Z,-0.132446,0.386536,-0.035706
2018-10-31T17:26:25.200072Z,0.158447,0.56311,-0.42926000000000003
2018-10-31T17:26:25.399072Z,-0.74353,0.266663,-0.6838380000000001
2018-10-31T17:26:25.600072Z,-0.774109,-0.813904,0.833313
2018-10-31T17:26:25.800072Z,-0.849426,-0.38049299999999997,-0.35827600000000004
2018-10-31T17:26:25.999072Z,-2.270874,0.361267,0.602295
2018-10-31T17:26:26.199072Z,-1.945496,-0.96698,-0.944031
2018-10-31T17:26:26.399072Z,0.18896500000000002,-1.2885739999999999,0.478699
2018-10-31T17:26:26.599072Z,1.219177,-0.747375,-0.8005979999999999
2018-10-31T17:26:26.799072Z,0.941895,-0.331787,-1.418213
2018-10-31T17:26:26.999072Z,-4.28656,1.3504639999999999,3.370789
2018-10-31T17:26:27.199072Z,-1.993896,-0.213684,-0.15545699999999998
2018-10-31T17:26:27.400072Z,-0.49127200000000004,0.112732,-1.294861
2018-10-31T17:26:27.600072Z,-0.409912,0.240112,-0.855957
2018-10-31T17:26:27.800072Z,-1.0008540000000001,0.056029999999999996,-0.190674
2018-10-31T17:26:28.002072Z,-2.87854,0.356567,1.2171020000000001
2018-10-31T17:26:28.200072Z,-0.014648,0.429382,-0.001648
2018-10-31T17:26:28.400072Z,-0.9716799999999999,1.308655,-1.18689
2018-10-31T17:26:28.600072Z,-2.189392,3.226624,-1.0371700000000001
2018-10-31T17:26:28.800072Z,-4.952454,1.099609,4.846924
2018-10-31T17:26:28.999072Z,-0.9658200000000001,-2.883667,-2.505249
2018-10-31T17:26:29.199072Z,-0.098389,0.025574,1.824402
2018-10-31T17:26:29.399072Z,-0.8654790000000001,0.229431,-1.7849119999999998
2018-10-31T17:26:29.599072Z,-1.615784,1.070374,-1.0230709999999998
2018-10-31T17:26:29.799072Z,-1.595825,0.321106,0.506104
2018-10-31T17:26:29.999072Z,-2.742126,0.240112,-0.162598
2018-10-31T17:26:30.199072Z,-2.328918,0.293396,0.342773
2018-10-31T17:26:30.399072Z,-1.526245,1.041382,0.19934100000000002
2018-10-31T17:26:30.605072Z,0.433228,1.416992,-1.139099
2018-10-31T17:26:30.801072Z,-1.654724,1.729553,-1.041809
2018-10-31T17:26:31.000072Z,-0.888,2.17688,-0.25183099999999997
2018-10-31T17:26:31.207072Z,-2.261719,1.122925,0.019531
2018-10-31T17:26:31.400072Z,-1.4689940000000001,-0.262268,-0.24231
2018-10-31T17:26:31.600072Z,0.221191,0.09564199999999999,-1.368408
2018-10-31T17:26:31.799072Z,0.201721,1.7940060000000002,-0.64447
2018-10-31T17:26:32.000072Z,-0.603333,1.8675540000000002,-0.21704099999999998
2018-10-31T17:26:32.200072Z,-1.934937,0.289001,2.664734
2018-10-31T17:26:32.399072Z,-0.371338,-0.318359,-1.0221559999999998
2018-10-31T17:26:32.599072Z,-0.260315,0.7832640000000001,-0.462463
2018-10-31T17:26:32.822072Z,0.966736,0.363831,-0.5588989999999999
2018-10-31T17:26:33.002072Z,-0.04187,-0.595825,-1.035767
2018-10-31T17:26:33.199072Z,0.696655,0.312744,-0.49865699999999996
2018-10-31T17:26:33.402072Z,-1.63916,1.0835569999999999,0.20837399999999998
2018-10-31T17:26:33.603072Z,-0.973999,2.192993,-1.366943
2018-10-31T17:26:33.801072Z,-1.631836,-0.089172,0.502563
2018-10-31T17:26:34.000072Z,-1.336914,-0.023375999999999997,-0.9984129999999999
2018-10-31T17:26:34.200072Z,-1.1201780000000001,1.0426030000000002,-0.70575
2018-10-31T17:26:34.401072Z,-0.222473,0.947327,0.00061
2018-10-31T17:26:34.601072Z,-1.641418,-0.706604,0.7445069999999999
2018-10-31T17:26:34.800072Z,-0.43432600000000005,0.7437739999999999,-2.2730099999999998
2018-10-31T17:26:35.000072Z,-0.21160900000000002,1.9550779999999999,-0.612671
2018-10-31T17:26:35.400072Z,-0.811584,-0.274475,2.367004
2018-10-31T17:26:35.611072Z,-1.4487299999999999,-0.921997,-0.437195
2018-10-31T17:26:35.799072Z,-1.330017,-1.0147709999999999,0.005005
2018-10-31T17:26:35.999072Z,-1.1446530000000001,0.583008,-0.100647
2018-10-31T17:26:36.199072Z,-0.310852,-0.098328,-1.129517
2018-10-31T17:26:36.449072Z,-0.42926000000000003,0.399902,-1.522217
2018-10-31T17:26:36.599072Z,0.025391,0.19506800000000002,2.020508
2018-10-31T17:26:36.799072Z,-1.193481,-0.580933,0.052612
2018-10-31T17:26:36.999072Z,-1.282593,0.019348,-0.17639200000000002
2018-10-31T17:26:37.211072Z,-1.384155,0.673706,0.232483
2018-10-31T17:26:37.399072Z,-0.48498500000000005,0.7105100000000001,0.663086
2018-10-31T17:26:37.600072Z,-0.350403,0.728394,-0.756104
2018-10-31T17:26:37.800072Z,-0.12854000000000002,0.8179930000000001,-0.216187
2018-10-31T17:26:38.001072Z,-0.196106,-0.656738,0.90564
2018-10-31T17:26:38.200072Z,-1.367615,-0.644104,-0.020447
2018-10-31T17:26:38.400072Z,0.12616,0.674377,-0.18042
2018-10-31T17:26:38.602072Z,-0.402649,0.042419,2.204956
2018-10-31T17:26:38.801072Z,-0.735535,-1.731018,1.40509
2018-10-31T17:26:39.055072Z,-0.411926,-0.659424,0.17944300000000002
2018-10-31T17:26:39.199072Z,0.7848510000000001,-0.837341,-0.650208
2018-10-31T17:26:39.400072Z,-0.494507,-2.229309,-0.766479
2018-10-31T17:26:39.600072Z,0.970886,-1.855286,-0.490234
2018-10-31T17:26:39.799072Z,0.231506,0.158325,0.408325
2018-10-31T17:26:39.999072Z,1.154724,1.804199,-0.112854
2018-10-31T17:26:40.199072Z,0.135803,-1.038147,-0.173767
2018-10-31T17:26:40.401072Z,0.846375,-0.17395,-1.596558
2018-10-31T17:26:40.599072Z,-0.21643099999999998,1.4558719999999998,-0.890442
2018-10-31T17:26:40.810072Z,1.2152100000000001,0.451599,-0.072388
2018-10-31T17:26:41.000072Z,1.848572,-0.380371,-1.608459
2018-10-31T17:26:41.200072Z,1.1315309999999998,1.209106,-1.427917
2018-10-31T17:26:41.400072Z,1.033569,0.799561,-0.37316900000000003
2018-10-31T17:26:41.599072Z,1.846191,-0.29504400000000003,-0.317688
2018-10-31T17:26:41.800072Z,-0.14721700000000001,1.06781,-1.5511469999999998
2018-10-31T17:26:42.001072Z,-0.62854,1.8325810000000002,-0.536987
2018-10-31T17:26:42.200072Z,0.180847,1.0042719999999998,-0.423645
2018-10-31T17:26:42.400072Z,0.949463,0.720703,-1.7650759999999999
2018-10-31T17:26:42.600072Z,0.698853,1.598938,-1.135071
2018-10-31T17:26:42.799072Z,-0.384766,1.4545290000000002,-0.228821
2018-10-31T17:26:42.999072Z,-0.072388,1.612183,-2.290283
2018-10-31T17:26:43.199072Z,-0.086426,2.218018,0.403748
2018-10-31T17:26:43.400072Z,-0.9920040000000001,-0.077637,1.18042
2018-10-31T17:26:43.599072Z,-0.6426390000000001,-0.383911,-0.691833
2018-10-31T17:26:43.799072Z,0.255249,1.231384,-1.19751
2018-10-31T17:26:43.999072Z,0.47454799999999997,0.695435,-0.766968
2018-10-31T17:26:44.259072Z,-0.227417,-0.417969,-1.2173459999999998
2018-10-31T17:26:44.405072Z,-0.764648,1.225769,-0.173706
2018-10-31T17:26:44.600072Z,-1.2045290000000002,0.183289,2.057251
2018-10-31T17:26:44.805072Z,-1.860962,-0.6933590000000001,-0.6468510000000001
2018-10-31T17:26:45.000072Z,-0.8952030000000001,1.204651,-0.664978
2018-10-31T17:26:45.200072Z,-0.382019,1.386841,0.305969
2018-10-31T17:26:45.400072Z,-0.48468,0.589294,1.347412
2018-10-31T17:26:45.602072Z,-0.902344,1.107422,-1.806091
2018-10-31T17:26:45.800072Z,-1.927124,1.648682,-0.856384
2018-10-31T17:26:46.004072Z,-0.9273680000000001,-0.676636,1.8148799999999998
2018-10-31T17:26:46.199072Z,-1.6815799999999999,-1.281982,-0.250183
2018-10-31T17:26:46.409072Z,-2.351746,-0.050537,-0.9594729999999999
2018-10-31T17:26:46.608072Z,-0.521729,0.765137,0.620422
2018-10-31T17:26:46.799072Z,-0.140747,0.213928,-0.40741
2018-10-31T17:26:46.999072Z,-0.440979,-0.432068,-1.149353
2018-10-31T17:26:47.200072Z,-1.094727,0.632019,0.025024
2018-10-31T17:26:47.399072Z,-1.200867,1.033264,-0.316162
2018-10-31T17:26:47.599072Z,-1.1522219999999999,-0.969116,-1.491455
2018-10-31T17:26:47.800072Z,-1.8078,-1.17157,-0.38739
2018-10-31T17:26:48.028072Z,-1.300964,-0.16314700000000001,0.39624000000000004
2018-10-31T17:26:48.200072Z,-1.598999,0.435486,-0.530396
2018-10-31T17:26:48.400072Z,-2.3329470000000003,1.077759,-1.067505
2018-10-31T17:26:48.605072Z,-1.579346,1.476318,0.5780029999999999
2018-10-31T17:26:49.008072Z,-1.141541,0.309631,0.68103
2018-10-31T17:26:49.200072Z,-1.217285,-0.576599,0.079346
2018-10-31T17:26:49.409072Z,-0.582092,0.7922359999999999,-0.788879
2018-10-31T17:26:49.600072Z,-0.061767999999999997,0.814941,0.620422
2018-10-31T17:26:49.799072Z,-1.386841,-1.057434,0.645447
2018-10-31T17:26:49.999072Z,-1.641846,-0.685547,-1.403076
2018-10-31T17:26:50.199072Z,-0.76062,1.309204,-0.429321
2018-10-31T17:26:50.399072Z,-0.345276,1.2944950000000002,0.698792
2018-10-31T17:26:50.599072Z,-0.7482300000000001,-1.3587040000000001,0.153687
2018-10-31T17:26:50.799072Z,-0.606934,1.169006,-0.8712770000000001
2018-10-31T17:26:50.999072Z,-0.832886,0.17040999999999998,-0.8494870000000001
2018-10-31T17:26:51.200072Z,0.018799,-0.757263,1.278198
2018-10-31T17:26:51.428072Z,-0.933716,-0.442749,-0.520569
2018-10-31T17:26:51.639072Z,-0.943542,0.48687700000000006,1.371033
2018-10-31T17:26:51.800072Z,1.580566,-0.517029,-0.871582
2018-10-31T17:26:52.000072Z,0.869568,-1.2457280000000002,-0.328491
2018-10-31T17:26:52.200072Z,0.42804,-0.123901,-0.506897
2018-10-31T17:26:52.400072Z,-0.405212,0.7128909999999999,0.588989
2018-10-31T17:26:52.601072Z,-0.17157,-0.41290299999999996,0.277771
2018-10-31T17:26:52.799072Z,-0.804077,0.007324,-1.256897
2018-10-31T17:26:53.001072Z,-0.645813,0.768066,0.001465
2018-10-31T17:26:53.199072Z,0.098022,0.781616,0.33666999999999997
2018-10-31T17:26:53.427072Z,-0.8649290000000001,-1.168518,-0.8779299999999999
2018-10-31T17:26:53.599072Z,1.123169,-0.26178,-0.739563
2018-10-31T17:26:53.799072Z,0.151123,0.448792,-0.26355
2018-10-31T17:26:54.000072Z,0.095947,-0.37316900000000003,0.052612
2018-10-31T17:26:54.199072Z,0.669312,0.630554,-1.488281
2018-10-31T17:26:54.399072Z,-0.504883,1.8704830000000001,-0.67981
2018-10-31T17:26:54.598072Z,0.357605,-0.365906,1.631592
2018-10-31T17:26:54.800072Z,0.45794700000000005,0.397644,-2.767456
2018-10-31T17:26:55.007072Z,0.221863,2.539612,-0.9996950000000001
2018-10-31T17:26:55.199072Z,-0.615112,1.086182,4.339722
2018-10-31T17:26:55.400072Z,-1.386414,-0.252502,-0.908325
2018-10-31T17:26:55.645072Z,-0.676331,1.5791629999999999,-1.3989260000000001
2018-10-31T17:26:55.802072Z,1.4487299999999999,1.2425540000000002,-0.822693
2018-10-31T17:26:56.000072Z,-0.112305,-0.167236,-0.696289
2018-10-31T17:26:56.200072Z,-1.11438,1.9262080000000001,-0.737122
2018-10-31T17:26:56.400072Z,-1.785034,1.917664,0.393433
2018-10-31T17:26:56.599072Z,-1.44519,-0.177673,-0.468445
2018-10-31T17:26:56.799072Z,-0.761841,0.848145,-1.0128780000000002
2018-10-31T17:26:56.999072Z,0.476746,0.642578,1.224609
2018-10-31T17:26:57.199072Z,-1.361572,1.121826,-2.243835
2018-10-31T17:26:57.405072Z,-1.153809,0.133423,-0.143127
2018-10-31T17:26:57.599072Z,-1.317993,-1.575684,2.635559
2018-10-31T17:26:57.799072Z,-2.191223,-0.6914060000000001,-0.8452149999999999
2018-10-31T17:26:57.999072Z,-3.117065,-1.379944,0.630249
2018-10-31T17:26:58.200072Z,-1.0305790000000001,-0.95105,-0.518372
2018-10-31T17:26:58.400072Z,-0.273376,-0.087891,-0.42858900000000005
2018-10-31T17:26:58.600072Z,0.061217999999999995,0.032715,0.46362299999999995
2018-10-31T17:26:58.801072Z,0.464783,0.8632200000000001,-0.8231809999999999
2018-10-31T17:26:59.000072Z,-0.322327,0.5642699999999999,-0.645386
2018-10-31T17:26:59.200072Z,0.14447000000000002,0.5495,0.6831050000000001
2018-10-31T17:26:59.426072Z,-1.8795169999999999,-1.807007,0.155029
2018-10-31T17:26:59.603072Z,-0.8368530000000001,-0.17108199999999998,-1.119873
2018-10-31T17:26:59.800072Z,1.6220700000000001,-0.43267799999999995,1.3234860000000002
2018-10-31T17:26:59.999072Z,-0.2948,-0.363831,-1.38385
2018-10-31T17:27:00.199072Z,-1.103027,0.9151610000000001,-0.538147
2018-10-31T17:27:00.402072Z,-1.247375,-0.20105,1.982788
2018-10-31T17:27:00.603072Z,-1.07489,-0.07220499999999999,-1.258545
2018-10-31T17:27:00.806072Z,0.132019,0.825134,0.007384999999999999
2018-10-31T17:27:01.000072Z,-0.335083,-2.256592,1.0616459999999999
2018-10-31T17:27:01.200072Z,0.084229,-0.207581,-0.795959
2018-10-31T17:27:01.399072Z,0.32305900000000004,0.837097,0.15399200000000002
2018-10-31T17:27:01.600072Z,-0.10321,-1.221924,0.340271
2018-10-31T17:27:01.800072Z,-0.56665,-0.548096,-1.190369
2018-10-31T17:27:02.024072Z,-0.394165,0.36138899999999996,0.20788600000000002
2018-10-31T17:27:02.200072Z,1.316833,-1.516602,-0.42053199999999996
2018-10-31T17:27:02.401072Z,2.135071,-0.338928,-1.9131470000000002
2018-10-31T17:27:02.603072Z,1.6121219999999998,0.137939,-0.370544
2018-10-31T17:27:02.802072Z,0.9869379999999999,-0.269897,0.35754400000000003
2018-10-31T17:27:03.000072Z,-0.294006,2.1088869999999997,-0.80542
2018-10-31T17:27:03.200072Z,-2.314819,0.324402,3.436584
2018-10-31T17:27:03.399072Z,-1.6943970000000002,-0.403198,-0.96344
2018-10-31T17:27:03.599072Z,-1.166931,1.0204469999999999,-1.428955
2018-10-31T17:27:03.830072Z,0.510742,1.694763,-0.07757599999999999
2018-10-31T17:27:04.205072Z,0.412842,-0.36993400000000004,0.26178
2018-10-31T17:27:04.425072Z,0.201965,1.509033,-2.1466060000000002
2018-10-31T17:27:04.599072Z,-1.0697020000000002,1.229492,0.480225
2018-10-31T17:27:04.798072Z,-0.575378,-0.44036899999999995,1.366272
2018-10-31T17:27:05.001072Z,0.669373,0.163452,-2.2509770000000002
2018-10-31T17:27:05.200072Z,-0.030333999999999996,1.034363,-0.22168000000000002
2018-10-31T17:27:05.400072Z,-0.072327,-0.520813,0.9047850000000001
2018-10-31T17:27:05.600072Z,0.071838,1.1560059999999999,-1.7966919999999997
2018-10-31T17:27:05.801072Z,0.11328099999999999,2.0942990000000004,0.538208
2018-10-31T17:27:06.001072Z,0.276123,-0.125244,-0.317017
2018-10-31T17:27:06.200072Z,-0.375977,-0.17913800000000002,-1.863586
2018-10-31T17:27:06.400072Z,1.522644,0.367249,-0.26269499999999996
2018-10-31T17:27:06.611072Z,0.377136,0.22332800000000003,-0.5587770000000001
2018-10-31T17:27:06.800072Z,0.37554899999999997,1.426086,-0.019409
2018-10-31T17:27:07.002072Z,-0.415833,0.79071,1.112793
2018-10-31T17:27:07.199072Z,-0.579529,-0.529358,-0.9108280000000001
2018-10-31T17:27:07.399072Z,-0.306396,1.052063,-0.580994
2018-10-31T17:27:07.599072Z,0.493774,-0.27533,0.893494
2018-10-31T17:27:07.799072Z,0.984192,0.6653439999999999,-1.144287
2018-10-31T17:27:07.999072Z,-0.16809100000000002,2.157959,0.141602
2018-10-31T17:27:08.200072Z,-1.8963619999999999,-0.088013,3.16272
2018-10-31T17:27:08.400072Z,0.138062,-0.037659,-2.003906
2018-10-31T17:27:08.599072Z,1.257935,0.31866500000000003,0.42718500000000004
2018-10-31T17:27:08.800072Z,1.08844,-0.5524899999999999,0.53717
2018-10-31T17:27:09.001072Z,-0.337891,0.635925,-0.682556
2018-10-31T17:27:09.200072Z,-0.280334,1.6957400000000002,-1.034973
2018-10-31T17:27:09.400072Z,-0.397766,-0.332336,0.12054400000000001
2018-10-31T17:27:09.618072Z,0.165588,0.530029,-0.799255
2018-10-31T17:27:09.806072Z,0.671021,-0.007873999999999999,1.583496
2018-10-31T17:27:10.000072Z,0.409851,0.685791,-1.524353
2018-10-31T17:27:10.200072Z,0.315369,1.639832,0.377197
2018-10-31T17:27:10.399072Z,-0.854858,-0.613342,-0.003296
2018-10-31T17:27:10.599072Z,0.284119,-0.144043,-1.7090450000000001
2018-10-31T17:27:10.854072Z,-0.263855,0.49353,1.263794
2018-10-31T17:27:11.000072Z,-0.36883499999999997,-1.334351,1.572266
2018-10-31T17:27:11.199072Z,-0.088074,-1.734863,-0.610291
2018-10-31T17:27:11.402072Z,2.588379,0.076172,-0.634888
2018-10-31T17:27:11.599072Z,0.11511199999999999,0.958923,1.2171020000000001
2018-10-31T17:27:11.799072Z,-0.592468,1.860413,-0.263428
2018-10-31T17:27:12.001072Z,-0.20977800000000002,0.560608,1.294861
2018-10-31T17:27:12.200072Z,-0.548096,-0.47753900000000005,-0.757324
2018-10-31T17:27:12.400072Z,-0.52179,0.547058,-1.002258
2018-10-31T17:27:12.609072Z,0.292236,1.178833,0.201599
2018-10-31T17:27:12.800072Z,-0.8822629999999999,-0.10913099999999999,0.105591
2018-10-31T17:27:13.105072Z,-0.08404500000000001,0.827148,-1.008789
2018-10-31T17:27:13.199072Z,0.42767299999999997,2.2840580000000004,-1.0307620000000002
2018-10-31T17:27:13.404072Z,-0.954041,0.952148,2.822998
2018-10-31T17:27:13.600072Z,-0.786987,-0.516357,-0.369141
2018-10-31T17:27:13.799072Z,-0.749023,0.598816,-0.748169
2018-10-31T17:27:14.006072Z,-0.268127,1.445068,-0.802795
2018-10-31T17:27:14.199072Z,-0.043274,1.034546,-0.232971
2018-10-31T17:27:14.399072Z,0.149292,-0.39465300000000003,-1.059692
2018-10-31T17:27:14.599072Z,1.1651610000000001,0.751892,-0.8870239999999999
2018-10-31T17:27:14.799072Z,0.022888,1.7453,-0.336975
2018-10-31T17:27:14.999072Z,-0.934448,-0.367859,-0.925842
2018-10-31T17:27:15.218072Z,-0.496033,0.6054689999999999,0.09033200000000001
2018-10-31T17:27:15.401072Z,-0.24218800000000001,0.8984989999999999,0.8222659999999999
2018-10-31T17:27:15.602072Z,0.285522,-0.87915,-0.560547
2018-10-31T17:27:15.803072Z,-0.027832,1.335815,-0.7172850000000001
2018-10-31T17:27:16.002072Z,0.215271,1.569092,0.03949
2018-10-31T17:27:16.199072Z,-0.07421900000000001,-1.0204469999999999,-0.005615
2018-10-31T17:27:16.400072Z,-0.72821,0.317261,-0.773071
2018-10-31T17:27:16.625072Z,0.748108,0.084595,0.07299800000000001
2018-10-31T17:27:16.801072Z,0.253601,-0.778931,-0.290344
2018-10-31T17:27:17.208072Z,-0.527039,1.0424799999999999,-0.860535
2018-10-31T17:27:17.398072Z,-1.027344,0.8870239999999999,-0.059387
2018-10-31T17:27:17.598072Z,-0.22705100000000003,-0.859619,0.37304699999999996
2018-10-31T17:27:17.799072Z,-0.027344,-0.20459000000000002,-1.045715
2018-10-31T17:27:17.999072Z,0.881165,0.088379,0.285217
2018-10-31T17:27:18.199072Z,-0.095276,-0.253845,-1.331299
2018-10-31T17:27:18.399072Z,0.643616,1.061157,-0.96991
2018-10-31T17:27:18.599072Z,-0.156677,-0.24969499999999997,0.698303
2018-10-31T17:27:18.803072Z,-0.726685,-0.822876,-0.604797
2018-10-31T17:27:19.004072Z,-1.8654169999999999,-1.3863530000000002,-0.972412
2018-10-31T17:27:19.200072Z,0.790588,0.397217,1.33075
2018-10-31T17:27:19.400072Z,0.395752,0.012206999999999999,0.11792000000000001
2018-10-31T17:27:19.600072Z,-0.35022,0.003418,-0.315186
2018-10-31T17:27:19.800072Z,0.3703,0.611694,-1.038818
2018-10-31T17:27:20.000072Z,-0.431519,0.498291,0.008484
2018-10-31T17:27:20.200072Z,-0.086609,0.7379760000000001,-1.384583
2018-10-31T17:27:20.452072Z,0.43158,0.160278,0.263916
2018-10-31T17:27:20.600072Z,-0.476257,0.33361799999999997,-0.641602
2018-10-31T17:27:20.799072Z,-0.859009,0.468811,-1.2854
2018-10-31T17:27:20.999072Z,-0.572571,0.908691,0.130432
2018-10-31T17:27:21.199072Z,-0.11389200000000001,-0.922424,1.4671020000000001
2018-10-31T17:27:21.399072Z,1.794373,0.874878,-1.467834
2018-10-31T17:27:21.599072Z,0.10992400000000001,1.555603,0.44458000000000003
2018-10-31T17:27:21.798072Z,-0.301025,-1.402588,0.8562620000000001
2018-10-31T17:27:22.000072Z,-0.639404,-0.732971,-1.7335209999999999
2018-10-31T17:27:22.198072Z,0.008606,0.32568400000000003,0.898315
2018-10-31T17:27:22.400072Z,1.148682,-0.736938,0.972778
2018-10-31T17:27:22.602072Z,-0.236389,0.354553,-0.530273
2018-10-31T17:27:22.799072Z,0.5410159999999999,0.286621,-0.35449200000000003
2018-10-31T17:27:23.000072Z,-1.302856,-0.173035,2.006714
2018-10-31T17:27:23.218072Z,-0.7143550000000001,-1.3325200000000001,1.5616459999999999
2018-10-31T17:27:23.404072Z,-1.320068,-0.34173600000000004,0.196838
2018-10-31T17:27:23.601072Z,-0.901855,0.30175799999999997,0.31506300000000004
2018-10-31T17:27:23.811072Z,0.130676,0.516296,0.07019
2018-10-31T17:27:24.001072Z,-0.050171,-0.290955,-0.162537
2018-10-31T17:27:24.200072Z,0.354614,0.21337899999999999,-1.181946
2018-10-31T17:27:24.417072Z,-0.547729,0.8544309999999999,0.448792
2018-10-31T17:27:24.603072Z,-0.899475,-1.300659,0.176575
2018-10-31T17:27:24.803072Z,-0.405518,-0.5725100000000001,-1.090454
2018-10-31T17:27:25.000072Z,-0.350281,-0.15698199999999998,-0.110229
2018-10-31T17:27:25.199072Z,-0.695801,-1.14679,1.6452639999999998
2018-10-31T17:27:25.457072Z,0.162537,-0.447388,-0.37323
2018-10-31T17:27:25.599072Z,-0.041992,0.059570000000000005,0.10241700000000001
2018-10-31T17:27:25.800072Z,-0.81958,-0.712463,1.627441
2018-10-31T17:27:26.001072Z,-0.9066770000000001,-1.329712,0.195923
2018-10-31T17:27:26.200072Z,-0.855713,-0.019104,-0.223877
2018-10-31T17:27:26.400072Z,-0.025879000000000003,0.522461,-0.171753
2018-10-31T17:27:26.600072Z,0.251709,-0.551331,-0.264587
2018-10-31T17:27:26.800072Z,-0.21148699999999998,-1.1883540000000001,1.737427
2018-10-31T17:27:27.000072Z,0.170837,0.198792,-0.195984
2018-10-31T17:27:27.204072Z,0.031921,-0.171631,0.355164
2018-10-31T17:27:27.400072Z,-1.089417,-1.7332759999999998,2.290527
2018-10-31T17:27:27.604072Z,-0.8848879999999999,-0.424622,-0.047729
2018-10-31T17:27:27.804072Z,0.729614,-0.375366,-0.32324200000000003
2018-10-31T17:27:28.068072Z,1.50061,-1.13739,0.8615719999999999
2018-10-31T17:27:28.198072Z,0.321533,0.137817,0.32611100000000004
2018-10-31T17:27:28.399072Z,-0.521179,-0.173279,0.07910199999999999
2018-10-31T17:27:28.606072Z,0.9326780000000001,-0.8468629999999999,1.130188
2018-10-31T17:27:28.999072Z,-0.404541,-0.0068969999999999995,-0.188354
2018-10-31T17:27:29.200072Z,0.58667,-0.618896,-0.15173299999999998
2018-10-31T17:27:29.400072Z,0.910767,-1.802734,0.352722
2018-10-31T17:27:29.600072Z,0.437195,0.433777,0.15246600000000002
2018-10-31T17:27:29.800072Z,0.48919700000000005,-0.241333,2.290955
2018-10-31T17:27:30.001072Z,0.02179,-1.5552979999999998,-0.052489999999999995
2018-10-31T17:27:30.200072Z,-0.20861799999999997,-0.60968,-0.405579
2018-10-31T17:27:30.401072Z,1.278076,-0.322266,-0.22583000000000003
2018-10-31T17:27:30.600072Z,0.5903930000000001,-1.401367,0.6000979999999999
2018-10-31T17:27:30.815072Z,1.351379,0.881409,0.34674099999999997
2018-10-31T17:27:31.000072Z,1.152649,0.765808,-0.5672
2018-10-31T17:27:31.199072Z,-0.746704,-0.997864,-0.887573
2018-10-31T17:27:31.401072Z,-1.066589,-0.622681,-1.859314
2018-10-31T17:27:31.603072Z,0.5377810000000001,0.342957,-0.022095
2018-10-31T17:27:31.805072Z,1.013733,-0.65979,0.98114
2018-10-31T17:27:31.999072Z,0.210022,-0.8521120000000001,0.091431
2018-10-31T17:27:32.200072Z,0.6365970000000001,0.25750700000000004,0.505554
2018-10-31T17:27:32.399072Z,-0.133972,-0.284851,1.1201780000000001
2018-10-31T17:27:32.601072Z,-0.42218,-1.6476439999999999,0.006714
2018-10-31T17:27:32.800072Z,0.583801,0.016968,-0.9074709999999999
2018-10-31T17:27:33.000072Z,0.756653,0.098022,-0.027161
2018-10-31T17:27:33.201072Z,1.12677,-1.6757810000000002,1.75
2018-10-31T17:27:33.400072Z,-0.241943,0.795166,0.443237
2018-10-31T17:27:33.600072Z,-0.779968,0.180542,-0.217346
2018-10-31T17:27:33.800072Z,0.421814,-1.4921879999999998,1.921631
2018-10-31T17:27:34.002072Z,-0.7651979999999999,-1.534668,-0.23449699999999998
2018-10-31T17:27:34.204072Z,-0.5490109999999999,-0.755737,1.232361
2018-10-31T17:27:34.401072Z,0.27374299999999996,-0.441833,0.700806
2018-10-31T17:27:34.602072Z,-1.115479,-0.9781489999999999,0.75708
2018-10-31T17:27:34.801072Z,-0.239502,0.16735799999999998,1.4577639999999998
2018-10-31T17:27:35.201072Z,-2.48053,-0.9259639999999999,1.271301
2018-10-31T17:27:35.762072Z,-1.9290770000000002,0.188538,-0.757263
2018-10-31T17:27:35.827072Z,0.114624,-0.49316400000000005,2.0355220000000003
2018-10-31T17:27:35.833072Z,2.164062,-1.610291,0.224915
2018-10-31T17:27:35.840072Z,0.570984,0.122925,0.47924799999999995
2018-10-31T17:27:36.000072Z,-0.7590939999999999,0.17968800000000001,-0.249756
2018-10-31T17:27:36.200072Z,-0.39306599999999997,-2.13623,1.320862
2018-10-31T17:27:36.400072Z,-0.21398899999999998,-0.612671,-0.046631
2018-10-31T17:27:36.602072Z,0.560547,-1.462341,1.9447020000000002
2018-10-31T17:27:36.801072Z,0.39373800000000003,-0.255127,-1.095947
2018-10-31T17:27:37.021072Z,-0.04071,0.21051,1.216553
2018-10-31T17:27:37.200072Z,-0.45068400000000003,-1.6755369999999998,1.0764770000000001
2018-10-31T17:27:37.401072Z,-0.09338400000000001,-1.434082,-1.550171
2018-10-31T17:27:37.600072Z,-0.395874,-0.29882800000000004,-0.024048
2018-10-31T17:27:37.812072Z,2.009277,-0.30499299999999996,0.9457399999999999
2018-10-31T17:27:37.999072Z,0.547974,-0.770325,0.46539300000000006
2018-10-31T17:27:38.199072Z,0.508545,0.758484,0.573303
2018-10-31T17:27:38.399072Z,0.091553,-0.039245999999999996,2.628906
2018-10-31T17:27:38.600072Z,-0.606201,-1.167297,0.848145
2018-10-31T17:27:38.800072Z,-0.18219000000000002,-0.15033,-0.397949
2018-10-31T17:27:38.999072Z,0.4021,-0.50946,2.945557
2018-10-31T17:27:39.199072Z,0.12561,-0.200562,-0.861816
2018-10-31T17:27:39.402072Z,0.641235,0.929565,0.8479610000000001
2018-10-31T17:27:39.600072Z,-0.503784,-1.394836,0.33374000000000004
2018-10-31T17:27:39.799072Z,-0.136658,-0.47906499999999996,0.838074
2018-10-31T17:27:39.999072Z,0.650696,-0.554199,0.688599
2018-10-31T17:27:40.200072Z,2.1091919999999997,-1.1915280000000001,-0.554688
2018-10-31T17:27:40.401072Z,1.8670650000000002,-0.66394,-0.745239
2018-10-31T17:27:40.600072Z,0.6984859999999999,0.349182,0.069458
2018-10-31T17:27:40.807072Z,1.048096,-1.127869,-0.572205
2018-10-31T17:27:41.000072Z,0.136414,-0.234314,-1.068481
2018-10-31T17:27:41.200072Z,-0.8250120000000001,0.218506,1.0709229999999998
2018-10-31T17:27:41.400072Z,-0.082886,-0.477051,2.335388
2018-10-31T17:27:41.599072Z,0.823425,-0.504211,-0.772522
2018-10-31T17:27:41.818072Z,1.6745,0.335754,-0.27771
2018-10-31T17:27:41.999072Z,-0.7547,-0.653503,2.148926
2018-10-31T17:27:42.402072Z,0.8247680000000001,-2.1907959999999997,2.461304
2018-10-31T17:27:42.599072Z,0.727661,-0.6541140000000001,0.044373
2018-10-31T17:27:42.799072Z,0.497742,0.27508499999999997,-0.354858
2018-10-31T17:27:43.000072Z,-0.017943999999999998,-0.20361300000000002,0.551819
2018-10-31T17:27:43.218072Z,0.724731,1.073242,-0.099365
2018-10-31T17:27:43.400072Z,0.78418,2.098816,0.187378
2018-10-31T17:27:43.600072Z,0.5817260000000001,0.924683,0.178833
2018-10-31T17:27:43.801072Z,-0.789917,-0.43859899999999996,-1.3687129999999998
2018-10-31T17:27:44.015072Z,-0.883057,0.162476,-0.349182
2018-10-31T17:27:44.201072Z,0.33758499999999997,0.676636,0.1922
2018-10-31T17:27:44.401072Z,0.559387,0.14294400000000002,0.471558
2018-10-31T17:27:44.600072Z,-0.14440899999999998,0.335938,-1.191833
2018-10-31T17:27:44.799072Z,0.239197,1.7193599999999998,-0.132019
2018-10-31T17:27:44.999072Z,-0.457581,-0.34362800000000004,3.088074
2018-10-31T17:27:45.199072Z,-0.47943100000000005,-2.030151,0.921082
2018-10-31T17:27:45.399072Z,-0.093079,-0.789673,0.408752
2018-10-31T17:27:45.621072Z,0.136719,0.126953,1.003845
2018-10-31T17:27:45.799072Z,0.13000499999999998,0.40734899999999996,-0.697205
2018-10-31T17:27:46.003072Z,-0.7172850000000001,-0.43695100000000003,0.619019
2018-10-31T17:27:46.206072Z,0.03418,-0.087585,-0.088318
2018-10-31T17:27:46.404072Z,0.206177,1.097717,-0.5780029999999999
2018-10-31T17:27:46.606072Z,0.00415,0.654358,0.024658000000000003
2018-10-31T17:27:46.800072Z,-0.338074,-1.777405,-1.708984
2018-10-31T17:27:47.015072Z,-0.55011,-1.417725,-1.129089
2018-10-31T17:27:47.200072Z,-0.036926,-0.023926,0.40625
2018-10-31T17:27:47.400072Z,-0.44641099999999995,-0.77655,2.1040650000000003
2018-10-31T17:27:47.600072Z,0.09277300000000001,-0.7816770000000001,-0.9485469999999999
2018-10-31T17:27:47.799072Z,0.10607899999999999,-0.181152,0.274414
2018-10-31T17:27:48.000072Z,-0.180359,-0.508423,1.048462
2018-10-31T17:27:48.199072Z,-0.312195,-2.781128,-1.318115
2018-10-31T17:27:48.401072Z,0.470398,-3.242371,-1.105957
2018-10-31T17:27:48.599072Z,2.288147,-0.672791,1.201416
2018-10-31T17:27:48.799072Z,-0.566833,-0.085083,0.26251199999999997
2018-10-31T17:27:49.009072Z,-2.157593,0.702393,-1.604797
2018-10-31T17:27:49.210072Z,-0.5122680000000001,-0.509705,-2.698608
2018-10-31T17:27:49.409072Z,0.295105,-0.162598,0.773804
2018-10-31T17:27:49.609072Z,0.5974119999999999,-1.227295,2.167725
2018-10-31T17:27:49.810072Z,-0.91095,0.533081,1.617615
2018-10-31T17:27:50.010072Z,-0.049377,-0.767212,-0.374756
2018-10-31T17:27:50.209072Z,0.231812,-0.346558,-0.070129
2018-10-31T17:27:50.410072Z,-0.133606,-0.205688,-0.5862430000000001
2018-10-31T17:27:50.610072Z,0.33123800000000003,-0.648987,0.882446
2018-10-31T17:27:50.810072Z,0.046752999999999996,-0.40637199999999996,-0.296082
2018-10-31T17:27:51.010072Z,0.187744,0.783875,2.649597
2018-10-31T17:27:51.210072Z,-0.415649,0.08038300000000001,0.30932600000000005
2018-10-31T17:27:51.410072Z,-1.019348,0.125,0.088257
2018-10-31T17:27:51.609072Z,-0.49108900000000005,-1.147217,0.290649
2018-10-31T17:27:51.810072Z,1.688782,-0.588562,-1.799133
2018-10-31T17:27:52.009072Z,-0.069763,1.206726,-0.763916
2018-10-31T17:27:52.209072Z,1.041992,0.975769,0.473267
2018-10-31T17:27:52.409072Z,-0.527832,0.80481,1.011292
2018-10-31T17:27:52.609072Z,-0.312744,-0.48706099999999997,-1.1141969999999999
2018-10-31T17:27:52.809072Z,-0.9215700000000001,0.297241,-0.886841
2018-10-31T17:27:53.010072Z,-0.927307,0.410583,1.2211299999999998
2018-10-31T17:27:53.210072Z,0.143311,-1.1214600000000001,0.725037
2018-10-31T17:27:53.410072Z,0.754456,-0.010131999999999999,-0.324829
2018-10-31T17:27:53.621072Z,0.162415,0.8741459999999999,1.605164
2018-10-31T17:27:53.820072Z,-0.624207,-1.327576,0.670471
2018-10-31T17:27:54.020072Z,-0.38855,-1.041199,-1.234436
2018-10-31T17:27:54.222072Z,-0.135925,-0.758728,-1.6826169999999998
2018-10-31T17:27:54.420072Z,2.6766970000000003,0.39819299999999996,0.8648680000000001
2018-10-31T17:27:54.622072Z,0.858459,-0.774048,-1.456848
2018-10-31T17:27:54.819072Z,-1.2504879999999998,0.680237,0.14068599999999998
2018-10-31T17:27:55.020072Z,-0.525818,-1.086731,-1.798889
2018-10-31T17:27:55.219072Z,-0.998901,-1.121765,-0.9471440000000001
2018-10-31T17:27:55.487072Z,-0.014159999999999999,-0.935608,0.132202
2018-10-31T17:27:55.622072Z,-1.924622,-0.690247,0.497192
2018-10-31T17:27:55.819072Z,-3.673157,-0.011902,1.110474
2018-10-31T17:27:56.019072Z,-2.357239,-1.233154,2.694763
2018-10-31T17:27:56.218072Z,-1.687012,-0.411865,-0.543762
2018-10-31T17:27:56.420072Z,-2.4110110000000002,0.675354,0.15087899999999999
2018-10-31T17:27:56.622072Z,-1.382507,0.002258,2.017395
2018-10-31T17:27:56.820072Z,-0.553894,-0.955017,-1.3990479999999998
2018-10-31T17:27:57.020072Z,-1.030884,0.399841,0.19555699999999998
2018-10-31T17:27:57.220072Z,-1.7967529999999998,-0.380737,1.043091
2018-10-31T17:27:57.422072Z,-2.2059330000000004,-0.257385,1.781738
2018-10-31T17:27:57.621072Z,-1.392578,0.498108,-0.991577
2018-10-31T17:27:57.820072Z,-0.143066,0.21228000000000002,0.158447
2018-10-31T17:27:58.020072Z,-0.755432,-0.9131469999999999,0.181824
2018-10-31T17:27:58.426072Z,-0.420166,0.638062,-0.550354
2018-10-31T17:27:58.619072Z,-0.862915,0.24450700000000003,-0.143127
2018-10-31T17:27:58.819072Z,-2.606384,-0.9779049999999999,1.152954
2018-10-31T17:27:59.019072Z,-1.6290280000000001,0.185669,-0.116211
2018-10-31T17:27:59.219072Z,-0.211853,-0.266357,-0.528748
2018-10-31T17:27:59.419072Z,-0.810181,-0.8749389999999999,0.060486
2018-10-31T17:27:59.619072Z,0.049866,1.349365,-0.233337
2018-10-31T17:27:59.822072Z,-1.1627809999999998,0.486572,-0.9447629999999999
2018-10-31T17:28:00.020072Z,-1.5764770000000001,-0.729309,-2.629395
2018-10-31T17:28:00.242072Z,-2.303589,-0.25945999999999997,-1.8681029999999998
2018-10-31T17:28:00.422072Z,0.518555,-0.043945,-0.185425
2018-10-31T17:28:00.619072Z,-0.822083,-0.418579,-0.188477
2018-10-31T17:28:00.820072Z,-1.20575,1.0614620000000001,-0.233215
2018-10-31T17:28:01.020072Z,-3.6096800000000004,-0.071289,1.437378
2018-10-31T17:28:01.225072Z,-2.637939,0.535706,0.995239
2018-10-31T17:28:01.422072Z,-1.25885,0.721375,-1.349915
2018-10-31T17:28:01.622072Z,-1.7528689999999998,0.8515010000000001,1.445496
2018-10-31T17:28:01.820072Z,-1.28894,1.033936,-2.1286009999999997
2018-10-31T17:28:02.019072Z,-2.388245,1.877625,0.072937
2018-10-31T17:28:02.219072Z,-1.164856,-0.173706,-2.247986
2018-10-31T17:28:02.419072Z,-1.656189,-0.008911,-1.536499
2018-10-31T17:28:02.622072Z,0.252808,0.339417,0.387268
2018-10-31T17:28:02.820072Z,-1.679199,0.44226099999999996,-0.328552
2018-10-31T17:28:03.019072Z,-1.8309939999999998,1.599915,-0.604675
2018-10-31T17:28:03.234072Z,-2.390991,0.9116209999999999,0.723816
2018-10-31T17:28:03.426072Z,-1.280029,0.45251499999999995,-3.331482
2018-10-31T17:28:03.620072Z,-1.7471310000000002,0.5368649999999999,0.895752
2018-10-31T17:28:03.821072Z,-0.42285200000000006,0.573853,0.22711199999999998
2018-10-31T17:28:04.020072Z,-2.8207400000000002,2.283569,-0.210693
2018-10-31T17:28:04.220072Z,-3.961182,1.096252,1.102966
2018-10-31T17:28:04.427072Z,-0.977234,0.639771,-1.2601930000000001
2018-10-31T17:28:04.622072Z,0.983459,-0.231812,-0.46929899999999997
2018-10-31T17:28:04.821072Z,-0.389771,1.393982,-1.054749
2018-10-31T17:28:05.019072Z,-1.8721310000000002,1.6395259999999998,-1.7589720000000002
2018-10-31T17:28:05.219072Z,-1.331543,0.7749020000000001,-2.7213130000000003
2018-10-31T17:28:05.418072Z,-0.8984989999999999,0.759338,-1.764893
2018-10-31T17:28:05.619072Z,1.186951,1.238586,-1.5101930000000001
2018-10-31T17:28:05.819072Z,-0.269775,0.9899899999999999,-1.5550540000000002
2018-10-31T17:28:06.020072Z,-1.737,1.676575,-1.092224
2018-10-31T17:28:06.218072Z,-0.24029499999999998,-0.045593,-5.185486
2018-10-31T17:28:06.419072Z,-1.2578120000000002,0.079529,1.2944950000000002
2018-10-31T17:28:06.619072Z,-2.248169,1.899963,2.580505
2018-10-31T17:28:06.820072Z,-1.449341,0.9210209999999999,-0.5996090000000001
2018-10-31T17:28:07.020072Z,0.888611,2.0144040000000003,-1.989136
2018-10-31T17:28:07.219072Z,0.5405270000000001,1.423889,3.854919
2018-10-31T17:28:07.420072Z,-0.590515,0.336975,-1.511719
2018-10-31T17:28:07.625072Z,0.143127,1.059204,0.680664
2018-10-31T17:28:07.820072Z,-0.8316040000000001,1.670288,0.563538
2018-10-31T17:28:08.020072Z,-0.183228,0.987183,-0.7096560000000001
2018-10-31T17:28:08.231072Z,-1.181824,0.721863,-1.40155
2018-10-31T17:28:08.421072Z,-0.6580199999999999,0.624207,-1.186035
2018-10-31T17:28:08.619072Z,-0.866333,0.664978,-0.988708
2018-10-31T17:28:08.849072Z,-1.0944209999999999,0.591858,-0.5585939999999999
2018-10-31T17:28:09.022072Z,-0.709534,1.121399,-0.407959
2018-10-31T17:28:09.223072Z,0.576843,0.501343,0.101074
2018-10-31T17:28:09.419072Z,1.741455,1.081421,-0.436646
2018-10-31T17:28:09.619072Z,0.503113,1.6669919999999998,-1.341675
2018-10-31T17:28:09.828072Z,0.680786,2.332092,-0.327698
2018-10-31T17:28:10.019072Z,-1.484192,0.24645999999999998,0.63562
2018-10-31T17:28:10.225072Z,-0.987,-1.077515,0.161987
2018-10-31T17:28:10.422072Z,-0.11029100000000001,-0.14746099999999998,0.264893
2018-10-31T17:28:10.822072Z,0.046508999999999995,0.19873,0.084595
2018-10-31T17:28:11.020072Z,-0.985474,0.7932739999999999,-0.681213
2018-10-31T17:28:11.220072Z,-0.22412100000000001,1.533203,-0.26000999999999996
2018-10-31T17:28:11.425072Z,0.194946,1.442505,0.585938
2018-10-31T17:28:11.624072Z,-0.947083,-0.20385699999999998,-1.390625
2018-10-31T17:28:11.819072Z,-0.8581540000000001,0.294189,-1.597229
2018-10-31T17:28:12.019072Z,-1.150146,1.134399,-0.586609
2018-10-31T17:28:12.219072Z,0.553162,-0.002686,0.419617
2018-10-31T17:28:12.419072Z,0.129883,0.36084,-1.7889400000000002
2018-10-31T17:28:12.692072Z,0.14666700000000002,0.922974,-0.19812000000000002
2018-10-31T17:28:12.819072Z,-1.155884,-0.575745,2.6297610000000002
2018-10-31T17:28:13.020072Z,-0.181824,-1.8408200000000001,0.130859
2018-10-31T17:28:13.221072Z,-0.232605,-0.7592770000000001,-0.198853
2018-10-31T17:28:13.419072Z,0.175171,1.363708,0.30847199999999997
2018-10-31T17:28:13.622072Z,0.017456,-0.559631,0.396545
2018-10-31T17:28:13.820072Z,0.651001,0.749939,-1.227478
2018-10-31T17:28:14.021072Z,-0.46984899999999996,1.233765,0.060364
2018-10-31T17:28:14.220072Z,-0.626099,-0.289429,-0.608215
2018-10-31T17:28:14.420072Z,-0.242554,0.11236600000000001,-0.825684
2018-10-31T17:28:14.625072Z,-0.295837,0.963989,-0.46002200000000004
2018-10-31T17:28:14.842072Z,0.181763,1.4689940000000001,1.716492
2018-10-31T17:28:15.025072Z,-0.44647200000000004,-0.27374299999999996,-0.9375610000000001
2018-10-31T17:28:15.226072Z,0.509338,0.9180299999999999,-1.737915
2018-10-31T17:28:15.419072Z,-0.43981899999999996,1.7127689999999998,0.194153
2018-10-31T17:28:15.619072Z,-1.4144290000000002,-0.285034,1.043274
2018-10-31T17:28:15.820072Z,-0.409485,-0.697327,-2.135681
2018-10-31T17:28:16.019072Z,0.501404,0.190979,0.412231
2018-10-31T17:28:16.219072Z,0.7402340000000001,-0.7692869999999999,0.183594
2018-10-31T17:28:16.420072Z,-1.432739,1.5543209999999998,-0.48339799999999994
2018-10-31T17:28:16.620072Z,-1.143982,0.35681199999999996,0.8989870000000001
2018-10-31T17:28:16.819072Z,-1.107178,-1.508118,0.28894000000000003
2018-10-31T17:28:17.084072Z,-0.5141600000000001,-0.008179,-0.040405
2018-10-31T17:28:17.219072Z,0.064087,-0.209473,-0.36236599999999997
2018-10-31T17:28:17.420072Z,-0.598755,0.613708,-1.30365
2018-10-31T17:28:17.622072Z,-1.946594,0.12799100000000002,1.244873
2018-10-31T17:28:17.821072Z,-3.3657839999999997,-1.408081,-1.850037
2018-10-31T17:28:18.022072Z,-2.011414,0.122742,0.027770999999999997
2018-10-31T17:28:18.220072Z,-0.112854,0.019653,0.408752
2018-10-31T17:28:18.420072Z,-0.181946,-0.8887940000000001,-0.23797600000000002
2018-10-31T17:28:18.620072Z,-0.59021,0.419617,-0.156555
2018-10-31T17:28:18.820072Z,-1.408936,0.097473,-1.381409
2018-10-31T17:28:19.113072Z,-2.767273,-0.524414,0.764465
2018-10-31T17:28:19.219072Z,-2.0496830000000004,-0.33844,-1.378296
2018-10-31T17:28:19.419072Z,-0.854065,-0.15020799999999998,0.6057739999999999
2018-10-31T17:28:19.620072Z,-1.483948,-0.335449,-0.104675
2018-10-31T17:28:19.820072Z,-1.152405,1.629211,0.19506800000000002
2018-10-31T17:28:20.019072Z,-2.431152,1.096619,1.069336
2018-10-31T17:28:20.219072Z,-2.345093,-0.257141,0.728455
2018-10-31T17:28:20.419072Z,-1.081421,0.41497799999999996,-0.825867
2018-10-31T17:28:20.620072Z,-0.8308719999999999,0.270569,0.309143
2018-10-31T17:28:20.819072Z,-1.552612,0.816772,-1.6846919999999999
2018-10-31T17:28:21.020072Z,-1.011169,1.263123,-0.244446
