Datetime,accx,accy,accz
2018-09-24T21:25:17.931302Z,0.0,0.0,0.0
2018-09-24T21:25:18.155302Z,-0.670391,-0.587696,-0.049458999999999996
2018-09-24T21:25:18.370302Z,-0.570631,0.295476,-0.694823
2018-09-24T21:25:18.569302Z,-0.285948,0.28791500000000003,-0.141569
2018-09-24T21:25:18.770302Z,-0.48063,0.340808,1.020226
2018-09-24T21:25:18.966302Z,-0.12366300000000001,-0.996944,-0.751576
2018-09-24T21:25:19.166302Z,-0.6051479999999999,-0.361977,-0.223176
2018-09-24T21:25:19.371302Z,-0.9806010000000001,-0.130967,0.41926199999999997
2018-09-24T21:25:19.573302Z,-1.179765,-0.7659090000000001,0.714828
2018-09-24T21:25:19.770302Z,0.00575,0.311182,-0.317858
2018-09-24T21:25:19.971302Z,0.663064,1.1395979999999999,0.145612
2018-09-24T21:25:20.172302Z,0.459168,0.191706,1.009192
2018-09-24T21:25:20.370302Z,0.744239,-0.5874199999999999,-0.548813
2018-09-24T21:25:20.572302Z,0.8105060000000001,0.5911270000000001,0.17343
2018-09-24T21:25:20.766302Z,0.22640500000000002,0.197131,1.293303
2018-09-24T21:25:20.967302Z,-0.084828,-1.2296049999999998,-0.36201700000000003
2018-09-24T21:25:21.157302Z,-0.181652,0.167916,-1.108734
2018-09-24T21:25:21.371302Z,0.41226199999999996,0.49850200000000006,1.373298
2018-09-24T21:25:21.556302Z,0.954989,-0.9738370000000001,0.253621
2018-09-24T21:25:21.772302Z,0.41525200000000007,-0.420332,-1.3421319999999999
2018-09-24T21:25:21.958302Z,1.031077,0.6048100000000001,-0.270746
2018-09-24T21:25:22.158302Z,-0.996289,-0.8553719999999999,0.91701
2018-09-24T21:25:22.376302Z,0.13766099999999998,-0.75353,-1.364809
2018-09-24T21:25:22.601302Z,0.596037,0.296371,-1.220367
2018-09-24T21:25:22.770302Z,-0.365342,0.896399,1.28535
2018-09-24T21:25:22.968302Z,0.887943,-1.234883,-0.9226059999999999
2018-09-24T21:25:23.169302Z,0.573439,0.13639500000000002,-1.12491
2018-09-24T21:25:23.372302Z,0.848087,0.751604,0.745683
2018-09-24T21:25:23.573302Z,-1.035134,0.223356,2.162462
2018-09-24T21:25:23.772302Z,0.183945,-0.5269520000000001,-1.048178
2018-09-24T21:25:23.960302Z,-0.557407,0.358211,-1.027132
2018-09-24T21:25:24.175302Z,-1.8967150000000002,0.9165540000000001,1.192574
2018-09-24T21:25:24.359302Z,-1.954918,-0.81966,1.554152
2018-09-24T21:25:24.572302Z,-0.593062,-1.6634189999999998,-0.767415
2018-09-24T21:25:24.773302Z,0.705132,0.7539100000000001,-0.016298
2018-09-24T21:25:24.964302Z,1.0207959999999998,-0.093856,1.909152
2018-09-24T21:25:25.174302Z,-0.989225,-0.203494,0.134638
2018-09-24T21:25:25.361302Z,0.178849,-0.041472,-1.052828
2018-09-24T21:25:25.576302Z,-0.164221,0.184153,0.725275
2018-09-24T21:25:25.774302Z,-0.737993,-1.7156200000000001,1.22623
2018-09-24T21:25:25.974302Z,-1.226959,-2.23075,-0.509443
2018-09-24T21:25:26.175302Z,0.37948200000000004,-3.343686,0.7337020000000001
2018-09-24T21:25:26.361302Z,-0.009755,-1.86035,0.949838
2018-09-24T21:25:26.561302Z,-0.09627999999999999,-1.45704,0.013208000000000001
2018-09-24T21:25:26.775302Z,-0.836413,-0.982088,0.268735
2018-09-24T21:25:26.977302Z,0.6436970000000001,-0.649271,0.81386
2018-09-24T21:25:27.178302Z,0.225881,-0.90236,0.4407
2018-09-24T21:25:27.363302Z,2.290676,0.033216,-1.273248
2018-09-24T21:25:27.577302Z,0.41545699999999997,0.556963,1.05834
2018-09-24T21:25:27.777302Z,-0.279886,-1.576717,-0.49790500000000004
2018-09-24T21:25:27.962302Z,0.33673800000000004,-0.296427,-1.281758
2018-09-24T21:25:28.175302Z,0.399881,0.42831099999999994,0.420238
2018-09-24T21:25:28.363302Z,0.173611,-0.360737,2.463962
2018-09-24T21:25:28.576302Z,-0.085289,-0.7450260000000001,-1.573053
2018-09-24T21:25:28.764302Z,-0.999401,-0.049305,0.742604
2018-09-24T21:25:28.963302Z,-1.785909,-1.882814,2.417192
2018-09-24T21:25:29.179302Z,-1.61416,-1.610899,-1.14389
2018-09-24T21:25:29.372302Z,-1.1881629999999999,-0.8727309999999999,0.193722
2018-09-24T21:25:29.578302Z,-0.23531999999999997,-0.459359,0.266973
2018-09-24T21:25:29.778302Z,1.556926,-0.115104,0.373755
2018-09-24T21:25:29.975302Z,1.596249,0.146722,-0.8436629999999999
2018-09-24T21:25:30.165302Z,0.5478850000000001,-0.202123,2.1144439999999998
2018-09-24T21:25:30.378302Z,0.686321,-1.1813040000000001,-0.35692399999999996
2018-09-24T21:25:30.633302Z,2.231636,-0.818511,-0.784408
2018-09-24T21:25:30.779302Z,1.9246159999999999,-1.318478,1.193666
2018-09-24T21:25:30.978302Z,2.752383,-3.328511,0.591616
2018-09-24T21:25:31.165302Z,1.219962,-3.4409919999999996,1.403234
2018-09-24T21:25:31.376302Z,0.816524,-1.956459,0.705002
2018-09-24T21:25:31.582302Z,-0.14455199999999999,-1.180181,0.992107
2018-09-24T21:25:31.766302Z,-0.6876329999999999,-1.228183,0.171871
2018-09-24T21:25:31.980302Z,-0.622875,-0.2674,-1.415482
2018-09-24T21:25:32.182302Z,-0.185782,0.228183,1.024774
2018-09-24T21:25:32.384302Z,-0.328935,-0.086346,1.825252
2018-09-24T21:25:32.586302Z,-0.365358,-1.5900219999999998,-0.607677
2018-09-24T21:25:32.781302Z,-1.1852850000000001,-0.5232020000000001,-0.555655
2018-09-24T21:25:32.980302Z,-1.7370830000000002,-0.695763,1.4581819999999999
2018-09-24T21:25:33.200302Z,-1.496836,-1.587774,-0.102064
2018-09-24T21:25:33.380302Z,-0.053574000000000004,0.360636,0.512439
2018-09-24T21:25:33.611302Z,0.75215,0.372895,1.013795
2018-09-24T21:25:33.834302Z,0.395384,-0.913529,-0.002788
2018-09-24T21:25:34.007302Z,0.436213,0.52056,-1.46997
2018-09-24T21:25:34.254302Z,0.207112,1.503417,-0.470689
2018-09-24T21:25:34.419302Z,-0.530521,-0.162714,1.9375810000000002
2018-09-24T21:25:34.605302Z,-0.002144,-1.571375,-0.167804
2018-09-24T21:25:34.768302Z,0.369521,0.09929299999999999,-1.5654350000000001
2018-09-24T21:25:35.008302Z,-0.09491799999999999,1.044143,1.235236
2018-09-24T21:25:35.202302Z,0.339096,-0.8302209999999999,0.239325
2018-09-24T21:25:35.409302Z,0.80984,-1.2020389999999999,-0.675706
2018-09-24T21:25:35.608302Z,0.21944299999999997,-0.123358,-0.8047979999999999
2018-09-24T21:25:35.808302Z,-3.3785300000000005,-1.396499,3.069412
2018-09-24T21:25:36.009302Z,-1.818114,-1.9315259999999999,-0.7681720000000001
2018-09-24T21:25:36.195302Z,-0.477491,-2.2240450000000003,-0.490597
2018-09-24T21:25:36.452302Z,0.104599,-0.152192,0.1323
2018-09-24T21:25:36.605302Z,1.261617,-0.617372,1.435926
2018-09-24T21:25:36.807302Z,2.280136,-1.111908,0.368813
2018-09-24T21:25:36.978302Z,1.398341,0.147291,-0.722494
2018-09-24T21:25:37.183302Z,1.025463,-0.005515,0.8233940000000001
2018-09-24T21:25:37.412302Z,0.3625,-0.7221390000000001,-0.54981
2018-09-24T21:25:37.580302Z,0.9288629999999999,-0.21330100000000002,-0.9320620000000001
2018-09-24T21:25:37.773302Z,1.229825,-0.159094,0.989182
2018-09-24T21:25:37.978302Z,1.907358,-0.8680530000000001,2.128967
2018-09-24T21:25:38.184302Z,1.7073009999999997,0.159189,-0.717263
2018-09-24T21:25:38.395302Z,0.77927,0.840585,0.500066
2018-09-24T21:25:38.570302Z,0.260306,0.12299600000000001,1.558825
2018-09-24T21:25:38.786302Z,-0.847231,-1.205969,-0.029881
2018-09-24T21:25:38.971302Z,-0.000227,0.5431630000000001,-0.353551
2018-09-24T21:25:39.188302Z,0.461479,0.460654,1.452223
2018-09-24T21:25:39.389302Z,0.369237,-0.927815,0.799609
2018-09-24T21:25:39.577302Z,0.657929,-0.960521,-1.394499
2018-09-24T21:25:39.783302Z,0.69303,0.9033059999999999,0.856467
2018-09-24T21:25:39.976302Z,0.188085,0.247744,0.868186
2018-09-24T21:25:40.172302Z,0.026188,-1.319016,-0.32174400000000003
2018-09-24T21:25:40.388302Z,0.654634,-0.28588800000000003,-1.014135
2018-09-24T21:25:40.573302Z,0.29233600000000004,-0.324179,2.221061
2018-09-24T21:25:40.785302Z,1.041288,-0.7319859999999999,-1.144152
2018-09-24T21:25:40.986302Z,0.662215,-0.320637,-0.8352200000000001
2018-09-24T21:25:41.188302Z,0.679349,0.128636,0.313075
2018-09-24T21:25:41.391302Z,-0.15947,-0.912024,-0.24818099999999998
2018-09-24T21:25:41.587302Z,0.493184,-0.24255500000000002,-0.945773
2018-09-24T21:25:41.804302Z,-0.026591000000000004,0.409616,-0.006221
2018-09-24T21:25:41.987302Z,-0.44786099999999995,0.7007770000000001,0.802686
2018-09-24T21:25:42.182302Z,0.388287,-0.443212,-0.948369
2018-09-24T21:25:42.384302Z,0.348711,0.481263,-0.580661
2018-09-24T21:25:42.589302Z,0.249004,0.719737,0.790045
2018-09-24T21:25:42.790302Z,-0.22868200000000002,-0.41809300000000005,1.316833
2018-09-24T21:25:42.988302Z,0.8204600000000001,-0.39914299999999997,-0.61978
2018-09-24T21:25:43.190302Z,1.117558,-0.263792,0.41505299999999995
2018-09-24T21:25:43.391302Z,1.428608,-1.0391190000000001,1.266947
2018-09-24T21:25:43.588302Z,1.155866,-1.1414469999999999,-0.275627
2018-09-24T21:25:43.802302Z,0.397833,-0.6280720000000001,0.026394
2018-09-24T21:25:43.991302Z,0.41460699999999995,0.23215100000000002,0.419933
2018-09-24T21:25:44.190302Z,0.095151,-0.300529,0.7625270000000001
2018-09-24T21:25:44.386302Z,-0.635919,-1.072907,-0.53215
2018-09-24T21:25:44.589302Z,-0.18188,0.25361100000000003,-0.714091
2018-09-24T21:25:44.792302Z,-0.570048,0.453442,0.698856
2018-09-24T21:25:44.991302Z,0.287625,-1.238211,1.5166879999999998
2018-09-24T21:25:45.191302Z,0.263572,-1.348858,-0.670682
2018-09-24T21:25:45.409302Z,0.387467,0.300894,0.030064999999999998
2018-09-24T21:25:45.590302Z,-0.551135,-0.532406,1.424954
2018-09-24T21:25:45.794302Z,-0.07234199999999999,-2.139252,0.17163599999999998
2018-09-24T21:25:45.991302Z,0.468545,-1.503209,-0.356646
2018-09-24T21:25:46.178302Z,-0.564898,0.026856,-0.450168
2018-09-24T21:25:46.393302Z,-0.427755,0.07166900000000001,0.975612
2018-09-24T21:25:46.578302Z,0.68485,-1.100068,0.5439890000000001
2018-09-24T21:25:46.778302Z,0.470127,-1.1527479999999999,-0.55757
2018-09-24T21:25:46.995302Z,0.10937000000000001,0.341497,0.782204
2018-09-24T21:25:47.202302Z,0.140549,-0.609845,0.6624770000000001
2018-09-24T21:25:47.394302Z,0.30329,-1.2617,-0.342024
2018-09-24T21:25:47.592302Z,1.063092,-0.7457229999999999,-0.301325
2018-09-24T21:25:47.780302Z,0.569376,-1.0311629999999998,0.454329
2018-09-24T21:25:47.989302Z,0.930657,-1.09604,0.177087
2018-09-24T21:25:48.190302Z,0.653602,-0.448817,-0.22020399999999998
2018-09-24T21:25:48.379302Z,0.20686999999999997,0.011502,-0.382655
2018-09-24T21:25:48.595302Z,-0.528421,-0.860949,1.170605
2018-09-24T21:25:48.795302Z,-0.6113350000000001,-1.117944,-0.709974
2018-09-24T21:25:48.993302Z,0.045693,-0.315869,-1.002226
2018-09-24T21:25:49.180302Z,-0.11572,-0.379793,1.79758
2018-09-24T21:25:49.435302Z,0.9728129999999999,-1.56459,-0.99265
2018-09-24T21:25:49.581302Z,0.498788,-0.056971,-0.879416
2018-09-24T21:25:49.783302Z,0.401577,-0.032976,0.779708
2018-09-24T21:25:49.987302Z,-0.162865,-0.182954,0.923499
2018-09-24T21:25:50.185302Z,0.009764,-0.605046,-0.5308579999999999
2018-09-24T21:25:50.394302Z,-0.724558,0.48511499999999996,-0.316054
2018-09-24T21:25:50.596302Z,0.07144600000000001,-0.184919,1.333446
2018-09-24T21:25:50.795302Z,0.401321,-0.714644,0.258743
2018-09-24T21:25:50.999302Z,0.608622,-0.078948,-0.47330600000000006
2018-09-24T21:25:51.195302Z,0.12138800000000001,0.20546399999999998,0.962485
2018-09-24T21:25:51.400302Z,-0.400046,-1.175062,1.195083
2018-09-24T21:25:51.590302Z,-0.415601,-0.8824780000000001,-1.382606
2018-09-24T21:25:51.797302Z,0.101662,0.143861,0.8296120000000001
2018-09-24T21:25:51.995302Z,0.125621,-0.46137399999999995,1.115273
2018-09-24T21:25:52.194302Z,0.46812600000000004,-0.41514700000000004,-0.925588
2018-09-24T21:25:52.396302Z,0.467783,-0.163217,-0.9287350000000001
2018-09-24T21:25:52.604302Z,0.112075,0.65246,1.162747
2018-09-24T21:25:52.797302Z,-0.6103350000000001,-1.370471,0.5226350000000001
2018-09-24T21:25:52.982302Z,-0.30136799999999997,-0.693519,-1.214819
2018-09-24T21:25:53.254302Z,0.284802,0.048172,-0.153791
2018-09-24T21:25:53.393302Z,-0.41550299999999996,0.011616,1.317244
2018-09-24T21:25:53.610302Z,0.100356,-1.6388880000000001,-0.24027600000000002
2018-09-24T21:25:53.784302Z,0.114078,-0.8553879999999999,-0.614402
2018-09-24T21:25:53.997302Z,0.629966,0.569765,-0.649458
2018-09-24T21:25:54.184302Z,-0.5906600000000001,-0.566995,1.258502
2018-09-24T21:25:54.398302Z,-0.018664,-1.185262,-0.710217
2018-09-24T21:25:54.594302Z,0.507948,-0.219652,-0.54335
2018-09-24T21:25:54.797302Z,-0.54278,0.48311499999999996,-0.133462
2018-09-24T21:25:54.998302Z,-2.382879,-2.079381,0.750927
2018-09-24T21:25:55.183302Z,-2.017629,-1.470365,-0.08101599999999999
2018-09-24T21:25:55.400302Z,-0.601366,-1.069377,-0.281884
2018-09-24T21:25:55.600302Z,1.7560189999999998,0.698921,-0.012980000000000002
2018-09-24T21:25:55.786302Z,0.33207600000000004,0.414,1.677142
2018-09-24T21:25:56.000302Z,-0.031681,-0.887684,-0.840391
2018-09-24T21:25:56.200302Z,0.827048,0.137026,-0.518644
2018-09-24T21:25:56.400302Z,0.732739,0.43673199999999995,0.374184
2018-09-24T21:25:56.602302Z,1.4623270000000002,-0.792809,0.64527
2018-09-24T21:25:56.796302Z,0.9505379999999999,-0.116525,-0.810404
2018-09-24T21:25:56.995302Z,0.653521,0.678279,0.45047299999999996
2018-09-24T21:25:57.198302Z,0.668545,0.310054,0.7357279999999999
2018-09-24T21:25:57.399302Z,0.528845,-0.352311,-0.414955
2018-09-24T21:25:57.597302Z,0.203699,0.5918439999999999,-0.674153
2018-09-24T21:25:57.801302Z,0.14113599999999998,0.345993,0.530879
2018-09-24T21:25:58.000302Z,0.46584200000000003,-0.286404,0.880149
2018-09-24T21:25:58.204302Z,0.770371,0.313071,-0.321712
2018-09-24T21:25:58.402302Z,0.635321,0.46009399999999995,0.256721
2018-09-24T21:25:58.603302Z,0.580663,-0.31113,1.099159
2018-09-24T21:25:58.810302Z,0.393523,-0.6038319999999999,-0.613801
2018-09-24T21:25:59.004302Z,0.535087,0.18341500000000002,-0.469025
2018-09-24T21:25:59.188302Z,0.149451,0.102801,0.666534
2018-09-24T21:25:59.401302Z,-0.328214,-0.39371799999999996,0.789153
2018-09-24T21:25:59.602302Z,0.018443,-0.260873,-0.744201
2018-09-24T21:25:59.805302Z,0.443478,0.46756000000000003,0.300527
2018-09-24T21:25:59.988302Z,0.772601,-0.285794,0.884231
2018-09-24T21:26:00.203302Z,0.193054,-1.165039,-0.089588
2018-09-24T21:26:00.402302Z,1.089584,-0.693719,-0.101906
2018-09-24T21:26:00.604302Z,1.574051,-0.44556999999999997,0.49795500000000004
2018-09-24T21:26:00.805302Z,-0.668197,-0.43154899999999996,0.284938
2018-09-24T21:26:01.004302Z,-1.1194110000000002,-0.288405,0.0008710000000000001
2018-09-24T21:26:01.221302Z,0.7399,-0.148601,0.01645
2018-09-24T21:26:01.429302Z,1.880885,-0.024923,0.835203
2018-09-24T21:26:01.633302Z,0.5817359999999999,0.079846,-0.18740199999999999
2018-09-24T21:26:01.853302Z,-0.45848,0.485654,-0.34244
2018-09-24T21:26:02.030302Z,-0.102781,0.709916,0.059306
2018-09-24T21:26:02.232302Z,1.063113,1.073753,-0.305429
2018-09-24T21:26:02.391302Z,0.394664,1.030869,0.147824
2018-09-24T21:26:02.591302Z,0.144305,0.16203399999999998,0.729588
2018-09-24T21:26:02.858302Z,0.8022020000000001,-0.599062,-0.48934799999999995
2018-09-24T21:26:02.991302Z,0.624125,0.646521,0.026572000000000002
2018-09-24T21:26:03.191302Z,0.188608,0.392977,0.77936
2018-09-24T21:26:03.405302Z,-0.258184,-1.079642,0.82444
2018-09-24T21:26:03.604302Z,0.256309,0.010551999999999999,-1.145355
2018-09-24T21:26:03.802302Z,0.081676,1.0391709999999998,0.47260100000000005
2018-09-24T21:26:03.991302Z,0.299124,-0.074616,0.796349
2018-09-24T21:26:04.191302Z,0.513864,-0.968616,-0.43031899999999995
2018-09-24T21:26:04.407302Z,0.443984,0.404681,-0.9415100000000001
2018-09-24T21:26:04.606302Z,-0.032057999999999996,0.205986,0.496512
2018-09-24T21:26:04.793302Z,-0.24010900000000002,-1.225984,0.046175
2018-09-24T21:26:05.007302Z,0.518794,-0.21391,-0.696808
2018-09-24T21:26:05.202302Z,0.233546,0.201562,-0.31940999999999997
2018-09-24T21:26:05.408302Z,0.434011,-1.615508,0.46007200000000004
2018-09-24T21:26:05.605302Z,0.077448,-0.909641,-0.415579
2018-09-24T21:26:05.807302Z,-0.271843,-0.418364,0.036631
2018-09-24T21:26:06.009302Z,0.341343,0.115629,0.101792
2018-09-24T21:26:06.208302Z,0.450061,0.29118499999999997,-0.027542
2018-09-24T21:26:06.408302Z,0.071733,0.334868,-0.203072
2018-09-24T21:26:06.610302Z,0.706019,0.951442,-0.041325
2018-09-24T21:26:06.810302Z,0.621513,1.230949,-0.472973
2018-09-24T21:26:07.008302Z,-0.077224,-0.046288,0.993405
2018-09-24T21:26:07.205302Z,0.240632,-0.777938,-0.725979
2018-09-24T21:26:07.408302Z,0.669128,-0.213248,-0.571133
2018-09-24T21:26:07.608302Z,0.879793,0.141593,-0.173282
2018-09-24T21:26:07.813302Z,-0.048246,-0.406475,-0.158866
2018-09-24T21:26:08.009302Z,0.447995,0.034249,-0.113435
2018-09-24T21:26:08.213302Z,0.22722699999999998,0.9606469999999999,-0.366028
2018-09-24T21:26:08.412302Z,0.48916099999999996,0.846715,0.981909
2018-09-24T21:26:08.597302Z,0.679201,-0.744621,-0.6102270000000001
2018-09-24T21:26:08.809302Z,0.48262299999999997,0.615938,-0.8797159999999999
2018-09-24T21:26:09.010302Z,0.819385,0.945892,0.42463100000000004
2018-09-24T21:26:09.209302Z,0.66198,1.216756,1.063029
2018-09-24T21:26:09.397302Z,-0.158076,-0.907136,-1.388392
2018-09-24T21:26:09.597302Z,0.3394,0.149846,-0.8940319999999999
2018-09-24T21:26:09.796302Z,0.454797,0.827676,0.906544
2018-09-24T21:26:10.009302Z,0.505897,-0.710692,2.110974
2018-09-24T21:26:10.198302Z,0.917099,-0.32755300000000004,-0.9782770000000001
2018-09-24T21:26:10.411302Z,0.37493899999999997,0.187273,0.612668
2018-09-24T21:26:10.611302Z,0.5699649999999999,0.029251999999999997,1.3116459999999999
2018-09-24T21:26:10.807302Z,-0.953735,-1.1512280000000001,-0.069016
2018-09-24T21:26:11.010302Z,-0.962277,-0.667006,-0.499496
2018-09-24T21:26:11.212302Z,-0.864864,-1.195495,0.9894440000000001
2018-09-24T21:26:11.412302Z,0.171876,-1.59836,0.30483899999999997
2018-09-24T21:26:11.648302Z,0.543679,-1.319244,-0.005789
2018-09-24T21:26:11.799302Z,0.53567,-1.3027090000000001,0.310057
2018-09-24T21:26:12.016302Z,0.151687,-0.259892,0.231544
2018-09-24T21:26:12.209302Z,0.46461800000000003,-0.178223,0.43969600000000003
2018-09-24T21:26:12.412302Z,1.300131,-0.350948,-0.011214
2018-09-24T21:26:12.600302Z,0.9678190000000001,0.033353,-0.481959
2018-09-24T21:26:12.833302Z,1.363249,0.303161,0.005118
2018-09-24T21:26:13.018302Z,1.167901,0.664103,1.130755
2018-09-24T21:26:13.210302Z,1.000189,-0.046231,0.9801139999999999
2018-09-24T21:26:13.415302Z,0.578338,-1.105683,-0.372347
2018-09-24T21:26:13.600302Z,0.46288999999999997,0.026101999999999997,-0.980987
2018-09-24T21:26:13.814302Z,0.811329,0.228733,0.8640030000000001
2018-09-24T21:26:14.001302Z,0.36680100000000004,-0.25453200000000004,1.203739
2018-09-24T21:26:14.215302Z,0.7069979999999999,-0.754211,-0.541725
2018-09-24T21:26:14.413302Z,0.6377689999999999,0.017708,0.43584399999999995
2018-09-24T21:26:14.601302Z,0.25143699999999997,-0.144309,0.9856209999999999
2018-09-24T21:26:14.811302Z,-0.034727999999999995,-1.6757009999999999,0.23717199999999997
2018-09-24T21:26:15.014302Z,0.23425900000000002,0.075031,-0.140845
2018-09-24T21:26:15.215302Z,0.54515,-0.044081999999999996,0.919422
2018-09-24T21:26:15.416302Z,1.389553,-1.456752,0.43736
2018-09-24T21:26:15.602302Z,1.150017,-1.13073,-0.46346000000000004
2018-09-24T21:26:15.816302Z,0.671239,0.318871,0.038225
2018-09-24T21:26:16.018302Z,0.075163,0.570585,0.7216779999999999
2018-09-24T21:26:16.218302Z,0.367772,-1.0643209999999999,1.306094
2018-09-24T21:26:16.418302Z,0.215905,-1.258319,-1.086308
2018-09-24T21:26:16.618302Z,0.33217800000000003,0.349763,-0.12695499999999998
2018-09-24T21:26:16.811302Z,0.47497799999999996,0.247212,1.55934
2018-09-24T21:26:17.016302Z,0.6622439999999999,-1.5280129999999998,0.291271
2018-09-24T21:26:17.204302Z,0.711813,-1.3518379999999999,-0.7187859999999999
2018-09-24T21:26:17.416302Z,0.968468,0.164876,0.48264700000000005
2018-09-24T21:26:17.617302Z,-0.075395,0.027304000000000002,0.9448620000000001
2018-09-24T21:26:17.805302Z,-0.49200600000000005,-1.42202,-0.126493
2018-09-24T21:26:18.003302Z,-0.015187,-0.598731,-0.828156
2018-09-24T21:26:18.218302Z,-0.355391,0.24484299999999998,0.6761699999999999
2018-09-24T21:26:18.418302Z,0.8357709999999999,-1.04819,0.638813
2018-09-24T21:26:18.604302Z,0.665511,-0.871316,-0.681974
2018-09-24T21:26:18.806302Z,0.696779,-0.067375,-0.7462949999999999
2018-09-24T21:26:19.033302Z,-0.160359,0.138301,1.223965
2018-09-24T21:26:19.220302Z,-0.174395,-1.727859,-0.095652
2018-09-24T21:26:19.419302Z,0.192179,-0.727083,-0.853658
2018-09-24T21:26:19.623302Z,0.167733,-0.018923,-0.34907
2018-09-24T21:26:19.819302Z,0.528721,-0.921818,0.656022
2018-09-24T21:26:20.019302Z,0.682791,-1.213006,-0.402694
2018-09-24T21:26:20.205302Z,0.29136799999999996,-0.209785,-0.407463
2018-09-24T21:26:20.416302Z,0.832527,0.055673,0.547431
2018-09-24T21:26:20.610302Z,0.176611,-1.567236,-0.511518
2018-09-24T21:26:20.819302Z,0.21011,-0.32445,-0.320877
2018-09-24T21:26:21.007302Z,0.056287000000000004,-0.10778399999999999,0.44536099999999995
2018-09-24T21:26:21.218302Z,-0.082694,-0.20439300000000002,1.111176
2018-09-24T21:26:21.422302Z,0.632215,-0.633238,-0.8526739999999999
2018-09-24T21:26:21.620302Z,0.710354,0.098253,0.530231
2018-09-24T21:26:21.822302Z,0.022680000000000002,0.689779,0.975716
2018-09-24T21:26:22.021302Z,-0.077641,-1.164045,1.406794
2018-09-24T21:26:22.223302Z,0.218151,-0.759392,-0.429696
2018-09-24T21:26:22.477302Z,0.335762,0.10305999999999998,-0.403379
2018-09-24T21:26:22.620302Z,0.012041,0.540567,1.1232719999999998
2018-09-24T21:26:22.821302Z,0.258696,-1.7476169999999998,1.238974
2018-09-24T21:26:23.019302Z,0.220619,-0.285945,-0.74202
2018-09-24T21:26:23.222302Z,-0.215205,-0.538551,0.801118
2018-09-24T21:26:23.422302Z,-0.892108,-1.012306,1.25296
2018-09-24T21:26:23.623302Z,-0.340787,-0.833202,-0.757965
2018-09-24T21:26:23.822302Z,-0.25721700000000003,0.077171,-0.006522
2018-09-24T21:26:24.023302Z,0.195879,-0.225861,1.319294
2018-09-24T21:26:24.217302Z,0.7703720000000001,-1.272598,-0.574907
2018-09-24T21:26:24.427302Z,1.074683,-0.8571719999999999,-0.535986
2018-09-24T21:26:24.623302Z,0.41006099999999995,-1.563451,0.9739
2018-09-24T21:26:24.823302Z,1.59071,-2.078093,0.761192
2018-09-24T21:26:25.009302Z,1.10453,-1.6592049999999998,-0.15212699999999998
2018-09-24T21:26:25.221302Z,0.419659,-1.4599719999999998,0.30392600000000003
2018-09-24T21:26:25.421302Z,-0.381017,-0.552664,0.714258
2018-09-24T21:26:25.624302Z,0.813004,-1.012464,-0.37753400000000004
2018-09-24T21:26:25.825302Z,0.840578,-0.437774,-0.203099
2018-09-24T21:26:26.024302Z,0.388497,-0.396267,0.37324
2018-09-24T21:26:26.226302Z,-0.153683,-1.45238,0.914482
2018-09-24T21:26:26.442302Z,-0.031407,-0.5172979999999999,-1.095699
2018-09-24T21:26:26.610302Z,-0.11758699999999998,0.24309099999999997,-0.23513299999999998
2018-09-24T21:26:26.826302Z,-0.497197,0.200049,1.26952
2018-09-24T21:26:27.026302Z,-0.166458,-0.8312729999999999,-0.488414
2018-09-24T21:26:27.223302Z,0.494421,0.074361,-0.755641
2018-09-24T21:26:27.426302Z,0.22162199999999999,0.18795699999999999,1.820687
2018-09-24T21:26:27.611302Z,-0.646211,-1.8461889999999999,0.365154
2018-09-24T21:26:27.826302Z,-0.016705,0.044212,-0.49948100000000006
2018-09-24T21:26:28.028302Z,0.079498,0.29599000000000003,0.119671
2018-09-24T21:26:28.222302Z,-0.025407,-0.954427,2.49903
2018-09-24T21:26:28.422302Z,0.38776700000000003,-0.6812090000000001,-1.865273
2018-09-24T21:26:28.627302Z,0.42212700000000003,0.30068,0.7713869999999999
2018-09-24T21:26:28.813302Z,-0.39414699999999997,0.078784,0.9956309999999999
2018-09-24T21:26:29.026302Z,-1.213302,-1.300383,-0.130878
2018-09-24T21:26:29.227302Z,0.252562,-0.7831239999999999,-1.096065
2018-09-24T21:26:29.427302Z,0.22914600000000002,0.682966,1.670706
2018-09-24T21:26:29.626302Z,1.033342,-1.4764959999999998,0.265228
2018-09-24T21:26:29.823302Z,0.711851,-0.906819,-0.358116
2018-09-24T21:26:30.013302Z,0.999501,0.011923,-0.36239099999999996
2018-09-24T21:26:30.245302Z,1.201281,-2.122532,1.077127
2018-09-24T21:26:30.414302Z,1.410679,-2.150214,0.180728
2018-09-24T21:26:30.627302Z,0.668155,-1.42289,-0.466125
2018-09-24T21:26:30.830302Z,-0.72945,-0.480155,0.405134
2018-09-24T21:26:31.033302Z,0.47773000000000004,-1.373725,0.832823
2018-09-24T21:26:31.230302Z,-0.103218,-0.851008,-0.728403
2018-09-24T21:26:31.430302Z,0.563066,-0.363286,-0.64079
2018-09-24T21:26:31.644302Z,-0.015006,0.312129,1.2232120000000002
2018-09-24T21:26:31.855302Z,-0.707544,-0.65415,-0.858295
2018-09-24T21:26:32.055302Z,-0.072809,-0.050054,-0.8306469999999999
2018-09-24T21:26:32.256302Z,-0.053785,0.41276599999999997,0.732332
2018-09-24T21:26:32.457302Z,0.461236,-0.685036,1.491853
2018-09-24T21:26:32.656302Z,0.488796,-0.637976,-0.497979
2018-09-24T21:26:32.888302Z,0.9697479999999999,-0.141684,0.14774
2018-09-24T21:26:33.056302Z,0.30338899999999996,0.060903,1.2655459999999998
2018-09-24T21:26:33.216302Z,-0.681207,-1.591386,0.850799
2018-09-24T21:26:33.451302Z,0.294097,-0.552411,-0.865448
2018-09-24T21:26:33.649302Z,0.547597,0.11996199999999999,0.513735
2018-09-24T21:26:33.856302Z,0.368701,-0.9470879999999999,1.7478669999999998
2018-09-24T21:26:34.055302Z,1.0787149999999999,-0.9063450000000001,-0.676171
2018-09-24T21:26:34.279302Z,0.253704,-0.10040199999999999,0.737038
2018-09-24T21:26:34.425302Z,-0.372078,-0.986035,1.1482350000000001
2018-09-24T21:26:34.626302Z,0.023527,-1.153997,-0.435943
2018-09-24T21:26:34.827302Z,0.672071,-0.636069,-1.0330219999999999
2018-09-24T21:26:35.052302Z,0.748741,-0.701263,1.6002889999999999
2018-09-24T21:26:35.232302Z,1.342586,-1.195881,-0.704941
2018-09-24T21:26:35.431302Z,0.933918,-0.38873,-1.006779
2018-09-24T21:26:35.617302Z,0.8693540000000001,-0.285161,1.284211
2018-09-24T21:26:35.818302Z,-0.657127,-1.8565189999999998,-0.721004
2018-09-24T21:26:36.033302Z,0.163193,-0.49545200000000006,-0.834968
2018-09-24T21:26:36.233302Z,0.121499,0.06279,0.570133
2018-09-24T21:26:36.428302Z,0.079953,-0.480203,2.087519
2018-09-24T21:26:36.631302Z,1.076833,-0.69328,-0.315517
2018-09-24T21:26:36.833302Z,0.567164,-0.21195999999999998,0.23543899999999998
2018-09-24T21:26:37.032302Z,-0.003722,-0.261233,1.329136
2018-09-24T21:26:37.219302Z,0.221538,-1.133145,-0.110349
2018-09-24T21:26:37.435302Z,-0.470846,0.445773,-0.077129
2018-09-24T21:26:37.635302Z,-0.691513,0.278994,0.846908
2018-09-24T21:26:37.820302Z,0.592566,-1.3756549999999999,1.632552
2018-09-24T21:26:38.019302Z,0.55589,-1.8204069999999999,-0.745541
2018-09-24T21:26:38.251302Z,-0.870251,-0.332727,0.774301
2018-09-24T21:26:38.423302Z,-1.954504,-1.8292959999999998,0.397733
2018-09-24T21:26:38.637302Z,-1.835221,-2.198514,-0.173791
2018-09-24T21:26:38.835302Z,-1.78404,-1.652928,-0.432979
2018-09-24T21:26:39.035302Z,0.27455799999999997,-0.6562899999999999,-0.375672
2018-09-24T21:26:39.235302Z,0.823491,-0.038536,0.0827
2018-09-24T21:26:39.438302Z,1.205809,-0.891009,0.139048
2018-09-24T21:26:39.635302Z,1.561082,-0.9042709999999999,0.42519799999999996
2018-09-24T21:26:39.823302Z,1.141322,0.382446,1.985783
2018-09-24T21:26:40.038302Z,0.644316,-1.882612,0.292679
2018-09-24T21:26:40.255302Z,0.9486979999999999,-0.614657,-1.3698
2018-09-24T21:26:40.435302Z,0.7267640000000001,0.315089,0.049523000000000005
2018-09-24T21:26:40.637302Z,0.512131,-1.634857,1.197386
2018-09-24T21:26:40.836302Z,0.146622,-0.41718900000000003,-1.398816
2018-09-24T21:26:41.037302Z,0.762976,0.097768,-0.609521
2018-09-24T21:26:41.223302Z,0.081058,1.338176,0.107956
2018-09-24T21:26:41.437302Z,-0.147557,-2.091889,-0.396908
2018-09-24T21:26:41.637302Z,0.75817,-0.463924,-0.651781
2018-09-24T21:26:41.884302Z,-0.08340399999999999,0.21068,0.264965
2018-09-24T21:26:42.035302Z,-1.1230149999999999,-0.732739,1.746234
2018-09-24T21:26:42.240302Z,-1.054429,-1.9194849999999999,-0.085148
2018-09-24T21:26:42.435302Z,-1.174118,-2.912687,0.326524
2018-09-24T21:26:42.637302Z,-0.048626,-2.403829,1.047297
2018-09-24T21:26:42.839302Z,0.131471,-1.989916,1.132466
2018-09-24T21:26:43.038302Z,0.9082870000000001,-0.071576,-0.018797
2018-09-24T21:26:43.238302Z,1.532805,-0.053640999999999994,1.0115180000000001
2018-09-24T21:26:43.439302Z,0.9507909999999999,-0.332675,0.575453
2018-09-24T21:26:43.638302Z,1.046767,-0.732251,-0.77505
2018-09-24T21:26:43.834302Z,0.746808,1.317048,0.925558
2018-09-24T21:26:44.039302Z,0.40612800000000004,-0.283507,1.5423229999999999
2018-09-24T21:26:44.244302Z,0.035774,-1.447882,-0.5144310000000001
2018-09-24T21:26:44.467302Z,1.2790290000000002,-0.524418,-0.9367129999999999
2018-09-24T21:26:44.640302Z,0.165665,0.5484359999999999,1.833982
2018-09-24T21:26:44.841302Z,1.318191,-1.9320220000000001,0.8364299999999999
2018-09-24T21:26:45.038302Z,0.980087,-1.288052,-0.891735
2018-09-24T21:26:45.239302Z,0.994875,-0.15370599999999998,-0.752473
2018-09-24T21:26:45.442302Z,0.188019,0.341134,0.923523
2018-09-24T21:26:45.640302Z,0.325235,-1.804716,0.664907
2018-09-24T21:26:45.840302Z,0.83441,-0.446363,-0.956108
2018-09-24T21:26:46.044302Z,0.48769799999999996,0.17352599999999999,-0.121619
2018-09-24T21:26:46.241302Z,1.186161,-1.5795350000000001,1.281158
2018-09-24T21:26:46.440302Z,0.723745,-1.074373,-0.798795
2018-09-24T21:26:46.641302Z,0.363219,0.286598,-0.653884
2018-09-24T21:26:46.827302Z,0.491939,1.206935,0.8397
2018-09-24T21:26:47.042302Z,-0.34128600000000003,-1.9319680000000001,0.89045
2018-09-24T21:26:47.242302Z,0.313716,-0.6985279999999999,-0.551848
2018-09-24T21:26:47.466302Z,-0.48987200000000003,0.5689,-1.194896
2018-09-24T21:26:47.643302Z,0.676845,0.019766,1.580935
2018-09-24T21:26:47.845302Z,0.5501560000000001,-1.3638059999999999,-1.257133
2018-09-24T21:26:48.087302Z,0.674809,-0.041839999999999995,-0.436805
2018-09-24T21:26:48.239302Z,-0.129673,1.423913,0.44827700000000004
2018-09-24T21:26:48.442302Z,-0.508361,-1.269075,3.170758
2018-09-24T21:26:48.645302Z,0.00047599999999999997,-0.757572,-1.186005
2018-09-24T21:26:48.858302Z,0.09009299999999999,-0.130109,0.06098200000000001
2018-09-24T21:26:49.029302Z,0.972433,-0.21841,1.576483
2018-09-24T21:26:49.241302Z,1.962759,-2.381137,1.178237
2018-09-24T21:26:49.439302Z,0.8765069999999999,-1.586509,-0.040333
2018-09-24T21:26:49.643302Z,0.712924,0.10409000000000002,0.096914
2018-09-24T21:26:49.844302Z,1.423282,-0.319463,2.352257
2018-09-24T21:26:50.047302Z,-0.72244,-2.00785,0.11943699999999999
2018-09-24T21:26:50.230302Z,0.028668,-0.436913,-0.8135359999999999
2018-09-24T21:26:50.462302Z,0.296215,-0.030561,0.9098569999999999
2018-09-24T21:26:50.630302Z,-0.052177999999999995,-0.544725,1.437945
2018-09-24T21:26:50.843302Z,0.310907,-1.509838,-0.451642
2018-09-24T21:26:51.042302Z,0.5852539999999999,0.548794,0.126711
2018-09-24T21:26:51.245302Z,0.358114,0.28975700000000004,1.6762029999999999
2018-09-24T21:26:51.445302Z,-0.442208,-2.7126240000000004,1.5561479999999999
2018-09-24T21:26:51.632302Z,0.235471,-1.141174,-2.068714
2018-09-24T21:26:51.842302Z,0.261712,0.468505,1.331882
2018-09-24T21:26:52.041302Z,-0.221208,-1.164852,1.104695
2018-09-24T21:26:52.245302Z,0.322898,-1.406424,-1.2792780000000001
2018-09-24T21:26:52.446302Z,0.46025600000000005,-0.310307,-1.014319
2018-09-24T21:26:52.645302Z,0.232514,0.648183,1.8199900000000002
2018-09-24T21:26:52.845302Z,-0.739412,-2.64071,0.538011
2018-09-24T21:26:53.066302Z,0.13331500000000002,-1.05782,-1.251026
2018-09-24T21:26:53.248302Z,0.23229899999999998,-0.065664,-0.700624
2018-09-24T21:26:53.479302Z,1.610391,-1.46095,1.311639
2018-09-24T21:26:53.646302Z,2.8112790000000003,-2.363408,0.339737
2018-09-24T21:26:53.833302Z,1.873277,-2.314828,-0.16756300000000002
2018-09-24T21:26:54.044302Z,1.314237,-1.908512,0.8566590000000001
2018-09-24T21:26:54.248302Z,-0.657967,-1.275059,0.740933
2018-09-24T21:26:54.449302Z,-0.774284,-0.742225,-0.400316
2018-09-24T21:26:54.644302Z,0.563972,-0.42706000000000005,-0.43497399999999997
2018-09-24T21:26:54.842302Z,-0.340619,0.14265799999999998,0.339553
2018-09-24T21:26:55.046302Z,-0.6660119999999999,-0.9783649999999999,-1.129103
2018-09-24T21:26:55.250302Z,0.230775,-0.547611,-0.756841
2018-09-24T21:26:55.450302Z,0.182622,0.908551,0.146567
2018-09-24T21:26:55.648302Z,-0.712671,-0.085467,2.345198
2018-09-24T21:26:55.848302Z,0.123723,-0.788517,-0.621467
2018-09-24T21:26:56.049302Z,-0.008792,-0.238265,-0.225427
2018-09-24T21:26:56.246302Z,0.392701,0.264236,0.827766
2018-09-24T21:26:56.448302Z,0.9066549999999999,-2.043498,1.751948
2018-09-24T21:26:56.650302Z,1.1171440000000001,-0.45973,-0.335426
2018-09-24T21:26:56.846302Z,1.1106040000000001,-0.030683999999999996,1.597237
2018-09-24T21:26:57.045302Z,-0.195269,-1.3020040000000002,0.5492670000000001
2018-09-24T21:26:57.237302Z,0.759627,-1.679503,-0.206733
2018-09-24T21:26:57.451302Z,0.342557,-0.018966999999999998,0.601821
2018-09-24T21:26:57.651302Z,0.32214499999999996,-0.570908,1.6586189999999998
2018-09-24T21:26:57.848302Z,1.187716,-1.416857,-0.663991
2018-09-24T21:26:58.086302Z,1.153991,-1.230137,-0.177845
2018-09-24T21:26:58.244302Z,0.349587,0.139097,1.260605
2018-09-24T21:26:58.451302Z,-0.43843999999999994,-1.8488669999999998,0.845785
2018-09-24T21:26:58.653302Z,0.400544,-1.01994,-1.187878
2018-09-24T21:26:58.849302Z,0.16008599999999998,0.084812,-0.9477620000000001
2018-09-24T21:26:59.050302Z,0.43799099999999996,-0.9487180000000001,1.331693
2018-09-24T21:26:59.251302Z,0.639894,-1.172807,-0.964807
2018-09-24T21:26:59.451302Z,0.816389,-0.299732,-0.549574
2018-09-24T21:26:59.638302Z,0.438724,0.28168200000000004,0.839183
2018-09-24T21:26:59.852302Z,-0.21369899999999997,-1.454366,-0.749516
2018-09-24T21:27:00.062302Z,0.5425260000000001,-0.8325229999999999,-0.34189400000000003
2018-09-24T21:27:00.253302Z,-0.17507899999999998,0.434058,-0.31412399999999996
2018-09-24T21:27:00.440302Z,-0.052542,-0.284124,1.927136
2018-09-24T21:27:00.668302Z,0.5513170000000001,-0.9220280000000001,-0.516652
2018-09-24T21:27:00.884302Z,0.643563,0.010153,0.264763
2018-09-24T21:27:01.078302Z,0.12762,-0.142242,1.165825
2018-09-24T21:27:01.275302Z,-0.20576599999999998,-1.6096780000000002,0.611259
2018-09-24T21:27:01.490302Z,0.5225380000000001,-0.077415,-0.111401
2018-09-24T21:27:01.679302Z,0.9914280000000001,-0.030045999999999996,1.263182
2018-09-24T21:27:01.880302Z,1.442488,-1.1493959999999999,0.427333
2018-09-24T21:27:02.078302Z,0.769374,-0.957089,-0.67045
2018-09-24T21:27:02.278302Z,0.24719699999999997,-0.15124100000000001,0.8578379999999999
2018-09-24T21:27:02.479302Z,-0.479921,-1.9596939999999998,1.6893759999999998
2018-09-24T21:27:02.682302Z,0.306311,-0.795516,-1.6175760000000001
2018-09-24T21:27:02.915302Z,-0.053016999999999995,0.076926,-0.233907
2018-09-24T21:27:03.046302Z,0.820318,-1.4278899999999999,0.72329
2018-09-24T21:27:03.255302Z,0.698295,-1.10238,-0.7147600000000001
2018-09-24T21:27:03.452302Z,0.667722,-0.118496,-0.43493699999999996
2018-09-24T21:27:03.653302Z,0.6382399999999999,0.245548,1.418033
2018-09-24T21:27:03.842302Z,-0.148274,-1.152794,-1.364387
2018-09-24T21:27:04.054302Z,-0.055759,-0.23221399999999998,0.13461800000000002
2018-09-24T21:27:04.259302Z,0.26956199999999997,0.284568,0.5378109999999999
2018-09-24T21:27:04.457302Z,1.168798,-1.269439,2.138616
2018-09-24T21:27:04.654302Z,1.632906,-1.085045,-0.166298
2018-09-24T21:27:04.842302Z,1.391214,-0.8503440000000001,1.011806
2018-09-24T21:27:05.042302Z,0.13746,-1.6463259999999997,1.262993
2018-09-24T21:27:05.243302Z,1.7227310000000002,-1.699496,0.21516100000000002
2018-09-24T21:27:05.457302Z,-0.46553900000000004,-0.058401999999999996,-0.09016
2018-09-24T21:27:05.655302Z,0.15695699999999999,-0.006005,1.785748
2018-09-24T21:27:05.858302Z,0.5518850000000001,-1.303576,0.280711
2018-09-24T21:27:06.059302Z,0.450355,-1.7767709999999999,-0.45552600000000004
2018-09-24T21:27:06.258302Z,0.437967,0.226462,0.119457
2018-09-24T21:27:06.448302Z,0.195037,0.657265,0.319802
2018-09-24T21:27:06.657302Z,-1.414554,-1.474983,1.6472919999999998
2018-09-24T21:27:06.856302Z,0.018983,-0.933348,-1.077321
2018-09-24T21:27:07.056302Z,0.437458,-0.057276,1.513406
2018-09-24T21:27:07.256302Z,0.5780770000000001,-0.852167,0.453538
2018-09-24T21:27:07.444302Z,0.597096,-1.0675059999999998,-0.9239040000000001
2018-09-24T21:27:07.644302Z,0.53574,0.038120999999999995,-0.9282870000000001
2018-09-24T21:27:07.859302Z,-0.929685,-0.951241,0.8410569999999999
2018-09-24T21:27:08.044302Z,0.00018899999999999999,-0.9653360000000001,-1.318302
2018-09-24T21:27:08.308302Z,-0.10809,0.20796900000000001,-0.576757
2018-09-24T21:27:08.458302Z,-0.203267,0.24266100000000002,1.0772469999999998
2018-09-24T21:27:08.644302Z,0.258135,-0.9116479999999999,-0.8017449999999999
2018-09-24T21:27:08.847302Z,0.588793,-0.196416,-0.632373
2018-09-24T21:27:09.046302Z,0.109838,0.676555,0.27057600000000004
2018-09-24T21:27:09.257302Z,-0.534817,0.102675,1.420877
2018-09-24T21:27:09.460302Z,0.230181,-0.482183,-1.05596
2018-09-24T21:27:09.675302Z,0.029115,0.6015729999999999,-0.693134
2018-09-24T21:27:09.846302Z,-0.25016900000000003,0.363135,1.576832
2018-09-24T21:27:10.047302Z,0.9323459999999999,-0.989539,0.40963900000000003
2018-09-24T21:27:10.258302Z,0.921366,0.6140479999999999,-0.34431999999999996
2018-09-24T21:27:10.462302Z,0.47725200000000007,0.288727,1.7368150000000002
2018-09-24T21:27:10.660302Z,-0.7603310000000001,-1.6694799999999999,0.6473909999999999
2018-09-24T21:27:10.862302Z,0.588317,-1.102151,-0.996174
2018-09-24T21:27:11.062302Z,1.445003,0.011165000000000001,0.960835
2018-09-24T21:27:11.249302Z,2.165655,-2.465332,1.634392
2018-09-24T21:27:11.462302Z,1.7800619999999998,-2.024426,-0.176297
2018-09-24T21:27:11.648302Z,1.105796,-0.86731,-0.549855
2018-09-24T21:27:11.863302Z,-0.386702,-0.136504,1.534032
2018-09-24T21:27:12.064302Z,-0.40796,-1.692578,-0.659846
2018-09-24T21:27:12.265302Z,0.327869,-0.399348,-0.683764
2018-09-24T21:27:12.465302Z,0.108298,0.106734,0.329479
2018-09-24T21:27:12.663302Z,0.7609199999999999,-1.103459,-1.107535
2018-09-24T21:27:12.883302Z,0.291811,-0.155171,-0.918056
2018-09-24T21:27:13.063302Z,-0.199576,0.2626,1.5381479999999998
2018-09-24T21:27:13.262302Z,-1.122336,-1.39796,1.100031
2018-09-24T21:27:13.462302Z,-0.13350599999999999,0.100979,-1.055606
2018-09-24T21:27:13.668302Z,-0.22543400000000002,0.505776,1.624309
2018-09-24T21:27:13.863302Z,0.21658000000000002,-1.6812220000000002,1.409483
2018-09-24T21:27:14.065302Z,0.018987999999999998,-1.32854,-1.4988540000000001
2018-09-24T21:27:14.337302Z,-1.889666,-0.817087,0.631049
2018-09-24T21:27:14.460302Z,-2.940748,-2.3811430000000002,0.7971699999999999
2018-09-24T21:27:14.665302Z,-1.1756870000000001,-1.376675,-1.296463
2018-09-24T21:27:14.865302Z,-0.969988,-0.165728,-0.12335399999999999
2018-09-24T21:27:15.065302Z,0.834987,-0.7140449999999999,0.16329000000000002
2018-09-24T21:27:15.266302Z,0.726739,-0.058228999999999996,-1.046469
2018-09-24T21:27:15.451302Z,0.575487,0.739976,0.45135600000000003
2018-09-24T21:27:15.666302Z,0.183112,0.43005699999999997,1.047836
2018-09-24T21:27:15.863302Z,0.8194110000000001,-0.460296,-0.952943
2018-09-24T21:27:16.063302Z,0.9802870000000001,0.149425,0.27129899999999996
2018-09-24T21:27:16.252302Z,0.372131,-0.57329,0.524044
2018-09-24T21:27:16.467302Z,-0.9125200000000001,-1.638613,0.137918
2018-09-24T21:27:16.666302Z,-0.645392,-1.1199459999999999,0.323374
2018-09-24T21:27:16.868302Z,-0.602738,0.189131,1.034155
2018-09-24T21:27:17.067302Z,-0.853447,0.71629,-0.46814300000000003
2018-09-24T21:27:17.266302Z,-0.499699,0.799584,-1.0708600000000001
2018-09-24T21:27:17.461302Z,1.168287,-1.065391,0.705926
2018-09-24T21:27:17.667302Z,1.414261,-2.103746,0.0721
2018-09-24T21:27:17.878302Z,-0.133251,-0.7489939999999999,-0.44620699999999996
2018-09-24T21:27:18.067302Z,-0.181998,-1.3616,0.7200270000000001
2018-09-24T21:27:18.253302Z,0.17336,-2.49459,-0.54146
2018-09-24T21:27:18.454302Z,-0.077497,-1.359478,0.471812
2018-09-24T21:27:18.667302Z,0.6440899999999999,-0.569048,0.614627
2018-09-24T21:27:18.869302Z,1.160767,-0.7698729999999999,0.741641
2018-09-24T21:27:19.070302Z,0.594066,0.23955100000000001,-0.457617
2018-09-24T21:27:19.269302Z,0.651504,-0.013947,1.624946
2018-09-24T21:27:19.469302Z,0.22788699999999998,-1.517788,0.835917
2018-09-24T21:27:19.665302Z,1.195116,-0.8521770000000001,-1.137905
2018-09-24T21:27:19.854302Z,2.402863,-0.5667439999999999,1.6530479999999999
2018-09-24T21:27:20.066302Z,2.792904,-2.231776,0.457108
2018-09-24T21:27:20.270302Z,1.67439,-1.348954,-0.670342
2018-09-24T21:27:20.458302Z,1.5512219999999999,-0.525302,0.648633
2018-09-24T21:27:20.672302Z,-0.41297700000000004,-0.363233,0.220623
2018-09-24T21:27:20.868302Z,-0.375328,0.224904,-1.0745360000000002
2018-09-24T21:27:21.072302Z,0.272574,0.509676,-0.30222899999999997
2018-09-24T21:27:21.271302Z,0.563806,-0.087287,2.093945
2018-09-24T21:27:21.470302Z,0.514191,-0.583509,-1.1536790000000001
2018-09-24T21:27:21.689302Z,0.621147,0.411321,-0.47430600000000006
2018-09-24T21:27:21.871302Z,0.21915199999999999,0.657878,1.429351
2018-09-24T21:27:22.070302Z,-0.7182649999999999,-1.697756,1.136622
2018-09-24T21:27:22.266302Z,0.096544,0.035901999999999996,-0.8304790000000001
2018-09-24T21:27:22.467302Z,0.274002,0.139448,1.3364120000000002
2018-09-24T21:27:22.670302Z,1.2127709999999998,-1.528673,1.129211
2018-09-24T21:27:22.858302Z,0.408684,-0.598021,-1.420067
2018-09-24T21:27:23.075302Z,0.8276180000000001,0.5816859999999999,1.66691
2018-09-24T21:27:23.258302Z,0.5370550000000001,-1.229824,0.64473
2018-09-24T21:27:23.457302Z,0.537596,-1.7986529999999998,-0.41814799999999996
2018-09-24T21:27:23.670302Z,0.480822,-0.685475,-0.797121
2018-09-24T21:27:23.872302Z,0.012497,-0.43853100000000006,1.160107
2018-09-24T21:27:24.072302Z,1.467001,-0.8269200000000001,-0.11228699999999998
2018-09-24T21:27:24.272302Z,0.829725,-0.965659,-0.769414
2018-09-24T21:27:24.473302Z,0.027262,-0.552144,0.728877
2018-09-24T21:27:24.673302Z,-1.050127,-0.7975810000000001,-0.515358
2018-09-24T21:27:24.871302Z,-0.34037,-0.436395,-1.035112
2018-09-24T21:27:25.074302Z,-0.9789450000000001,0.11099,0.135926
2018-09-24T21:27:25.273302Z,-1.425183,-0.042788,0.7293970000000001
2018-09-24T21:27:25.474302Z,-1.038227,-0.79251,-0.061199
2018-09-24T21:27:25.674302Z,-0.157142,-0.279369,-0.366766
2018-09-24T21:27:25.874302Z,0.5973109999999999,-0.150884,0.65762
2018-09-24T21:27:26.073302Z,1.105537,0.601737,-0.457499
2018-09-24T21:27:26.273302Z,-0.20207,0.020130000000000002,0.585492
2018-09-24T21:27:26.475302Z,-0.416832,-0.271163,-1.227827
2018-09-24T21:27:26.661302Z,0.042045,0.321397,-0.587488
2018-09-24T21:27:26.875302Z,-0.170067,1.0126549999999999,0.21488600000000002
2018-09-24T21:27:27.076302Z,0.44983500000000004,-1.025994,0.03073
2018-09-24T21:27:27.272302Z,0.066054,-0.297176,-0.670129
2018-09-24T21:27:27.475302Z,-0.58533,0.126566,-0.07901799999999999
2018-09-24T21:27:27.678302Z,-1.6652799999999999,-0.47156400000000004,1.1939540000000002
2018-09-24T21:27:27.876302Z,-0.06667000000000001,-0.5526800000000001,-0.136469
2018-09-24T21:27:28.076302Z,0.626654,0.531613,-0.008003
2018-09-24T21:27:28.276302Z,1.565709,0.278649,0.818403
2018-09-24T21:27:28.476302Z,1.044255,-0.6548579999999999,0.20113
2018-09-24T21:27:28.678302Z,1.018327,0.634476,-0.124426
2018-09-24T21:27:28.877302Z,0.58031,0.264495,0.913492
2018-09-24T21:27:29.200302Z,0.147035,-1.239467,0.744425
2018-09-24T21:27:29.289302Z,0.655638,-0.20876199999999998,-0.730255
2018-09-24T21:27:29.500302Z,1.941866,-0.5226270000000001,1.172426
2018-09-24T21:27:29.699302Z,2.606186,-2.104463,0.65455
2018-09-24T21:27:29.906302Z,1.564106,-1.5807579999999999,-0.203878
2018-09-24T21:27:30.106302Z,1.076001,-0.395189,-0.297978
2018-09-24T21:27:30.264302Z,-0.900775,-0.445683,0.6940529999999999
2018-09-24T21:27:30.504302Z,-0.479699,-0.46193599999999996,-0.933902
2018-09-24T21:27:30.708302Z,0.121155,0.5139819999999999,-0.9845389999999999
2018-09-24T21:27:30.901302Z,-0.215669,0.8757280000000001,0.6404850000000001
2018-09-24T21:27:31.101302Z,0.41196000000000005,-1.907757,-0.659579
2018-09-24T21:27:31.324302Z,-0.26970900000000003,-0.7608560000000001,-0.663159
2018-09-24T21:27:31.474302Z,-0.613061,0.16616199999999998,-0.6309600000000001
2018-09-24T21:27:31.679302Z,-2.0581099999999997,0.053525,1.032878
2018-09-24T21:27:31.879302Z,-1.254386,-1.621707,-0.351
2018-09-24T21:27:32.065302Z,-0.398057,-0.358821,-0.46031700000000003
2018-09-24T21:27:32.280302Z,0.600079,0.776971,0.41086999999999996
2018-09-24T21:27:32.479302Z,0.6930890000000001,0.932258,0.852433
2018-09-24T21:27:32.667302Z,0.810193,-0.10937100000000001,-0.754009
2018-09-24T21:27:32.922302Z,0.409104,0.80013,-0.522112
2018-09-24T21:27:33.078302Z,0.528596,0.8809030000000001,0.908543
2018-09-24T21:27:33.279302Z,0.07789299999999999,-0.505441,1.2052559999999999
2018-09-24T21:27:33.476302Z,0.811832,0.134971,-0.775537
2018-09-24T21:27:33.681302Z,0.790346,0.585328,0.476256
2018-09-24T21:27:33.880302Z,0.7631140000000001,0.268788,1.289372
2018-09-24T21:27:34.075302Z,1.565366,-1.353792,-0.15678499999999998
2018-09-24T21:27:34.272302Z,1.7170580000000002,0.26368400000000003,0.8314229999999999
2018-09-24T21:27:34.480302Z,1.5473459999999999,-0.916579,1.075495
2018-09-24T21:27:34.680302Z,1.536145,-1.728028,-0.07059
2018-09-24T21:27:34.880302Z,0.932837,-1.184279,-0.20149
2018-09-24T21:27:35.078302Z,-0.68993,0.8374219999999999,1.06525
2018-09-24T21:27:35.267302Z,-0.170855,-1.05007,0.882375
2018-09-24T21:27:35.478302Z,0.44820600000000005,-1.304419,-1.472178
2018-09-24T21:27:35.681302Z,-0.08244,-0.343995,-0.24167399999999997
2018-09-24T21:27:35.882302Z,-1.101832,-0.774465,0.998943
2018-09-24T21:27:36.083302Z,-0.7985680000000001,-1.34962,-0.708016
2018-09-24T21:27:36.276302Z,0.011017,-0.571098,-0.802932
2018-09-24T21:27:36.482302Z,0.30373,0.084979,0.1062
2018-09-24T21:27:36.686302Z,1.706488,-2.646886,0.648781
2018-09-24T21:27:36.883302Z,1.831869,-2.19897,0.161512
2018-09-24T21:27:37.070302Z,1.4778069999999999,-1.3514110000000001,0.40852
2018-09-24T21:27:37.284302Z,1.031324,-0.5537350000000001,0.079158
2018-09-24T21:27:37.485302Z,-0.41166099999999994,-1.3006229999999999,0.921607
2018-09-24T21:27:37.684302Z,-0.266775,-0.990058,-0.5994229999999999
2018-09-24T21:27:37.884302Z,0.328635,-0.30769,-0.25590100000000005
2018-09-24T21:27:38.079302Z,0.30511,0.421308,0.37282
2018-09-24T21:27:38.270302Z,-0.388972,-1.735075,1.028584
2018-09-24T21:27:38.487302Z,0.14163599999999998,-0.868431,-0.8313879999999999
2018-09-24T21:27:38.683302Z,0.596458,-0.199785,-0.179155
2018-09-24T21:27:38.885302Z,0.055904999999999996,-0.186568,1.302989
2018-09-24T21:27:39.088302Z,-0.423096,-1.071761,-0.98005
2018-09-24T21:27:39.286302Z,-0.361867,0.14616600000000002,-0.766931
2018-09-24T21:27:39.514302Z,-0.046798,0.6395270000000001,0.305264
2018-09-24T21:27:39.679302Z,0.2076,0.049464999999999995,2.004371
2018-09-24T21:27:39.885302Z,0.461925,-1.2245139999999999,-0.616919
2018-09-24T21:27:40.081302Z,0.238639,-0.128722,-0.215943
2018-09-24T21:27:40.285302Z,0.472346,-0.287261,0.636498
2018-09-24T21:27:40.485302Z,-0.37185300000000004,-0.348169,0.926681
2018-09-24T21:27:40.687302Z,-0.664755,-0.358968,-0.516807
2018-09-24T21:27:40.886302Z,-0.343537,0.401344,-0.247232
2018-09-24T21:27:41.087302Z,-0.951053,0.41956000000000004,1.584561
2018-09-24T21:27:41.283302Z,-0.32016500000000003,-1.76773,1.0626280000000001
2018-09-24T21:27:41.483302Z,-1.052334,-0.9609469999999999,-0.191556
2018-09-24T21:27:41.685302Z,-0.591711,-1.005434,0.367316
2018-09-24T21:27:41.884302Z,-0.5191600000000001,-0.5065930000000001,0.33574499999999996
2018-09-24T21:27:42.082302Z,0.323653,0.018137,-0.135055
2018-09-24T21:27:42.288302Z,0.924958,1.1843920000000001,0.300662
2018-09-24T21:27:42.474302Z,1.070561,1.586076,0.663259
2018-09-24T21:27:42.687302Z,0.660274,0.51839,0.7690899999999999
2018-09-24T21:27:42.887302Z,0.16850199999999999,-0.7171390000000001,-1.276799
2018-09-24T21:27:43.091302Z,0.7096640000000001,0.9142969999999999,0.046488999999999996
2018-09-24T21:27:43.287302Z,0.201131,0.347037,1.104938
2018-09-24T21:27:43.490302Z,-0.153587,-1.19632,0.379323
2018-09-24T21:27:43.694302Z,0.7022619999999999,-0.774759,-0.8307059999999999
2018-09-24T21:27:43.886302Z,0.123438,-0.14322200000000002,0.59491
2018-09-24T21:27:44.091302Z,-0.296921,-1.867125,0.68697
2018-09-24T21:27:44.289302Z,-0.9522010000000001,-1.6410490000000002,-0.923291
2018-09-24T21:27:44.489302Z,-0.8744860000000001,0.404024,-0.448651
2018-09-24T21:27:44.689302Z,0.878768,0.7373609999999999,-0.262175
2018-09-24T21:27:44.883302Z,0.9885120000000001,1.056745,-1.194046
2018-09-24T21:27:45.089302Z,0.857957,0.53905,1.04635
2018-09-24T21:27:45.291302Z,0.874682,-0.156993,1.6330799999999999
2018-09-24T21:27:45.490302Z,2.193485,-0.10373800000000001,0.264577
2018-09-24T21:27:45.690302Z,1.7817580000000002,0.05429199999999999,0.667732
2018-09-24T21:27:45.919302Z,0.18553599999999998,-0.382657,0.330389
2018-09-24T21:27:46.092302Z,0.37545,-0.494381,0.102772
2018-09-24T21:27:46.291302Z,0.6351220000000001,0.009661,-0.135054
2018-09-24T21:27:46.507302Z,0.173061,-0.089122,0.18972
2018-09-24T21:27:46.692302Z,-0.04448,-0.928524,0.307069
2018-09-24T21:27:46.890302Z,0.007275,-0.80387,-0.18703399999999998
2018-09-24T21:27:47.091302Z,0.135796,-0.29130700000000004,0.092008
2018-09-24T21:27:47.291302Z,0.27355300000000005,-0.160392,-0.031477
2018-09-24T21:27:47.585302Z,0.700012,-0.340557,0.214797
2018-09-24T21:27:47.689302Z,0.472659,0.250104,-0.359203
2018-09-24T21:27:47.891302Z,0.543415,0.104308,-0.157957
2018-09-24T21:27:48.094302Z,0.44098999999999994,0.056666999999999995,0.04775
2018-09-24T21:27:48.290302Z,0.42784099999999997,0.12032999999999999,-0.11739100000000001
2018-09-24T21:27:48.492302Z,0.5690430000000001,-0.054889999999999994,0.101664
2018-09-24T21:27:48.692302Z,0.421012,0.35784499999999997,-0.295761
2018-09-24T21:27:48.892302Z,0.47093100000000004,0.552272,0.165392
2018-09-24T21:27:49.094302Z,0.436316,0.93143,-0.07158099999999999
2018-09-24T21:27:49.294302Z,0.317257,1.106225,-0.575381
2018-09-24T21:27:49.493302Z,0.548891,1.221543,1.08507
2018-09-24T21:27:49.679302Z,0.385466,-0.9720280000000001,0.573066
2018-09-24T21:27:49.889302Z,0.9540709999999999,-0.691542,-0.9307989999999999
2018-09-24T21:27:50.095302Z,1.060933,-0.064821,-0.513266
2018-09-24T21:27:50.300302Z,0.8911,-1.343505,1.2892190000000001
2018-09-24T21:27:50.496302Z,0.7538279999999999,-1.409601,-0.445805
2018-09-24T21:27:50.696302Z,0.694932,-0.9655219999999999,-0.08207
2018-09-24T21:27:50.880302Z,1.0465659999999999,-1.381599,0.523174
2018-09-24T21:27:51.095302Z,0.477152,-1.740099,0.619426
2018-09-24T21:27:51.296302Z,1.1365290000000001,-0.853294,-0.567574
2018-09-24T21:27:51.496302Z,-0.067558,-0.195471,0.28931
2018-09-24T21:27:51.692302Z,0.18591,0.41539499999999996,0.276074
2018-09-24T21:27:51.897302Z,-0.820989,-1.3985670000000001,-0.337851
2018-09-24T21:27:52.092302Z,-0.089397,-0.474498,-0.8722620000000001
2018-09-24T21:27:52.294302Z,0.038724,-0.21992899999999999,0.57357
2018-09-24T21:27:52.495302Z,-0.309884,-1.33792,2.149522
2018-09-24T21:27:52.714302Z,-0.660918,-1.1560219999999999,-0.81229
2018-09-24T21:27:52.896302Z,-1.8903619999999999,-0.605584,0.61855
2018-09-24T21:27:53.096302Z,-1.904016,-1.803936,0.9404040000000001
2018-09-24T21:27:53.298302Z,-1.109565,-1.685212,-0.08762400000000001
2018-09-24T21:27:53.495302Z,-0.305886,-0.603055,0.371504
2018-09-24T21:27:53.698302Z,0.9776239999999999,0.86605,0.135257
2018-09-24T21:27:53.898302Z,0.819767,0.406796,0.732809
2018-09-24T21:27:54.098302Z,0.9930620000000001,-0.637633,-0.522173
2018-09-24T21:27:54.300302Z,0.7837270000000001,0.673288,0.10697100000000001
2018-09-24T21:27:54.510302Z,0.336258,1.1814129999999998,0.109983
2018-09-24T21:27:54.699302Z,-0.289162,-0.412925,1.3096709999999998
2018-09-24T21:27:54.896302Z,0.45897200000000005,-0.754778,-1.101274
2018-09-24T21:27:55.094302Z,0.6258050000000001,0.9303899999999999,0.142267
2018-09-24T21:27:55.298302Z,0.8425520000000001,0.347848,1.3443459999999998
2018-09-24T21:27:55.498302Z,1.002861,-1.796218,0.08727599999999999
2018-09-24T21:27:55.722302Z,0.796362,-0.536176,-1.076864
2018-09-24T21:27:55.898302Z,1.299447,0.891812,1.512242
2018-09-24T21:27:56.099302Z,0.840139,-1.325099,0.23831599999999997
2018-09-24T21:27:56.297302Z,1.8888630000000002,-1.895346,-0.201984
2018-09-24T21:27:56.494302Z,1.269685,-1.12114,-0.275888
2018-09-24T21:27:56.699302Z,-0.483684,0.124956,1.133623
2018-09-24T21:27:56.900302Z,0.29904899999999995,-1.736118,0.8554719999999999
2018-09-24T21:27:57.100302Z,0.545495,-1.47751,-0.9255459999999999
2018-09-24T21:27:57.301302Z,0.396158,-0.260558,-0.617392
2018-09-24T21:27:57.502302Z,-0.904898,-1.126247,1.28524
2018-09-24T21:27:57.698302Z,-0.179589,-0.996764,-1.3959110000000001
2018-09-24T21:27:57.897302Z,0.8376610000000001,-0.402805,-0.24386
2018-09-24T21:27:58.086302Z,1.1463079999999999,-1.395067,1.0601450000000001
2018-09-24T21:27:58.303302Z,1.025272,-1.6030280000000001,-0.398498
2018-09-24T21:27:58.501302Z,1.390325,-1.155373,-0.134089
2018-09-24T21:27:58.702302Z,0.42599499999999996,0.013585,0.298265
2018-09-24T21:27:58.913302Z,0.679311,-0.152257,1.520815
2018-09-24T21:27:59.102302Z,-0.612399,-1.134501,-1.218461
2018-09-24T21:27:59.311302Z,0.08931599999999999,0.009007,-0.911265
2018-09-24T21:27:59.531302Z,-0.08856499999999999,-0.045396,1.286474
2018-09-24T21:27:59.726302Z,0.084829,-0.637871,0.876973
2018-09-24T21:27:59.889302Z,0.23994200000000002,-1.0579459999999998,-1.298719
2018-09-24T21:28:00.127302Z,0.8646950000000001,0.227136,-0.069052
2018-09-24T21:28:00.288302Z,0.330514,0.47193900000000005,0.744359
2018-09-24T21:28:00.528302Z,-0.501628,-1.4418819999999999,2.438444
2018-09-24T21:28:00.688302Z,0.5314909999999999,-1.001523,-1.463033
2018-09-24T21:28:00.974302Z,-0.062512,0.187804,0.153212
2018-09-24T21:28:01.160302Z,0.21360500000000002,0.026525,1.370492
2018-09-24T21:28:01.326302Z,0.426493,-1.783548,0.21746300000000002
2018-09-24T21:28:01.500302Z,0.304134,-0.21331,-0.201568
2018-09-24T21:28:01.703302Z,0.231334,-0.723703,1.335964
2018-09-24T21:28:01.904302Z,-0.699883,-1.605653,0.322169
2018-09-24T21:28:02.104302Z,-0.061667999999999994,-0.889677,-0.8204889999999999
2018-09-24T21:28:02.300302Z,0.254769,0.154155,0.481583
2018-09-24T21:28:02.501302Z,-0.924491,-0.22614499999999998,-0.031895
2018-09-24T21:28:02.704302Z,0.174811,-2.221793,0.09985
2018-09-24T21:28:02.904302Z,0.102096,-0.7498199999999999,0.158341
2018-09-24T21:28:03.109302Z,-0.45888100000000004,-1.49532,0.125299
2018-09-24T21:28:03.306302Z,-0.11990999999999999,-1.294137,0.198409
2018-09-24T21:28:03.505302Z,-2.292296,-1.679757,-0.22277800000000003
2018-09-24T21:28:03.704302Z,0.876619,-2.016338,-0.257833
2018-09-24T21:28:03.906302Z,4.01653,0.859261,1.392817
2018-09-24T21:28:04.106302Z,1.979945,0.8812399999999999,0.6943239999999999
2018-09-24T21:28:04.306302Z,-0.6339739999999999,-0.45135,0.19975
2018-09-24T21:28:04.505302Z,1.44214,0.6976399999999999,-1.7540229999999999
2018-09-24T21:28:04.705302Z,0.550467,-0.194383,0.00237
2018-09-24T21:28:04.903302Z,0.056884000000000004,-0.322229,-0.611476
2018-09-24T21:28:05.107302Z,0.06214,0.007128,0.367805
2018-09-24T21:28:05.292302Z,0.844958,0.028544999999999997,0.31354
2018-09-24T21:28:05.509302Z,-0.503456,0.06399099999999999,-0.154529
2018-09-24T21:28:05.693302Z,0.345303,0.4562,-0.220414
2018-09-24T21:28:05.908302Z,0.8706459999999999,0.148206,0.5373
2018-09-24T21:28:06.093302Z,0.310225,-0.406415,0.491541
2018-09-24T21:28:06.309302Z,-1.328186,-0.77973,-0.288799
2018-09-24T21:28:06.493302Z,0.416509,0.248381,-0.253789
2018-09-24T21:28:06.708302Z,0.899496,0.669529,0.43723500000000004
2018-09-24T21:28:06.907302Z,1.170416,0.8796790000000001,0.583232
2018-09-24T21:28:07.107302Z,0.566651,1.03875,-0.241285
2018-09-24T21:28:07.311302Z,0.011443,0.211774,0.44399399999999994
2018-09-24T21:28:07.511302Z,2.099259,-0.8634940000000001,0.267309
2018-09-24T21:28:07.709302Z,0.772138,0.263387,-0.962201
2018-09-24T21:28:07.911302Z,0.704902,0.246069,1.143203
2018-09-24T21:28:08.112302Z,-0.10321099999999998,-0.9254959999999999,0.840512
2018-09-24T21:28:08.310302Z,0.262698,-0.324452,-1.152981
2018-09-24T21:28:08.509302Z,-0.513705,0.090396,-0.7026560000000001
2018-09-24T21:28:08.710302Z,-1.616552,-0.914322,1.08018
2018-09-24T21:28:08.913302Z,-0.9261659999999999,-1.2516610000000001,-0.6824439999999999
2018-09-24T21:28:09.109302Z,-0.468253,-0.8613540000000001,-0.36336999999999997
2018-09-24T21:28:09.312302Z,-0.086176,-1.052469,0.030282
2018-09-24T21:28:09.496302Z,0.25126,-0.453945,0.231933
2018-09-24T21:28:09.709302Z,1.200613,0.224877,0.061191999999999996
2018-09-24T21:28:09.896302Z,1.574555,0.685829,0.1643
2018-09-24T21:28:10.110302Z,1.15405,0.8354379999999999,0.331113
2018-09-24T21:28:10.311302Z,1.358709,-0.052743,0.57468
2018-09-24T21:28:10.507302Z,1.446878,0.561894,-0.509536
2018-09-24T21:28:10.707302Z,0.33924499999999996,0.781118,0.671458
2018-09-24T21:28:10.913302Z,0.639113,-0.09939400000000001,1.396478
2018-09-24T21:28:11.113302Z,0.58123,0.08881,-1.160038
2018-09-24T21:28:11.310302Z,0.608738,0.64761,0.251481
2018-09-24T21:28:11.512302Z,0.41279899999999997,-0.274037,1.6806310000000002
2018-09-24T21:28:11.744302Z,0.7746390000000001,-1.239559,-0.258375
2018-09-24T21:28:11.911302Z,0.8363139999999999,-0.8072,-0.040583
2018-09-24T21:28:12.115302Z,0.825925,0.11773199999999999,-0.317379
2018-09-24T21:28:12.297302Z,0.734697,-0.204228,0.507774
2018-09-24T21:28:12.497302Z,-0.23401799999999998,-0.5374939999999999,0.097414
2018-09-24T21:28:12.713302Z,0.26634,-0.330297,0.042099
2018-09-24T21:28:12.912302Z,0.311567,-0.379971,0.258855
2018-09-24T21:28:13.120302Z,0.370191,-0.240794,-0.299506
2018-09-24T21:28:13.314302Z,-0.126911,0.085034,-0.060484
2018-09-24T21:28:13.512302Z,0.14515899999999998,-0.09049,0.005233
2018-09-24T21:28:13.711302Z,0.635688,-0.22621599999999997,-0.053787
2018-09-24T21:28:13.912302Z,0.353515,0.010923,-0.053574000000000004
2018-09-24T21:28:14.113302Z,0.194596,-0.180045,0.01797
2018-09-24T21:28:14.314302Z,0.6159680000000001,-0.047073000000000004,0.234317
2018-09-24T21:28:14.516302Z,0.366719,0.351403,0.018209
2018-09-24T21:28:14.716302Z,0.579332,0.5254439999999999,-0.428696
2018-09-24T21:28:14.900302Z,0.161908,0.268271,1.475365
2018-09-24T21:28:15.118302Z,-0.773798,-0.974565,-1.1951129999999999
2018-09-24T21:28:15.315302Z,-0.411725,-0.125995,-0.471941
2018-09-24T21:28:15.501302Z,0.135989,0.144875,0.673712
2018-09-24T21:28:15.715302Z,0.139484,-0.980859,0.9140209999999999
2018-09-24T21:28:15.915302Z,-0.652572,-0.545605,-0.578702
2018-09-24T21:28:16.117302Z,-1.676418,0.118985,0.067438
2018-09-24T21:28:16.315302Z,-2.62843,-2.117671,1.6846279999999998
2018-09-24T21:28:16.515302Z,-1.1088799999999999,-2.031823,-0.9200309999999999
2018-09-24T21:28:16.702302Z,1.124846,0.323515,0.067222
2018-09-24T21:28:16.902302Z,0.73155,0.478202,0.180369
2018-09-24T21:28:17.117302Z,0.9678370000000001,-0.8603860000000001,0.747317
2018-09-24T21:28:17.345302Z,1.057307,0.015844999999999998,-0.614202
2018-09-24T21:28:17.515302Z,1.3660370000000002,0.695545,1.250481
2018-09-24T21:28:17.713302Z,0.983909,-1.818269,0.465768
2018-09-24T21:28:17.913302Z,2.234986,-1.7108310000000002,-0.119599
2018-09-24T21:28:18.118302Z,1.446899,-0.93575,-0.33724299999999996
2018-09-24T21:28:18.315302Z,-0.303912,-0.482897,0.297629
2018-09-24T21:28:18.514302Z,0.152568,-1.6421880000000002,0.352238
2018-09-24T21:28:18.724302Z,0.055648,-0.7508819999999999,-0.530704
2018-09-24T21:28:18.917302Z,0.07715599999999999,0.341468,-0.222665
2018-09-24T21:28:19.104302Z,0.000388,-0.533505,1.012209
2018-09-24T21:28:19.320302Z,-0.684686,-1.395761,-0.112804
2018-09-24T21:28:19.516302Z,0.088793,-0.7160479999999999,-0.356426
2018-09-24T21:28:19.716302Z,0.21817399999999998,-0.451142,0.280521
2018-09-24T21:28:19.915302Z,1.155271,-1.633066,0.657903
2018-09-24T21:28:20.105302Z,1.80897,-1.4955209999999999,0.38755700000000004
2018-09-24T21:28:20.319302Z,1.3368950000000002,-1.0914469999999998,0.08645
2018-09-24T21:28:20.515302Z,1.237771,-0.7843479999999999,0.164474
2018-09-24T21:28:20.719302Z,-0.025157,-0.97975,1.283009
2018-09-24T21:28:20.917302Z,-0.970242,-1.4451319999999999,-0.891568
2018-09-24T21:28:21.106302Z,0.322,-0.8432850000000001,0.007989
2018-09-24T21:28:21.315302Z,-0.309221,0.469317,-0.753567
2018-09-24T21:28:21.520302Z,0.154014,-1.465211,1.135345
2018-09-24T21:28:21.716302Z,0.676355,-1.502766,-0.882324
2018-09-24T21:28:21.918302Z,0.308904,-0.019201,-0.63639
2018-09-24T21:28:22.119302Z,0.19756700000000002,0.565611,0.5689
2018-09-24T21:28:22.321302Z,-0.17044700000000002,-2.183977,0.8842540000000001
2018-09-24T21:28:22.579302Z,-0.116281,-0.733596,-1.226549
2018-09-24T21:28:22.719302Z,-0.48101700000000003,-0.22275999999999999,0.221627
2018-09-24T21:28:22.907302Z,-0.8302129999999999,-0.48603100000000005,1.091246
2018-09-24T21:28:23.120302Z,-1.124323,-1.679064,0.084358
2018-09-24T21:28:23.319302Z,-0.41100600000000004,-0.9714780000000001,-0.018909
2018-09-24T21:28:23.523302Z,0.367188,-0.763691,0.362649
2018-09-24T21:28:23.723302Z,0.839983,-0.425928,0.20463699999999999
2018-09-24T21:28:23.923302Z,0.442022,0.48821000000000003,0.318114
2018-09-24T21:28:24.122302Z,0.075668,0.826385,-0.383429
2018-09-24T21:28:24.322302Z,0.00078,1.0937270000000001,-0.155443
2018-09-24T21:28:24.514302Z,-0.223867,1.433215,-0.014705000000000001
2018-09-24T21:28:24.722302Z,1.11955,-0.306051,-0.255767
2018-09-24T21:28:24.924302Z,0.951731,-0.29791999999999996,-0.9865430000000001
2018-09-24T21:28:25.123302Z,-0.139042,0.8338450000000001,0.18394000000000002
2018-09-24T21:28:25.324302Z,-0.47424399999999994,-0.430596,1.9816340000000001
2018-09-24T21:28:25.524302Z,-0.41815399999999997,-0.41098100000000004,-0.45338999999999996
2018-09-24T21:28:25.727302Z,-1.555771,-0.826981,0.404323
2018-09-24T21:28:25.926302Z,-2.056018,-1.9153360000000001,0.8259049999999999
2018-09-24T21:28:26.123302Z,-0.7328100000000001,-1.8743560000000001,0.005241
2018-09-24T21:28:26.323302Z,1.6296059999999999,-1.0020799999999999,0.472714
2018-09-24T21:28:26.525302Z,2.404002,0.7925,-0.001385
2018-09-24T21:28:26.727302Z,2.905204,0.8465879999999999,1.009824
2018-09-24T21:28:26.925302Z,1.024165,0.080279,0.254864
2018-09-24T21:28:27.124302Z,0.9318270000000001,0.356166,-0.24629299999999998
2018-09-24T21:28:27.325302Z,0.6513899999999999,0.8402940000000001,0.20614000000000002
2018-09-24T21:28:27.521302Z,0.994864,0.020947,1.212852
2018-09-24T21:28:27.724302Z,0.9777520000000001,-1.370134,-0.22147399999999998
2018-09-24T21:28:27.963302Z,0.753024,0.16692,0.489617
2018-09-24T21:28:28.127302Z,0.949046,-0.761402,1.575726
2018-09-24T21:28:28.324302Z,1.792648,-1.8316299999999999,-0.292931
2018-09-24T21:28:28.510302Z,1.9469580000000002,-1.989154,0.383736
2018-09-24T21:28:28.712302Z,0.047105,-0.668048,0.12579300000000002
2018-09-24T21:28:28.924302Z,0.708023,-0.16112,-0.15653599999999998
2018-09-24T21:28:29.128302Z,0.49439700000000003,0.387339,-0.350057
2018-09-24T21:28:29.313302Z,-0.32109899999999997,0.137659,1.3056889999999999
2018-09-24T21:28:29.527302Z,-0.352283,-0.505263,-0.9118360000000001
2018-09-24T21:28:29.731302Z,-0.8686229999999999,0.5209010000000001,-0.678747
2018-09-24T21:28:29.912302Z,-2.022541,-0.753214,1.109505
2018-09-24T21:28:30.127302Z,-2.050739,-1.650396,-0.180162
2018-09-24T21:28:30.327302Z,-0.8571049999999999,-0.916278,-0.090245
2018-09-24T21:28:30.513302Z,0.34815300000000005,0.369623,0.813121
2018-09-24T21:28:30.728302Z,0.071118,-0.735226,1.892052
2018-09-24T21:28:30.928302Z,0.8094640000000001,-1.11109,-1.198488
2018-09-24T21:28:31.174302Z,0.053083000000000005,1.26442,-0.270944
2018-09-24T21:28:31.355302Z,1.3168309999999999,-0.766474,1.00601
2018-09-24T21:28:31.554302Z,1.4446510000000001,-0.687814,-0.183763
2018-09-24T21:28:31.753302Z,0.55771,0.917163,-1.671961
2018-09-24T21:28:31.955302Z,-0.25350500000000004,-0.368539,0.8342780000000001
2018-09-24T21:28:32.154302Z,0.380729,-0.666984,-0.7170479999999999
2018-09-24T21:28:32.356302Z,0.659395,0.238986,-1.015766
2018-09-24T21:28:32.552302Z,-0.289224,1.22253,0.21878000000000003
2018-09-24T21:28:32.754302Z,0.725485,-0.789469,-0.741873
2018-09-24T21:28:32.955302Z,1.041474,-0.028252,-0.801208
2018-09-24T21:28:33.155302Z,0.005645000000000001,1.13755,0.542814
2018-09-24T21:28:33.351302Z,0.323157,-0.268406,1.6355600000000001
2018-09-24T21:28:33.525302Z,0.5677180000000001,0.09092,-1.178632
2018-09-24T21:28:33.728302Z,-0.172762,0.46320100000000003,0.702457
2018-09-24T21:28:33.931302Z,0.673955,-0.503401,1.3699780000000001
2018-09-24T21:28:34.136302Z,0.397611,-0.794941,-0.46007200000000004
2018-09-24T21:28:34.331302Z,0.641708,0.498561,0.542607
2018-09-24T21:28:34.530302Z,-0.144898,-0.192838,0.789127
2018-09-24T21:28:34.731302Z,-0.368701,-0.8396469999999999,0.149318
2018-09-24T21:28:34.931302Z,0.207148,0.009640000000000001,-1.204237
2018-09-24T21:28:35.200302Z,-0.233434,0.9541270000000001,0.332619
2018-09-24T21:28:35.327302Z,-0.199441,-0.770141,1.144859
2018-09-24T21:28:35.552302Z,0.315228,-0.743617,-0.660295
2018-09-24T21:28:35.729302Z,0.201828,0.451075,-1.16543
2018-09-24T21:28:35.932302Z,-0.407171,-0.45206999999999997,0.814523
2018-09-24T21:28:36.132302Z,-0.08618300000000001,-0.46995600000000004,-0.913819
2018-09-24T21:28:36.332302Z,0.301824,0.487649,-1.057417
2018-09-24T21:28:36.518302Z,-0.352296,0.964406,0.757548
2018-09-24T21:28:36.717302Z,0.264173,-0.699254,-0.843139
2018-09-24T21:28:36.959302Z,0.179431,-0.093184,-0.997444
2018-09-24T21:28:37.137302Z,-1.106747,0.28187399999999996,0.6299710000000001
2018-09-24T21:28:37.332302Z,-1.03999,-0.9052290000000001,1.7449150000000002
2018-09-24T21:28:37.519302Z,-0.629001,-0.056909,-0.947594
2018-09-24T21:28:37.732302Z,0.259782,0.966506,-0.017818
2018-09-24T21:28:37.935302Z,0.706651,0.216313,1.266428
2018-09-24T21:28:38.135302Z,0.805078,-0.70063,0.067574
2018-09-24T21:28:38.332302Z,0.732753,0.8452959999999999,-0.242302
2018-09-24T21:28:38.530302Z,0.543804,0.412077,0.775733
2018-09-24T21:28:38.721302Z,-0.384441,-0.7980659999999999,0.555218
2018-09-24T21:28:38.931302Z,1.062317,-0.638726,-0.611904
2018-09-24T21:28:39.132302Z,0.802511,0.607364,0.79551
2018-09-24T21:28:39.341302Z,0.679812,-0.638514,0.8471719999999999
2018-09-24T21:28:39.536302Z,1.2417799999999999,-0.7880189999999999,-0.598089
2018-09-24T21:28:39.741302Z,0.548822,0.8371190000000001,-1.162617
2018-09-24T21:28:39.923302Z,-0.035959,-0.336442,1.028922
2018-09-24T21:28:40.121302Z,-0.166803,-0.704791,-0.519025
2018-09-24T21:28:40.335302Z,1.1302780000000001,-0.141556,-1.125259
2018-09-24T21:28:40.532302Z,-0.23469299999999998,1.184572,-0.021644999999999998
2018-09-24T21:28:40.738302Z,0.586025,-1.419833,0.063826
2018-09-24T21:28:40.937302Z,0.6468020000000001,-0.588349,-0.6239779999999999
2018-09-24T21:28:41.128302Z,0.554505,0.678737,-0.632812
2018-09-24T21:28:41.339302Z,0.357602,1.0337459999999998,1.53367
2018-09-24T21:28:41.537302Z,0.924105,-0.9415819999999999,-1.0498459999999998
2018-09-24T21:28:41.733302Z,0.8866799999999999,0.265405,-0.27341
2018-09-24T21:28:41.936302Z,-0.6881430000000001,1.06187,0.8321959999999999
2018-09-24T21:28:42.138302Z,0.091408,-0.25897600000000004,0.6467579999999999
2018-09-24T21:28:42.323302Z,0.361169,-0.32661799999999996,-0.397604
2018-09-24T21:28:42.534302Z,-0.357694,0.287628,0.353252
2018-09-24T21:28:42.735302Z,-1.2611139999999998,0.14594200000000002,0.72915
2018-09-24T21:28:42.937302Z,-1.440181,-1.4492639999999999,0.329127
2018-09-24T21:28:43.137302Z,-0.700348,-0.19372,0.407378
2018-09-24T21:28:43.324302Z,0.880674,0.258629,-0.17738199999999998
2018-09-24T21:28:43.538302Z,0.88423,0.8889950000000001,0.541555
2018-09-24T21:28:43.737302Z,1.05019,-0.752203,0.8623770000000001
2018-09-24T21:28:43.937302Z,1.559706,0.17844400000000002,-0.31962199999999996
2018-09-24T21:28:44.141302Z,0.7197520000000001,-0.349323,0.645359
2018-09-24T21:28:44.337302Z,1.0997569999999999,-0.130982,0.940807
2018-09-24T21:28:44.536302Z,1.722433,-0.847791,-0.689181
2018-09-24T21:28:44.736302Z,1.860666,-0.273044,1.047965
2018-09-24T21:28:44.938302Z,1.650289,-1.33479,0.375628
2018-09-24T21:28:45.142302Z,1.363326,-1.024563,0.080015
2018-09-24T21:28:45.335302Z,1.7123709999999999,-0.332985,-0.455971
2018-09-24T21:28:45.539302Z,-1.086374,0.003532,0.847864
2018-09-24T21:28:45.740302Z,-0.655388,-1.003206,-0.18126
2018-09-24T21:28:45.939302Z,-0.111015,0.224081,-0.660958
2018-09-24T21:28:46.141302Z,-0.09361599999999999,0.357383,-0.397523
2018-09-24T21:28:46.340302Z,0.224867,-1.184656,0.327786
2018-09-24T21:28:46.541302Z,0.045814,-0.6708729999999999,-1.131646
2018-09-24T21:28:46.738302Z,-0.942765,0.437327,-0.405502
2018-09-24T21:28:46.940302Z,-1.459702,-0.376071,1.332753
2018-09-24T21:28:47.138302Z,-1.0290700000000002,-1.932609,-0.9368620000000001
2018-09-24T21:28:47.327302Z,-0.106798,0.275474,0.45336000000000004
2018-09-24T21:28:47.542302Z,1.3123360000000002,0.519296,0.756259
2018-09-24T21:28:47.744302Z,0.721842,0.141402,0.7304609999999999
2018-09-24T21:28:47.943302Z,1.254297,0.7147859999999999,-1.0435510000000001
2018-09-24T21:28:48.128302Z,0.88185,0.5657270000000001,0.811128
2018-09-24T21:28:48.373302Z,0.580052,-0.229093,0.782751
2018-09-24T21:28:48.541302Z,0.686176,-1.210145,0.518744
2018-09-24T21:28:48.738302Z,0.766794,0.382322,0.515089
2018-09-24T21:28:48.944302Z,0.344462,0.062513,0.06114
2018-09-24T21:28:49.129302Z,0.767944,-1.4397959999999999,0.618466
2018-09-24T21:28:49.330302Z,1.0381799999999999,-1.446959,-0.039628
2018-09-24T21:28:49.538302Z,0.319299,-0.636582,0.337491
2018-09-24T21:28:49.742302Z,0.765255,0.150075,0.031652
2018-09-24T21:28:49.929302Z,0.955375,-0.068187,0.377256
2018-09-24T21:28:50.130302Z,0.355514,0.002807,0.427396
2018-09-24T21:28:50.346302Z,-0.21480900000000003,-0.262049,-0.11043299999999999
2018-09-24T21:28:50.544302Z,0.081068,-1.486907,0.164345
2018-09-24T21:28:50.732302Z,-0.009837,-0.536144,-1.166647
2018-09-24T21:28:50.933302Z,0.523187,-0.563703,1.283768
2018-09-24T21:28:51.130302Z,1.055985,-1.502925,1.544446
2018-09-24T21:28:51.332302Z,1.3887690000000001,-3.078682,0.105306
2018-09-24T21:28:51.541302Z,1.827337,-2.3629029999999998,-0.034273000000000005
2018-09-24T21:28:51.743302Z,-0.278478,-0.366257,0.42644499999999996
2018-09-24T21:28:51.945302Z,0.08455800000000001,-0.572463,1.386407
2018-09-24T21:28:52.148302Z,-1.339895,-1.811582,-0.253947
2018-09-24T21:28:52.343302Z,-0.20411400000000002,-0.6603,-0.936851
2018-09-24T21:28:52.552302Z,-0.038711,-0.028437,-0.602877
2018-09-24T21:28:52.746302Z,1.341375,-1.6631900000000002,1.9028180000000001
2018-09-24T21:28:52.946302Z,2.06113,-1.857098,0.341096
2018-09-24T21:28:53.143302Z,2.22798,-1.678775,0.265201
2018-09-24T21:28:53.346302Z,0.513564,-0.889286,0.558867
2018-09-24T21:28:53.550302Z,0.976144,-0.134616,1.204958
2018-09-24T21:28:53.748302Z,-0.6524949999999999,-1.593402,0.197714
2018-09-24T21:28:53.947302Z,0.027849000000000002,-0.74892,-1.424612
2018-09-24T21:28:54.146302Z,0.10582899999999999,-0.23670500000000003,0.412659
2018-09-24T21:28:54.348302Z,0.333569,-0.741799,0.8890049999999999
2018-09-24T21:28:54.548302Z,0.860793,-1.61985,0.096885
2018-09-24T21:28:54.743302Z,0.30561,-0.688754,-0.416368
2018-09-24T21:28:54.950302Z,0.326244,-1.027903,0.695492
2018-09-24T21:28:55.151302Z,-0.310635,-1.40802,-0.48427600000000004
2018-09-24T21:28:55.348302Z,-0.223593,-0.982116,0.49849899999999997
2018-09-24T21:28:55.548302Z,0.340916,-0.479562,0.048743
2018-09-24T21:28:55.744302Z,0.33311599999999997,0.16278299999999998,-0.205473
2018-09-24T21:28:55.949302Z,-0.19345199999999999,0.3258,0.5178189999999999
2018-09-24T21:28:56.151302Z,0.11215699999999999,-0.025429,0.965146
2018-09-24T21:28:56.351302Z,0.759728,-0.8614649999999999,-0.44865
2018-09-24T21:28:56.534302Z,0.43319799999999997,-0.463999,0.639626
2018-09-24T21:28:56.743302Z,0.757997,0.628897,-0.30344099999999996
2018-09-24T21:28:56.948302Z,-0.011198999999999999,0.108838,0.7199409999999999
2018-09-24T21:28:57.135302Z,-0.287331,-1.519362,0.631417
2018-09-24T21:28:57.346302Z,0.124731,0.255765,-1.8056720000000002
2018-09-24T21:28:57.535302Z,0.057621000000000006,0.615762,0.688954
2018-09-24T21:28:57.735302Z,0.103324,-0.8204020000000001,1.446338
2018-09-24T21:28:57.946302Z,0.129401,-0.48844499999999996,-1.339749
2018-09-24T21:28:58.136302Z,0.46441099999999996,-0.641365,-0.057974
2018-09-24T21:28:58.352302Z,0.198292,0.880381,0.9815389999999999
2018-09-24T21:28:58.537302Z,-0.429179,-1.2742360000000001,1.803066
2018-09-24T21:28:58.752302Z,-0.081211,-0.8867860000000001,-0.817967
2018-09-24T21:28:58.953302Z,0.794643,-0.752672,-0.66171
2018-09-24T21:28:59.152302Z,-0.617101,-0.40667600000000004,-0.031255
2018-09-24T21:28:59.353302Z,0.711164,-0.434237,1.092249
2018-09-24T21:28:59.577302Z,1.072315,-0.695966,0.079473
2018-09-24T21:28:59.747302Z,0.6552899999999999,0.007406,-0.629981
2018-09-24T21:28:59.946302Z,0.20564699999999997,-0.120078,0.9945860000000001
2018-09-24T21:29:00.153302Z,-0.09415599999999999,-1.541355,0.188866
2018-09-24T21:29:00.351302Z,0.705444,-1.129925,0.126589
2018-09-24T21:29:00.553302Z,0.790273,-0.620779,-0.268469
2018-09-24T21:29:00.754302Z,-0.24145100000000003,0.6289020000000001,1.120981
2018-09-24T21:29:00.949302Z,-0.015742,-0.683264,0.9014340000000001
2018-09-24T21:29:01.152302Z,-0.24768,-0.959857,-1.033779
2018-09-24T21:29:01.354302Z,0.18346700000000002,-1.177816,0.053713
2018-09-24T21:29:01.582302Z,-1.6370639999999999,0.26158000000000003,0.534088
2018-09-24T21:29:01.778302Z,-2.443588,-1.832355,1.003901
2018-09-24T21:29:01.979302Z,-0.649782,-1.611442,-0.33997
2018-09-24T21:29:02.177302Z,-0.019448,-0.041958999999999996,-0.207648
2018-09-24T21:29:02.378302Z,0.824498,0.286143,0.243299
2018-09-24T21:29:02.541302Z,0.11068900000000001,-0.774583,0.727216
2018-09-24T21:29:02.777302Z,0.92004,0.14521199999999998,-0.9742120000000001
2018-09-24T21:29:02.978302Z,0.277832,0.96306,-0.416159
2018-09-24T21:29:03.180302Z,-0.320158,-0.382931,0.313296
2018-09-24T21:29:03.419302Z,0.48839799999999994,-0.240004,-0.703024
2018-09-24T21:29:03.558302Z,0.30640100000000003,0.393583,-0.553449
2018-09-24T21:29:03.757302Z,0.382402,0.535836,0.514491
2018-09-24T21:29:03.964302Z,0.326934,-0.780097,-0.078845
2018-09-24T21:29:04.151302Z,0.5006550000000001,-0.243713,-0.45678
2018-09-24T21:29:04.357302Z,0.169069,0.344024,0.053227
2018-09-24T21:29:04.658302Z,0.796247,1.004045,0.807174
2018-09-24T21:29:04.748302Z,-1.509585,-1.1391229999999999,0.786886
2018-09-24T21:29:04.972302Z,-1.297444,-1.17947,-0.272962
2018-09-24T21:29:05.152302Z,-0.454928,-0.7290220000000001,-0.324753
2018-09-24T21:29:05.357302Z,0.440749,-0.046289,0.249266
2018-09-24T21:29:05.556302Z,0.860842,0.907436,0.041339
2018-09-24T21:29:05.743302Z,1.20008,0.34926799999999997,0.725849
2018-09-24T21:29:05.955302Z,1.1002969999999999,-0.269606,-0.221742
2018-09-24T21:29:06.156302Z,1.194084,0.558937,-0.567955
2018-09-24T21:29:06.357302Z,0.246691,0.6070800000000001,0.8396899999999999
2018-09-24T21:29:06.554302Z,-0.363989,-1.060001,0.8578610000000001
2018-09-24T21:29:06.762302Z,-1.111933,-1.474586,-0.47048
2018-09-24T21:29:06.957302Z,-0.690739,-1.283095,-0.068424
2018-09-24T21:29:07.157302Z,0.7106560000000001,-0.441916,0.212023
2018-09-24T21:29:07.357302Z,1.828703,-0.217819,1.099517
2018-09-24T21:29:07.545302Z,0.967852,0.020509,-0.237646
2018-09-24T21:29:07.759302Z,0.6359779999999999,-0.700426,-0.484892
2018-09-24T21:29:07.958302Z,0.825528,0.34861,0.590897
2018-09-24T21:29:08.160302Z,0.526704,-0.073541,1.461601
2018-09-24T21:29:08.360302Z,0.319723,-1.185123,-0.147825
2018-09-24T21:29:08.564302Z,0.775941,-0.36247399999999996,-0.917057
2018-09-24T21:29:08.758302Z,0.671298,-0.004744,1.041207
2018-09-24T21:29:08.963302Z,0.495691,-0.8362569999999999,1.23304
2018-09-24T21:29:09.163302Z,1.291598,-1.605334,-0.43636
2018-09-24T21:29:09.359302Z,1.556168,-0.7457630000000001,-0.712033
2018-09-24T21:29:09.560302Z,1.117126,-1.57843,1.059232
2018-09-24T21:29:09.761302Z,1.660391,-2.316335,0.434229
2018-09-24T21:29:09.962302Z,0.986341,-0.22935100000000003,-0.797014
2018-09-24T21:29:10.161302Z,0.901352,0.114291,-0.172231
2018-09-24T21:29:10.347302Z,0.176598,-0.22361399999999998,0.9422219999999999
2018-09-24T21:29:10.559302Z,-0.174456,-1.9992919999999998,0.405972
2018-09-24T21:29:10.763302Z,0.015086000000000002,-1.094163,-0.368909
2018-09-24T21:29:10.960302Z,0.46593,-0.9468840000000001,0.567707
2018-09-24T21:29:11.161302Z,-0.008617,-0.889036,-0.064415
2018-09-24T21:29:11.359302Z,0.972046,-0.046801999999999996,-0.690804
2018-09-24T21:29:11.561302Z,0.292852,-0.012674,0.720549
2018-09-24T21:29:11.763302Z,1.143404,-1.444971,1.415235
2018-09-24T21:29:11.961302Z,0.91545,-1.210905,-0.14998499999999998
2018-09-24T21:29:12.159302Z,0.49481499999999995,-0.035202,-0.200027
2018-09-24T21:29:12.361302Z,0.016783000000000003,0.126252,0.971519
2018-09-24T21:29:12.563302Z,0.079154,0.39503499999999997,0.785522
2018-09-24T21:29:12.759302Z,-0.258006,-0.744687,-1.110144
2018-09-24T21:29:12.960302Z,-0.283536,0.331162,-0.289211
2018-09-24T21:29:13.162302Z,0.011335,-0.281955,1.120684
2018-09-24T21:29:13.365302Z,0.25016700000000003,-1.302678,0.906293
2018-09-24T21:29:13.562302Z,1.070009,-0.816718,-1.1388260000000001
2018-09-24T21:29:13.763302Z,0.273607,0.698527,0.70718
2018-09-24T21:29:13.965302Z,0.020861,-0.178316,2.047349
2018-09-24T21:29:14.213302Z,-0.251237,-2.095312,-0.172842
2018-09-24T21:29:14.363302Z,0.9217200000000001,0.03779,-0.154661
2018-09-24T21:29:14.566302Z,1.068782,-0.814231,1.460702
2018-09-24T21:29:14.763302Z,1.5750709999999999,-1.74285,0.46622299999999994
2018-09-24T21:29:14.964302Z,1.64898,-1.742218,-0.5238109999999999
2018-09-24T21:29:15.165302Z,1.3075139999999998,-0.36320399999999997,0.994027
2018-09-24T21:29:15.365302Z,-1.134179,-0.766613,0.721096
2018-09-24T21:29:15.566302Z,-0.042408,-1.7798759999999998,-0.28651
2018-09-24T21:29:15.768302Z,0.23864699999999997,-0.11301300000000002,-1.0966870000000002
2018-09-24T21:29:15.965302Z,0.659957,-1.025766,1.744747
2018-09-24T21:29:16.176302Z,1.118587,-1.383198,-1.427029
2018-09-24T21:29:16.362302Z,1.046765,-0.49103100000000005,-0.769374
2018-09-24T21:29:16.565302Z,0.342886,-0.012454999999999999,1.2006430000000001
2018-09-24T21:29:16.766302Z,0.20496199999999998,-1.7268439999999998,-0.717905
2018-09-24T21:29:16.963302Z,0.24466300000000002,-0.495803,-0.790403
2018-09-24T21:29:17.163302Z,-0.5634640000000001,0.721364,-0.180555
2018-09-24T21:29:17.366302Z,-0.213425,-0.117425,1.680259
2018-09-24T21:29:17.567302Z,-0.209484,-0.753869,-0.912026
2018-09-24T21:29:17.798302Z,0.275826,0.09586900000000001,0.47879499999999997
2018-09-24T21:29:17.953302Z,-0.303398,-1.409627,1.959986
2018-09-24T21:29:18.165302Z,-0.5347770000000001,-0.065563,-1.6194899999999999
2018-09-24T21:29:18.368302Z,0.264974,0.078966,0.699033
2018-09-24T21:29:18.567302Z,0.523011,-1.036997,0.927586
2018-09-24T21:29:18.766302Z,0.8194790000000001,-0.9965459999999999,-0.6799470000000001
2018-09-24T21:29:18.967302Z,0.32521100000000003,0.163449,-1.022358
2018-09-24T21:29:19.170302Z,-0.885194,-0.936832,1.3422319999999999
2018-09-24T21:29:19.368302Z,-0.26582100000000003,-0.776598,-1.048818
2018-09-24T21:29:19.568302Z,0.053171,0.22846,-0.69794
2018-09-24T21:29:19.771302Z,-0.135744,0.47586000000000006,0.543076
2018-09-24T21:29:20.025302Z,0.7751680000000001,-1.451231,-1.117494
2018-09-24T21:29:20.168302Z,0.390033,-0.259889,-0.948888
2018-09-24T21:29:20.357302Z,0.388524,0.417775,0.239802
2018-09-24T21:29:20.569302Z,-0.06932200000000001,0.5899439999999999,1.5825280000000002
2018-09-24T21:29:20.769302Z,-0.35904200000000003,-0.712477,-1.044634
2018-09-24T21:29:20.971302Z,-0.19500499999999998,0.142688,-0.7093689999999999
2018-09-24T21:29:21.171302Z,0.551896,-0.193218,2.118705
2018-09-24T21:29:21.371302Z,0.620223,-0.651777,0.557269
2018-09-24T21:29:21.578302Z,1.009706,-0.556904,-0.714489
2018-09-24T21:29:21.768302Z,0.744598,0.482238,1.03568
2018-09-24T21:29:21.971302Z,1.252192,-1.941632,1.8125580000000001
2018-09-24T21:29:22.156302Z,1.651572,-2.447288,0.23577800000000002
2018-09-24T21:29:22.356302Z,-0.08254299999999999,-0.8805120000000001,-0.029725
2018-09-24T21:29:22.570302Z,-0.676453,-0.044412,0.56009
2018-09-24T21:29:22.772302Z,0.18947999999999998,-0.659724,1.6277139999999999
2018-09-24T21:29:23.057302Z,1.093788,-1.477983,-0.488438
2018-09-24T21:29:23.167302Z,0.249236,-0.040688999999999996,0.438283
2018-09-24T21:29:23.396302Z,-0.358719,-0.20269500000000001,0.9608549999999999
2018-09-24T21:29:23.572302Z,-0.785014,-1.48712,0.596767
2018-09-24T21:29:23.767302Z,-0.14621800000000001,-0.525857,-1.227203
2018-09-24T21:29:23.970302Z,-0.15466300000000002,0.132849,0.46991000000000005
2018-09-24T21:29:24.173302Z,0.346937,-1.279005,0.8902030000000001
2018-09-24T21:29:24.419302Z,0.305976,-1.152695,-0.22809400000000002
2018-09-24T21:29:24.569302Z,0.627235,-0.013605,-0.888809
2018-09-24T21:29:24.776302Z,-1.045518,-0.664108,1.0360989999999999
2018-09-24T21:29:24.973302Z,0.229238,-1.3901940000000002,-0.392303
2018-09-24T21:29:25.172302Z,0.443176,-0.378395,-0.8829290000000001
2018-09-24T21:29:25.368302Z,-0.344708,0.671257,0.043153
2018-09-24T21:29:25.573302Z,0.292398,-1.616818,0.505404
2018-09-24T21:29:25.774302Z,0.000769,-0.761993,-1.1008120000000001
2018-09-24T21:29:26.040302Z,0.23049299999999998,0.33971,-0.674029
2018-09-24T21:29:26.170302Z,-0.109698,0.300356,1.157168
2018-09-24T21:29:26.404302Z,-0.063765,-1.6928009999999998,-0.194017
2018-09-24T21:29:26.561302Z,0.28686100000000003,-0.17893399999999998,-1.007465
2018-09-24T21:29:26.772302Z,-0.038308999999999996,0.777087,-0.294758
2018-09-24T21:29:26.973302Z,0.43526400000000004,0.391863,1.8475830000000002
2018-09-24T21:29:27.176302Z,0.5264340000000001,-0.980109,-1.506353
2018-09-24T21:29:27.371302Z,0.35927600000000004,0.107134,-0.5791470000000001
2018-09-24T21:29:27.570302Z,0.18767799999999998,0.890977,0.5691
2018-09-24T21:29:27.774302Z,-0.934356,0.214311,1.520194
2018-09-24T21:29:27.977302Z,0.082428,-0.813549,-0.872301
2018-09-24T21:29:28.174302Z,-0.353403,0.211236,-0.202715
2018-09-24T21:29:28.379302Z,0.404008,0.1748,1.085992
2018-09-24T21:29:28.576302Z,0.67755,-1.205182,1.330133
2018-09-24T21:29:28.778302Z,0.531655,-0.48119700000000004,-0.371158
2018-09-24T21:29:28.978302Z,0.150167,0.160458,-0.17635399999999998
2018-09-24T21:29:29.177302Z,-0.205512,-1.549228,1.279641
2018-09-24T21:29:29.377302Z,0.529575,0.11956199999999999,0.214513
2018-09-24T21:29:29.576302Z,0.709534,-0.539149,0.21530700000000003
2018-09-24T21:29:29.766302Z,0.010978,-0.369606,0.552172
2018-09-24T21:29:29.963302Z,0.002646,-0.9450719999999999,-0.010278
2018-09-24T21:29:30.175302Z,-0.669404,-0.8710549999999999,-0.085643
2018-09-24T21:29:30.363302Z,-0.21472399999999997,-0.856418,0.014569
2018-09-24T21:29:30.563302Z,0.25828,-0.26711,0.046915
2018-09-24T21:29:30.775302Z,0.34129899999999996,0.23502399999999998,-0.156125
2018-09-24T21:29:30.979302Z,0.116414,0.11503,0.249131
2018-09-24T21:29:31.183302Z,-0.059754999999999996,-1.2706899999999999,0.564656
2018-09-24T21:29:31.366302Z,0.19597,-0.095194,-0.307821
2018-09-24T21:29:31.564302Z,0.378289,0.520829,-0.836715
2018-09-24T21:29:31.765302Z,-0.076821,0.198536,0.293609
2018-09-24T21:29:32.022302Z,0.127523,-1.240371,-1.005242
2018-09-24T21:29:32.205302Z,-0.096117,-0.639498,-0.016891
2018-09-24T21:29:32.405302Z,-0.490655,0.349426,-0.797661
2018-09-24T21:29:32.606302Z,-1.080692,-0.185944,1.712577
2018-09-24T21:29:32.807302Z,-1.44985,-1.4283649999999999,-0.144438
2018-09-24T21:29:33.004302Z,-0.42345200000000005,0.202688,-0.61215
2018-09-24T21:29:33.233302Z,0.233206,0.672031,0.5199560000000001
2018-09-24T21:29:33.404302Z,0.26400100000000004,-0.638013,1.0167549999999999
2018-09-24T21:29:33.599302Z,0.829405,0.14329,-0.45926300000000003
2018-09-24T21:29:33.779302Z,0.288092,0.46654300000000004,0.29654200000000003
2018-09-24T21:29:33.981302Z,-0.166598,-0.134966,1.265636
2018-09-24T21:29:34.179302Z,-0.8044899999999999,-0.36995300000000003,-0.9010090000000001
2018-09-24T21:29:34.380302Z,-0.918286,0.423971,-0.212022
2018-09-24T21:29:34.583302Z,-0.380865,-0.7248359999999999,0.611186
2018-09-24T21:29:34.777302Z,-0.996051,-1.375235,0.678693
2018-09-24T21:29:34.979302Z,-0.855776,-0.30309400000000003,-0.5836100000000001
2018-09-24T21:29:35.180302Z,1.790462,0.673277,0.072409
2018-09-24T21:29:35.382302Z,1.2797379999999998,1.123604,0.626247
2018-09-24T21:29:35.582302Z,1.1831260000000001,-0.7227680000000001,1.339206
2018-09-24T21:29:35.781302Z,0.55545,-0.9433040000000001,-1.260117
2018-09-24T21:29:35.983302Z,0.32326900000000003,0.789004,0.24127300000000002
2018-09-24T21:29:36.217302Z,0.588079,0.780251,0.800425
2018-09-24T21:29:36.369302Z,1.1243530000000002,-0.977662,1.200826
2018-09-24T21:29:36.579302Z,0.47893900000000006,-0.214754,-1.6450939999999998
2018-09-24T21:29:36.778302Z,0.964937,1.03336,-0.346146
2018-09-24T21:29:36.984302Z,1.10564,0.444212,1.416189
2018-09-24T21:29:37.184302Z,0.09854199999999999,-1.3950690000000001,0.685743
2018-09-24T21:29:37.380302Z,0.8767020000000001,-0.9092540000000001,-0.908999
2018-09-24T21:29:37.579302Z,0.711756,-0.00948,0.467681
2018-09-24T21:29:37.783302Z,1.438488,-1.0913389999999998,1.822309
2018-09-24T21:29:37.984302Z,2.085095,-0.894783,-1.072816
2018-09-24T21:29:38.182302Z,1.159182,-0.553181,-0.449729
2018-09-24T21:29:38.382302Z,0.275492,0.550443,1.7879180000000001
2018-09-24T21:29:38.584302Z,-0.8245100000000001,-1.4729370000000002,-0.342619
2018-09-24T21:29:38.781302Z,-0.916178,-1.306127,-0.27517600000000003
2018-09-24T21:29:38.986302Z,-0.418238,-0.121511,-1.3473950000000001
2018-09-24T21:29:39.188302Z,-0.130873,0.327378,0.5894659999999999
2018-09-24T21:29:39.383302Z,-0.41640299999999997,-1.3433190000000002,0.620681
2018-09-24T21:29:39.573302Z,0.052226999999999996,-0.9509290000000001,-0.69471
2018-09-24T21:29:39.790302Z,0.124823,0.065356,-1.066279
2018-09-24T21:29:39.983302Z,-0.282537,0.013525,0.737879
2018-09-24T21:29:40.186302Z,-0.556553,-1.5020719999999999,0.063157
2018-09-24T21:29:40.386302Z,-0.173978,-0.6837310000000001,-0.722975
2018-09-24T21:29:40.579302Z,-0.314744,0.388326,-0.234071
2018-09-24T21:29:40.786302Z,0.741758,-0.983791,0.523138
2018-09-24T21:29:40.985302Z,0.134598,-0.917358,-0.39252600000000004
2018-09-24T21:29:41.261302Z,0.444082,-0.050242,-0.8844989999999999
2018-09-24T21:29:41.384302Z,0.575339,0.068838,0.923752
2018-09-24T21:29:41.588302Z,0.546181,-1.1301,-0.147142
2018-09-24T21:29:41.787302Z,1.161455,-0.910401,-0.471607
2018-09-24T21:29:41.986302Z,0.968728,-0.700162,0.206823
2018-09-24T21:29:42.188302Z,0.19631700000000002,-1.069663,0.881867
2018-09-24T21:29:42.388302Z,0.280778,-1.043547,-0.071373
2018-09-24T21:29:42.591302Z,0.396391,0.036835,0.126667
2018-09-24T21:29:42.788302Z,0.037404,-0.813355,1.135767
2018-09-24T21:29:42.988302Z,0.030398,-1.576403,1.020157
2018-09-24T21:29:43.189302Z,0.051984,-0.130804,-0.278279
2018-09-24T21:29:43.386302Z,-0.186356,0.47872,0.6143569999999999
2018-09-24T21:29:43.588302Z,0.028109,-1.3593,1.455976
2018-09-24T21:29:43.785302Z,-0.088388,-1.51104,-0.715869
2018-09-24T21:29:43.989302Z,0.16208699999999998,0.207844,-0.202099
2018-09-24T21:29:44.189302Z,-0.110482,-0.165897,0.855625
2018-09-24T21:29:44.375302Z,-1.0616809999999999,-1.8902619999999999,1.00106
2018-09-24T21:29:44.622302Z,-0.623816,-1.065265,-1.0529030000000001
2018-09-24T21:29:44.790302Z,-0.571451,-0.49629399999999996,0.9868309999999999
2018-09-24T21:29:44.986302Z,-2.2970990000000002,-1.980219,0.988158
2018-09-24T21:29:45.175302Z,-1.216624,-1.454903,-0.556439
2018-09-24T21:29:45.390302Z,0.524894,-0.21724200000000002,-0.62522
2018-09-24T21:29:45.591302Z,0.666954,1.275639,1.290985
2018-09-24T21:29:45.791302Z,0.167605,0.3077,-0.40771599999999997
2018-09-24T21:29:45.991302Z,1.1217979999999999,-1.3700510000000001,0.524452
2018-09-24T21:29:46.177302Z,0.8483620000000001,0.510123,-1.466648
2018-09-24T21:29:46.394302Z,0.29676199999999997,0.934371,1.290607
2018-09-24T21:29:46.589302Z,0.37750100000000003,-1.175465,0.206527
2018-09-24T21:29:46.791302Z,-0.18661,-0.971986,-0.983126
2018-09-24T21:29:47.022302Z,0.679211,-0.220433,-0.462175
2018-09-24T21:29:47.178302Z,-0.986157,-0.23709699999999997,1.142102
2018-09-24T21:29:47.410302Z,-0.709228,-1.8154880000000002,0.110194
2018-09-24T21:29:47.592302Z,0.095587,-0.641544,-0.7582479999999999
2018-09-24T21:29:47.792302Z,0.966958,0.43128299999999997,-0.084863
2018-09-24T21:29:47.993302Z,0.6555989999999999,0.872619,0.463924
2018-09-24T21:29:48.194302Z,0.290117,-0.446762,0.602061
2018-09-24T21:29:48.419302Z,1.191471,-0.49061800000000005,-0.666239
2018-09-24T21:29:48.588302Z,0.998447,0.24366500000000002,-0.347694
2018-09-24T21:29:48.793302Z,0.534086,0.15619,0.798612
2018-09-24T21:29:48.993302Z,0.22104000000000001,-0.8516030000000001,0.19378499999999999
2018-09-24T21:29:49.192302Z,0.904457,-0.21764899999999998,-0.506735
2018-09-24T21:29:49.393302Z,0.638234,0.217822,-0.22155999999999998
2018-09-24T21:29:49.594302Z,0.42015600000000003,-0.19564,1.720044
2018-09-24T21:29:49.795302Z,1.499018,-0.8414969999999999,-1.180139
2018-09-24T21:29:50.005302Z,0.8418559999999999,-0.190976,-0.423933
2018-09-24T21:29:50.196302Z,1.507917,0.450763,0.518245
2018-09-24T21:29:50.380302Z,1.324058,-1.316733,0.6858489999999999
2018-09-24T21:29:50.583302Z,1.4742899999999999,-1.088632,-0.299264
2018-09-24T21:29:50.795302Z,0.7328279999999999,-0.220573,-0.04627
2018-09-24T21:29:50.990302Z,-0.475236,0.32547600000000004,0.193021
2018-09-24T21:29:51.197302Z,0.417705,-1.010124,1.070463
2018-09-24T21:29:51.394302Z,0.228584,-0.822945,-0.804059
2018-09-24T21:29:51.582302Z,0.151071,-0.23056100000000002,-0.664161
2018-09-24T21:29:51.803302Z,-0.195958,-0.011804,0.626209
2018-09-24T21:29:51.997302Z,-0.6618109999999999,-2.0899490000000003,0.592734
2018-09-24T21:29:52.198302Z,-0.255228,-1.369033,-0.490588
2018-09-24T21:29:52.399302Z,-0.49778199999999995,-0.363186,0.324375
2018-09-24T21:29:52.582302Z,-0.314256,-0.544878,0.473938
2018-09-24T21:29:52.795302Z,1.144991,-1.182204,-0.069444
2018-09-24T21:29:52.996302Z,0.192455,-0.16372799999999998,0.496983
2018-09-24T21:29:53.195302Z,0.00031,-0.22486,0.11178199999999999
2018-09-24T21:29:53.398302Z,0.269148,0.257422,-0.089559
2018-09-24T21:29:53.595302Z,0.022514,0.385367,0.39214899999999997
2018-09-24T21:29:53.794302Z,-0.07503,-0.391227,0.28683400000000003
2018-09-24T21:29:53.994302Z,-0.968936,0.180894,-0.530814
2018-09-24T21:29:54.198302Z,-0.121991,0.08764,0.15224000000000001
2018-09-24T21:29:54.400302Z,-0.150862,0.991275,0.228282
2018-09-24T21:29:54.584302Z,-0.6113890000000001,0.492162,0.9422440000000001
2018-09-24T21:29:54.784302Z,0.32122399999999995,-1.213109,-0.054346000000000005
2018-09-24T21:29:55.003302Z,0.53161,-0.195918,-0.130926
2018-09-24T21:29:55.199302Z,0.08875,0.8009729999999999,0.876793
2018-09-24T21:29:55.384302Z,-0.038245999999999995,0.12555999999999998,0.844275
2018-09-24T21:29:55.601302Z,-0.656146,-1.195329,0.53625
2018-09-24T21:29:55.798302Z,-0.624274,-0.730272,-0.9144129999999999
2018-09-24T21:29:55.998302Z,0.428278,0.554938,0.64558
2018-09-24T21:29:56.207302Z,-0.597021,0.32902,0.90764
2018-09-24T21:29:56.400302Z,0.025408,-1.63191,0.059345
2018-09-24T21:29:56.597302Z,0.097455,-0.886458,-0.382361
2018-09-24T21:29:56.800302Z,0.542719,0.248348,0.5047119999999999
2018-09-24T21:29:56.999302Z,-0.238184,0.160363,0.589322
2018-09-24T21:29:57.186302Z,-0.46293199999999995,-1.0114969999999999,0.038511000000000004
2018-09-24T21:29:57.400302Z,-0.034864,-0.15887300000000001,-0.616533
2018-09-24T21:29:57.586302Z,-0.3971,0.403102,0.66557
2018-09-24T21:29:57.787302Z,-0.039261000000000004,-1.2079799999999998,0.763958
2018-09-24T21:29:58.000302Z,0.108751,-1.066666,-0.322594
2018-09-24T21:29:58.198302Z,-0.33050300000000005,-0.8146899999999999,-0.30435300000000004
2018-09-24T21:29:58.399302Z,-0.478541,-0.17609,0.045804000000000004
2018-09-24T21:29:58.596302Z,0.031776,0.320734,-0.12205
2018-09-24T21:29:58.796302Z,-0.076156,0.391216,-0.317497
2018-09-24T21:29:59.001302Z,-0.440108,0.193047,0.21939299999999998
2018-09-24T21:29:59.201302Z,0.294321,-0.406851,0.249319
2018-09-24T21:29:59.402302Z,1.032564,-0.20580700000000002,-0.813761
2018-09-24T21:29:59.603302Z,0.328366,-0.308207,0.470563
2018-09-24T21:29:59.800302Z,0.850542,-0.887185,0.5615680000000001
2018-09-24T21:29:59.988302Z,0.20016099999999998,-0.080916,-0.351249
2018-09-24T21:30:00.205302Z,0.212916,0.234866,0.16712
2018-09-24T21:30:00.403302Z,-0.771625,-0.80353,1.238206
2018-09-24T21:30:00.603302Z,-0.787431,-0.721874,-0.716355
2018-09-24T21:30:00.802302Z,-0.366327,0.47248999999999997,-0.421554
2018-09-24T21:30:01.003302Z,-0.399212,-0.125681,0.804804
2018-09-24T21:30:01.202302Z,0.413968,-1.884109,1.296063
2018-09-24T21:30:01.389302Z,-1.249068,-1.6773810000000002,-0.132108
2018-09-24T21:30:01.604302Z,-1.792947,-1.462815,0.23286199999999999
2018-09-24T21:30:01.803302Z,-0.729996,-2.438268,1.248243
2018-09-24T21:30:02.006302Z,-0.6089939999999999,-1.323469,-0.586052
2018-09-24T21:30:02.200302Z,0.828434,-0.767729,0.18168199999999998
2018-09-24T21:30:02.404302Z,0.33726999999999996,0.013093,0.46073500000000006
2018-09-24T21:30:02.642302Z,1.024785,0.263,-0.11736400000000001
2018-09-24T21:30:02.791302Z,1.415748,0.144485,0.11935699999999999
2018-09-24T21:30:03.002302Z,1.2983129999999998,0.2919,0.176325
2018-09-24T21:30:03.201302Z,0.692278,0.47158500000000003,-0.9274819999999999
2018-09-24T21:30:03.414302Z,0.782096,0.701449,-0.45083900000000005
2018-09-24T21:30:03.591302Z,0.658795,0.540319,1.368031
2018-09-24T21:30:03.805302Z,0.7724300000000001,-1.481144,1.125507
2018-09-24T21:30:04.035302Z,0.480545,0.16100599999999998,-0.354997
2018-09-24T21:30:04.233302Z,0.036696,0.158676,0.555779
2018-09-24T21:30:04.392302Z,-0.036405,-0.9745530000000001,0.899632
2018-09-24T21:30:04.629302Z,-0.170664,-1.403175,-0.360788
2018-09-24T21:30:04.792302Z,0.316666,-0.980834,0.395673
2018-09-24T21:30:05.030302Z,0.249371,-0.528831,0.286723
2018-09-24T21:30:05.231302Z,0.384909,0.15501600000000001,-0.650616
2018-09-24T21:30:05.435302Z,0.680898,0.28944899999999996,0.037557
2018-09-24T21:30:05.592302Z,0.301713,-0.093433,0.07085
2018-09-24T21:30:05.833302Z,0.9577559999999999,-1.6841540000000002,0.158649
2018-09-24T21:30:06.093302Z,0.466139,-0.5569689999999999,-0.68842
2018-09-24T21:30:06.193302Z,-0.040163,0.7734850000000001,-0.5188649999999999
2018-09-24T21:30:06.394302Z,-1.229347,-0.623012,1.35697
2018-09-24T21:30:06.607302Z,-1.5058610000000001,-1.9970169999999998,-0.30109
2018-09-24T21:30:06.808302Z,-0.070699,-0.8998649999999999,-0.6638970000000001
2018-09-24T21:30:07.008302Z,0.836714,-0.223679,0.626827
2018-09-24T21:30:07.206302Z,1.197978,-0.015119999999999998,1.582147
2018-09-24T21:30:07.407302Z,1.023403,-0.9395610000000001,-0.41311499999999995
2018-09-24T21:30:07.610302Z,1.131923,0.169444,-1.043991
2018-09-24T21:30:07.810302Z,1.19289,0.328561,0.686283
2018-09-24T21:30:08.007302Z,-0.40066399999999996,-0.875184,0.360261
2018-09-24T21:30:08.208302Z,0.06469,-0.281369,-0.6664760000000001
2018-09-24T21:30:08.406302Z,0.115476,0.441375,-0.353557
2018-09-24T21:30:08.595302Z,-0.31459699999999996,0.000376,1.672828
2018-09-24T21:30:08.806302Z,0.5385270000000001,-0.271629,-1.4693399999999999
2018-09-24T21:30:09.007302Z,0.6351359999999999,0.349586,0.022522
2018-09-24T21:30:09.210302Z,-0.436275,0.536909,1.591201
2018-09-24T21:30:09.410302Z,0.309108,-1.3821,-0.034575
2018-09-24T21:30:09.599302Z,0.342452,0.570712,-0.357043
2018-09-24T21:30:09.811302Z,0.350462,0.132522,1.654408
2018-09-24T21:30:10.009302Z,0.741359,-1.5629170000000001,0.036429
2018-09-24T21:30:10.212302Z,0.327466,-0.195251,-1.2974370000000002
2018-09-24T21:30:10.412302Z,0.694415,0.61535,1.034705
2018-09-24T21:30:10.615302Z,0.003934,-0.99603,0.820139
2018-09-24T21:30:10.811302Z,0.07119400000000001,-0.32161999999999996,-1.463676
2018-09-24T21:30:11.011302Z,0.48483000000000004,0.089462,-0.805342
2018-09-24T21:30:11.214302Z,-0.037855,0.15043800000000002,1.464949
2018-09-24T21:30:11.469302Z,0.756317,-0.7796029999999999,-0.9840479999999999
2018-09-24T21:30:11.608302Z,0.7676149999999999,-0.403927,-0.40805
2018-09-24T21:30:11.836302Z,0.8749629999999999,0.683014,-0.276316
2018-09-24T21:30:12.019302Z,0.580374,-1.1549479999999999,0.330729
2018-09-24T21:30:12.211302Z,0.608893,-0.374226,-1.040724
2018-09-24T21:30:12.413302Z,0.060159000000000004,0.399593,0.186551
2018-09-24T21:30:12.615302Z,0.116971,0.386486,1.268182
2018-09-24T21:30:12.812302Z,-0.25658000000000003,-0.343301,-0.9811709999999999
2018-09-24T21:30:13.016302Z,0.42801300000000003,0.177298,-0.592114
2018-09-24T21:30:13.199302Z,0.41673599999999994,-0.295261,1.767668
2018-09-24T21:30:13.408302Z,-0.630253,-0.405057,0.28748
2018-09-24T21:30:13.600302Z,1.9567759999999998,-1.12553,-0.23158099999999998
2018-09-24T21:30:13.814302Z,1.7170900000000002,-2.062159,0.710233
2018-09-24T21:30:14.015302Z,1.580589,-3.202771,1.6579959999999998
2018-09-24T21:30:14.215302Z,1.372703,-3.6653599999999997,0.815377
2018-09-24T21:30:14.401302Z,-0.862287,-0.854174,0.9137270000000001
2018-09-24T21:30:14.616302Z,-1.814929,0.146963,0.5554279999999999
2018-09-24T21:30:14.801302Z,-0.6810649999999999,-0.6176659999999999,-0.634736
2018-09-24T21:30:15.001302Z,0.11108399999999999,-0.06311,-0.379865
2018-09-24T21:30:15.215302Z,0.10311600000000001,-1.0903100000000001,1.2998889999999999
2018-09-24T21:30:15.419302Z,0.786741,-1.145991,-1.378633
2018-09-24T21:30:15.628302Z,1.134121,-0.384455,-0.28990900000000003
2018-09-24T21:30:15.802302Z,0.8280790000000001,0.303604,0.522612
2018-09-24T21:30:16.017302Z,0.16789300000000001,-1.432823,0.380362
2018-09-24T21:30:16.212302Z,0.760366,-0.27126300000000003,-1.173812
2018-09-24T21:30:16.418302Z,0.09690900000000001,0.132527,0.43525600000000003
2018-09-24T21:30:16.618302Z,0.175276,0.309305,1.2021549999999999
2018-09-24T21:30:16.819302Z,0.1809,-0.934689,-1.066875
2018-09-24T21:30:17.016302Z,0.514716,0.010809000000000001,-0.407166
2018-09-24T21:30:17.215302Z,0.100836,-0.732398,2.272277
2018-09-24T21:30:17.482302Z,-0.233035,-0.994619,0.283225
2018-09-24T21:30:17.617302Z,-0.170628,-0.001172,-0.40588
2018-09-24T21:30:17.851302Z,0.165544,0.30686599999999997,0.735803
2018-09-24T21:30:18.013302Z,0.363132,-0.6084109999999999,1.557569
2018-09-24T21:30:18.203302Z,0.361271,-1.010907,-0.910975
2018-09-24T21:30:18.419302Z,0.95088,0.654921,0.142405
2018-09-24T21:30:18.604302Z,-0.27971599999999996,-0.016361,1.4533989999999999
2018-09-24T21:30:18.884302Z,-0.059269,-1.680359,0.6565850000000001
2018-09-24T21:30:19.004302Z,0.28710399999999997,-0.6516350000000001,-1.1329129999999998
2018-09-24T21:30:19.213302Z,-0.28341500000000003,0.14944000000000002,1.1419780000000002
2018-09-24T21:30:19.418302Z,1.2154559999999999,-1.795125,0.546036
2018-09-24T21:30:19.604302Z,0.397502,-1.175292,-0.43595900000000004
2018-09-24T21:30:19.806302Z,-0.051049000000000004,0.531717,-1.092825
2018-09-24T21:30:20.020302Z,-0.8925559999999999,-0.28386100000000003,0.879984
2018-09-24T21:30:20.226302Z,-0.507087,-0.66604,-0.546146
2018-09-24T21:30:20.419302Z,-0.187854,-0.11231400000000001,-0.739877
2018-09-24T21:30:20.606302Z,0.037006,0.46101000000000003,0.122829
2018-09-24T21:30:20.817302Z,0.7343850000000001,-1.005487,0.133863
2018-09-24T21:30:21.036302Z,0.361243,-0.6252770000000001,-0.465
2018-09-24T21:30:21.219302Z,0.557261,0.34429899999999997,-0.39707
2018-09-24T21:30:21.405302Z,0.49296599999999996,0.187772,1.0973950000000001
2018-09-24T21:30:21.622302Z,0.280595,-1.2228620000000001,-0.799894
2018-09-24T21:30:21.820302Z,0.11508299999999999,-0.9084110000000001,-0.09691
2018-09-24T21:30:22.023302Z,0.243232,-0.894983,0.9571040000000001
2018-09-24T21:30:22.217302Z,-0.163555,-0.338096,-0.031948000000000004
2018-09-24T21:30:22.421302Z,-0.122127,-0.214167,-0.04387
2018-09-24T21:30:22.619302Z,0.402963,-0.174622,-0.08418099999999999
2018-09-24T21:30:22.818302Z,1.349301,-0.674133,0.703084
2018-09-24T21:30:23.021302Z,1.1069,-1.020404,0.146759
2018-09-24T21:30:23.208302Z,-0.164627,0.599169,-0.191794
2018-09-24T21:30:23.425302Z,-0.289919,-0.335401,0.334391
2018-09-24T21:30:23.608302Z,-0.814906,-0.517073,1.1067040000000001
2018-09-24T21:30:23.823302Z,-0.49695900000000004,-0.38560300000000003,-0.667636
2018-09-24T21:30:24.023302Z,0.081082,-0.271095,1.18216
2018-09-24T21:30:24.222302Z,0.11123599999999999,-1.016533,0.904753
2018-09-24T21:30:24.422302Z,0.218835,-0.45996000000000004,-1.5640319999999999
2018-09-24T21:30:24.623302Z,0.28944000000000003,-0.565762,-0.051348000000000005
2018-09-24T21:30:24.823302Z,-0.21286300000000002,-1.281515,0.9557680000000001
2018-09-24T21:30:25.038302Z,0.263529,-1.113949,-0.742632
2018-09-24T21:30:25.230302Z,-0.011659000000000001,-0.351468,-0.114856
2018-09-24T21:30:25.424302Z,0.23229299999999997,-0.22165,0.802392
2018-09-24T21:30:25.620302Z,0.34121,-0.5580390000000001,-0.7450720000000001
2018-09-24T21:30:25.824302Z,0.831614,-0.436013,-0.631909
2018-09-24T21:30:26.011302Z,0.273833,0.31000700000000003,0.7112470000000001
2018-09-24T21:30:26.211302Z,0.295212,-0.549593,1.388472
2018-09-24T21:30:26.411302Z,0.071374,-0.75544,-0.900681
2018-09-24T21:30:26.623302Z,0.713713,-0.064089,0.359702
2018-09-24T21:30:26.829302Z,0.9671219999999999,-0.8371799999999999,1.7031020000000001
2018-09-24T21:30:27.025302Z,1.8878720000000002,-2.010818,0.167772
2018-09-24T21:30:27.229302Z,0.957625,-0.8444870000000001,0.5544140000000001
2018-09-24T21:30:27.422302Z,-0.378691,-0.346405,0.836938
2018-09-24T21:30:27.625302Z,-0.5808770000000001,-1.4118600000000001,0.4838
2018-09-24T21:30:27.825302Z,0.350786,-1.196825,-0.42396999999999996
2018-09-24T21:30:28.027302Z,-0.066103,-0.814434,1.244803
2018-09-24T21:30:28.213302Z,0.693678,-1.315395,-0.707465
2018-09-24T21:30:28.444302Z,0.062412,-0.743556,-0.306917
2018-09-24T21:30:28.626302Z,-0.810829,-0.093886,-0.079204
2018-09-24T21:30:28.829302Z,-2.318511,-2.189156,-0.020121
2018-09-24T21:30:29.013302Z,-1.5258209999999999,-1.531828,-0.23803400000000002
2018-09-24T21:30:29.223302Z,0.151885,-0.212668,0.282673
2018-09-24T21:30:29.428302Z,0.767057,0.112562,0.54901
2018-09-24T21:30:29.626302Z,0.5134340000000001,-0.583342,-0.296885
2018-09-24T21:30:29.902302Z,0.482519,0.268527,-0.13017
2018-09-24T21:30:30.029302Z,0.017082,0.7002189999999999,-0.336973
2018-09-24T21:30:30.231302Z,0.36209,0.43087299999999995,0.740006
2018-09-24T21:30:30.419302Z,0.812509,-0.218241,-1.070965
2018-09-24T21:30:30.624302Z,0.47349399999999997,0.265166,-0.174849
2018-09-24T21:30:30.829302Z,-0.319788,0.644465,0.406532
2018-09-24T21:30:31.027302Z,0.500269,-0.22003000000000003,1.053875
2018-09-24T21:30:31.229302Z,0.8327120000000001,0.026488,-0.861035
2018-09-24T21:30:31.419302Z,0.807307,0.781932,0.611919
2018-09-24T21:30:31.629302Z,-0.537503,0.028335000000000003,0.8496020000000001
2018-09-24T21:30:31.827302Z,0.00161,-1.561688,0.211286
2018-09-24T21:30:32.025302Z,0.263959,0.060532,0.014421999999999999
2018-09-24T21:30:32.229302Z,0.613854,-0.04697,0.45222799999999996
2018-09-24T21:30:32.431302Z,1.554891,-0.995014,0.427138
2018-09-24T21:30:32.630302Z,0.695967,-0.45444700000000005,-0.239377
2018-09-24T21:30:32.816302Z,-0.134635,0.42613199999999996,1.2018389999999999
2018-09-24T21:30:33.031302Z,-0.04319,-1.240266,1.326351
2018-09-24T21:30:33.230302Z,-0.056662,-0.758228,-1.1082239999999999
2018-09-24T21:30:33.439302Z,0.40569,-0.229039,-1.045788
2018-09-24T21:30:33.633302Z,0.38357600000000003,-0.270638,1.577002
2018-09-24T21:30:33.831302Z,1.019782,-1.5010709999999998,-1.0003520000000001
2018-09-24T21:30:34.016302Z,0.513987,-0.451904,-0.5281020000000001
2018-09-24T21:30:34.230302Z,0.46661499999999995,-0.242675,0.264915
2018-09-24T21:30:34.480302Z,-0.588547,-1.5998450000000002,0.884608
2018-09-24T21:30:34.656302Z,-0.317999,-0.612341,-1.071709
2018-09-24T21:30:34.858302Z,-0.13883299999999998,0.15475,-0.406426
2018-09-24T21:30:35.057302Z,0.133893,0.024659999999999998,1.198073
2018-09-24T21:30:35.257302Z,0.258495,-0.848842,-0.516768
2018-09-24T21:30:35.452302Z,0.45019499999999996,-0.14201,-0.412418
2018-09-24T21:30:35.658302Z,0.136994,0.195102,0.6532
2018-09-24T21:30:35.855302Z,-0.473733,-0.8940309999999999,1.394485
2018-09-24T21:30:36.058302Z,0.02962,-0.415637,-0.8945770000000001
2018-09-24T21:30:36.258302Z,-0.178768,0.336196,0.6387470000000001
2018-09-24T21:30:36.419302Z,0.140026,-0.555046,1.579991
2018-09-24T21:30:36.657302Z,1.1410120000000001,-1.399258,-0.616319
2018-09-24T21:30:36.860302Z,0.754473,-0.043219,-0.550095
2018-09-24T21:30:37.032302Z,0.640153,0.197977,1.218736
2018-09-24T21:30:37.233302Z,-0.057895,-1.5207030000000001,1.151249
2018-09-24T21:30:37.432302Z,-0.205571,-1.395327,-0.607559
2018-09-24T21:30:37.632302Z,0.293026,-0.15651900000000002,0.273975
2018-09-24T21:30:37.831302Z,-0.153628,0.22599299999999997,0.360412
2018-09-24T21:30:38.033302Z,1.3229360000000001,-2.270234,0.711167
2018-09-24T21:30:38.234302Z,-0.343557,-0.48753,-1.069914
2018-09-24T21:30:38.437302Z,0.462675,0.7275189999999999,0.22668400000000002
2018-09-24T21:30:38.631302Z,-0.024539,-0.8377819999999999,1.281207
2018-09-24T21:30:38.835302Z,0.108018,-2.238057,0.019048
2018-09-24T21:30:39.031302Z,0.119559,-0.613704,-0.917003
2018-09-24T21:30:39.221302Z,-0.032712,-0.389579,1.4545569999999999
2018-09-24T21:30:39.439302Z,0.48329700000000003,-1.593617,-0.287748
2018-09-24T21:30:39.636302Z,0.303871,-0.808146,-0.404996
2018-09-24T21:30:39.834302Z,0.313728,-0.198026,0.255486
2018-09-24T21:30:40.036302Z,0.029539999999999997,-0.6708689999999999,-0.7047479999999999
2018-09-24T21:30:40.223302Z,1.041735,-0.46306099999999994,-0.160929
2018-09-24T21:30:40.443302Z,1.256718,-0.6456430000000001,0.695142
2018-09-24T21:30:40.643302Z,1.41878,-1.7906330000000001,1.361803
2018-09-24T21:30:40.842302Z,1.105889,-1.432842,-0.200684
2018-09-24T21:30:41.036302Z,0.810121,-0.452758,0.592761
2018-09-24T21:30:41.237302Z,0.505788,-0.09132699999999999,0.601324
2018-09-24T21:30:41.437302Z,-0.636634,-1.271811,1.096221
2018-09-24T21:30:41.640302Z,0.54907,-0.389592,-1.010428
2018-09-24T21:30:41.833302Z,0.128425,0.101698,1.126177
2018-09-24T21:30:42.032302Z,-0.001076,-0.563673,1.273364
2018-09-24T21:30:42.237302Z,0.101382,-1.239945,-1.420359
2018-09-24T21:30:42.436302Z,0.751738,0.054325,-0.193604
2018-09-24T21:30:42.634302Z,0.344001,-0.156995,1.063576
2018-09-24T21:30:42.824302Z,-0.588545,-1.514032,0.927853
2018-09-24T21:30:43.040302Z,-0.154063,-1.050808,-0.9242440000000001
2018-09-24T21:30:43.245302Z,0.528363,-0.279818,1.510545
2018-09-24T21:30:43.471302Z,0.048743,-0.796146,0.36209
2018-09-24T21:30:43.638302Z,0.850651,-0.9879549999999999,-0.9370639999999999
2018-09-24T21:30:43.824302Z,0.610016,-0.6691779999999999,-0.31769200000000003
2018-09-24T21:30:44.036302Z,-0.131154,0.621031,0.857439
2018-09-24T21:30:44.238302Z,-0.096012,-1.320775,0.9477979999999999
2018-09-24T21:30:44.425302Z,-0.116782,-0.520456,-1.2833620000000001
2018-09-24T21:30:44.644302Z,-0.133852,0.037158,-1.140724
2018-09-24T21:30:44.839302Z,0.25259499999999996,-0.52518,1.432919
2018-09-24T21:30:45.042302Z,0.345385,-0.7803180000000001,-0.620797
2018-09-24T21:30:45.240302Z,1.184668,-0.289512,-0.708752
2018-09-24T21:30:45.447302Z,1.609383,-0.635219,0.8785209999999999
2018-09-24T21:30:45.640302Z,1.226665,-1.9869740000000002,1.119529
2018-09-24T21:30:45.846302Z,1.557016,-1.8655119999999998,0.199731
2018-09-24T21:30:46.044302Z,0.5693010000000001,-1.084416,-0.061773
2018-09-24T21:30:46.240302Z,-0.35521199999999997,-0.9862110000000001,0.219829
2018-09-24T21:30:46.446302Z,-0.120794,-0.734472,0.682391
2018-09-24T21:30:46.642302Z,0.329361,-0.421961,-0.710501
2018-09-24T21:30:46.838302Z,0.172235,0.004259000000000001,-0.45038599999999995
2018-09-24T21:30:47.042302Z,-0.38674000000000003,-0.134956,1.101032
2018-09-24T21:30:47.228302Z,0.028361,-1.026512,-1.140498
2018-09-24T21:30:47.441302Z,-0.287435,-0.22758499999999998,-0.290466
2018-09-24T21:30:47.643302Z,0.180648,0.14460699999999999,0.21617399999999998
2018-09-24T21:30:47.845302Z,-0.22336199999999998,0.07571699999999999,0.7488560000000001
2018-09-24T21:30:48.045302Z,0.043496,-0.692896,-0.947817
2018-09-24T21:30:48.277302Z,0.420263,-0.091178,0.336279
2018-09-24T21:30:48.447302Z,0.395637,-0.128599,1.230523
2018-09-24T21:30:48.645302Z,-0.852994,-1.429734,0.8357120000000001
2018-09-24T21:30:48.829302Z,0.48361099999999996,-0.388192,-0.43733299999999997
2018-09-24T21:30:49.045302Z,0.8956870000000001,-0.415945,0.8796360000000001
2018-09-24T21:30:49.244302Z,0.838925,-1.264357,1.457215
2018-09-24T21:30:49.444302Z,0.9842299999999999,-1.223272,-0.628201
2018-09-24T21:30:49.644302Z,0.698501,0.331872,0.751974
2018-09-24T21:30:49.845302Z,0.540726,-0.584087,1.534617
2018-09-24T21:30:50.046302Z,0.195654,-1.9522509999999997,0.138551
2018-09-24T21:30:50.242302Z,0.138212,-0.714824,-1.020044
2018-09-24T21:30:50.440302Z,0.40825,0.42768500000000004,-0.144481
2018-09-24T21:30:50.645302Z,0.054318,-0.024659,1.584217
2018-09-24T21:30:50.851302Z,0.8800120000000001,-2.017177,0.14691400000000002
2018-09-24T21:30:51.045302Z,0.8449690000000001,-0.791193,-0.585087
2018-09-24T21:30:51.243302Z,-0.5959909999999999,-0.015519999999999999,1.2350709999999998
2018-09-24T21:30:51.478302Z,-0.181085,-1.6898950000000001,0.546883
2018-09-24T21:30:51.647302Z,0.36026199999999997,-0.691624,-1.411175
2018-09-24T21:30:51.846302Z,0.41171199999999997,-0.36184099999999997,0.283351
2018-09-24T21:30:52.047302Z,1.220384,-1.346644,0.8315459999999999
2018-09-24T21:30:52.246302Z,0.763598,-1.272263,-0.672519
2018-09-24T21:30:52.432302Z,0.485009,-0.056798,-0.652221
2018-09-24T21:30:52.646302Z,0.103723,0.053679,1.431441
2018-09-24T21:30:52.844302Z,-0.33114,-0.517396,-0.812141
2018-09-24T21:30:53.048302Z,-0.019194,0.09593600000000001,-0.559017
2018-09-24T21:30:53.247302Z,0.17290999999999998,-0.102993,0.638491
2018-09-24T21:30:53.448302Z,-0.098963,-0.8382200000000001,2.045433
2018-09-24T21:30:53.643302Z,0.890972,-0.9220299999999999,-0.41985100000000003
2018-09-24T21:30:53.848302Z,0.9995229999999999,0.326204,0.134681
2018-09-24T21:30:54.069302Z,0.70005,-0.37203,1.367633
2018-09-24T21:30:54.246302Z,0.122599,-1.4792,0.25226
2018-09-24T21:30:54.448302Z,-0.20676599999999998,-0.585072,-1.04465
2018-09-24T21:30:54.648302Z,0.587681,0.272235,1.712914
2018-09-24T21:30:54.849302Z,0.093723,0.037962,0.22427800000000003
2018-09-24T21:30:55.049302Z,0.129565,-1.768262,-0.142112
2018-09-24T21:30:55.319302Z,0.262913,0.26447600000000004,-1.639189
2018-09-24T21:30:55.448302Z,0.22653299999999998,0.41696400000000006,1.6486180000000001
2018-09-24T21:30:55.665302Z,-0.269185,-1.403445,1.122539
2018-09-24T21:30:55.846302Z,0.518369,-1.0931170000000001,-0.8364879999999999
2018-09-24T21:30:56.051302Z,0.0437,0.312942,0.525479
2018-09-24T21:30:56.251302Z,0.26423,-1.3685200000000002,1.184727
2018-09-24T21:30:56.450302Z,0.340569,-1.0408309999999998,-0.620214
2018-09-24T21:30:56.651302Z,0.588151,-0.641981,-0.696607
2018-09-24T21:30:56.852302Z,-0.097584,-0.79795,1.178398
2018-09-24T21:30:57.051302Z,0.352394,-1.192344,-0.341748
2018-09-24T21:30:57.247302Z,0.744747,-0.21147600000000003,-0.634563
2018-09-24T21:30:57.450302Z,0.996138,-0.31549499999999997,0.637012
2018-09-24T21:30:57.652302Z,1.921256,-2.993468,1.581392
2018-09-24T21:30:57.848302Z,1.036522,-1.615687,-0.393437
2018-09-24T21:30:58.052302Z,0.9567399999999999,-0.884674,-0.511397
2018-09-24T21:30:58.250302Z,0.539057,-0.5803510000000001,1.167484
2018-09-24T21:30:58.455302Z,0.013235,-1.3719379999999999,-0.0005099999999999999
2018-09-24T21:30:58.653302Z,0.625323,-0.802496,-0.217146
2018-09-24T21:30:58.938302Z,0.061642999999999996,0.423936,-0.30549699999999996
2018-09-24T21:30:59.038302Z,-0.205258,-0.435022,1.339863
2018-09-24T21:30:59.253302Z,-0.061332000000000005,-0.819793,-0.75885
2018-09-24T21:30:59.437302Z,0.284018,-0.308193,-0.473892
2018-09-24T21:30:59.650302Z,-0.285177,0.20435599999999998,0.957988
2018-09-24T21:30:59.855302Z,-0.33053899999999997,-1.760071,1.135155
2018-09-24T21:31:00.053302Z,0.014228999999999999,0.044372,-0.71103
2018-09-24T21:31:00.254302Z,0.243191,-0.19376,1.194131
2018-09-24T21:31:00.476302Z,0.587596,-1.368003,0.45302200000000004
2018-09-24T21:31:00.655302Z,0.547441,-0.7558739999999999,-0.7131609999999999
2018-09-24T21:31:00.858302Z,0.144629,-0.157589,0.6208670000000001
2018-09-24T21:31:01.053302Z,-0.311209,-0.733301,0.650551
2018-09-24T21:31:01.257302Z,0.135277,-0.52656,-0.496449
2018-09-24T21:31:01.457302Z,0.07771900000000001,-0.196633,-0.519722
2018-09-24T21:31:01.656302Z,-0.598858,0.23540999999999998,0.650938
2018-09-24T21:31:01.854302Z,-0.8861399999999999,-1.426264,-0.225124
2018-09-24T21:31:02.055302Z,-0.339549,-0.091081,-0.792503
2018-09-24T21:31:02.258302Z,0.321626,0.207702,-0.207986
2018-09-24T21:31:02.450302Z,0.078098,-1.038514,0.22467399999999998
2018-09-24T21:31:02.654302Z,0.614209,-0.609597,-0.612846
2018-09-24T21:31:02.843302Z,1.358325,-0.40423000000000003,-0.653658
2018-09-24T21:31:03.055302Z,1.112309,-0.49836800000000003,1.092473
2018-09-24T21:31:03.255302Z,1.390879,-1.38144,0.22826999999999997
2018-09-24T21:31:03.453302Z,1.229481,-1.376441,0.298192
2018-09-24T21:31:03.654302Z,0.29891599999999996,-1.2366190000000001,0.576042
2018-09-24T21:31:03.856302Z,0.725532,-0.388511,0.479807
2018-09-24T21:31:04.044302Z,-0.7534930000000001,-1.471938,-0.08359
2018-09-24T21:31:04.256302Z,-0.300723,-0.6036590000000001,-0.6029220000000001
2018-09-24T21:31:04.451302Z,-0.682589,0.299139,0.023724000000000002
2018-09-24T21:31:04.657302Z,-0.10544400000000001,0.174848,0.746214
2018-09-24T21:31:04.854302Z,0.134716,-1.073791,-0.8170609999999999
2018-09-24T21:31:05.044302Z,0.475087,0.07535399999999999,-0.335635
2018-09-24T21:31:05.243302Z,0.39924,-0.349912,0.569086
2018-09-24T21:31:05.454302Z,-0.817157,-0.022237,0.390725
2018-09-24T21:31:05.659302Z,0.18254,-0.813248,-1.050738
2018-09-24T21:31:05.939302Z,-0.030633999999999998,0.060756,0.22785
2018-09-24T21:31:06.083302Z,-0.066549,-0.13855,0.719715
2018-09-24T21:31:06.289302Z,-0.654329,-1.353293,0.263133
2018-09-24T21:31:06.532302Z,-1.334296,-2.156847,-0.313998
2018-09-24T21:31:06.687302Z,-0.5245479999999999,-2.1261799999999997,0.706836
2018-09-24T21:31:06.884302Z,-1.443926,-1.9870919999999999,0.648095
2018-09-24T21:31:07.084302Z,-0.8496229999999999,-1.163101,0.14796700000000002
2018-09-24T21:31:07.285302Z,0.700142,-0.19767300000000002,0.336514
2018-09-24T21:31:07.483302Z,1.7556889999999998,-0.743164,0.375075
2018-09-24T21:31:07.685302Z,2.03709,0.29601700000000003,-0.698638
2018-09-24T21:31:07.854302Z,1.367625,0.46162299999999995,0.9015549999999999
2018-09-24T21:31:08.061302Z,0.158472,-0.564377,0.958384
2018-09-24T21:31:08.260302Z,0.793503,-0.669253,-1.285165
2018-09-24T21:31:08.508302Z,0.916534,0.112553,-0.184374
2018-09-24T21:31:08.660302Z,0.6208130000000001,0.35638000000000003,0.556828
2018-09-24T21:31:08.868302Z,1.4870860000000001,-0.942082,-0.612974
2018-09-24T21:31:09.057302Z,0.966233,-0.15121600000000002,-0.600021
2018-09-24T21:31:09.260302Z,0.24382800000000002,-0.19655699999999998,0.876532
2018-09-24T21:31:09.463302Z,-0.191119,-0.062113,0.556396
2018-09-24T21:31:09.662302Z,0.1769,-0.44488199999999994,-0.361183
2018-09-24T21:31:09.920302Z,-0.585377,-0.13861500000000002,0.599014
2018-09-24T21:31:10.047302Z,-0.898658,-0.293784,0.060349
2018-09-24T21:31:10.277302Z,-0.342641,-1.8011,0.889934
2018-09-24T21:31:10.449302Z,0.719371,-0.46596000000000004,0.025825
2018-09-24T21:31:10.660302Z,1.532598,0.49290500000000004,0.26216100000000003
2018-09-24T21:31:10.863302Z,1.592948,-0.5038729999999999,1.148395
2018-09-24T21:31:11.063302Z,0.44797600000000004,-0.711967,-0.389515
2018-09-24T21:31:11.263302Z,0.677786,0.500897,0.23983200000000002
2018-09-24T21:31:11.462302Z,0.551474,-0.06145,0.671192
2018-09-24T21:31:11.649302Z,1.360315,-1.05691,0.750217
2018-09-24T21:31:11.858302Z,0.912382,-0.052580999999999996,-1.372354
2018-09-24T21:31:12.050302Z,1.144454,0.44263100000000005,1.253865
2018-09-24T21:31:12.265302Z,-0.670538,-0.8847370000000001,0.9861110000000001
2018-09-24T21:31:12.462302Z,0.28079499999999996,-1.116416,-1.113618
2018-09-24T21:31:12.667302Z,0.028569,0.18526099999999998,-1.093273
2018-09-24T21:31:12.850302Z,-0.248052,0.396832,1.645939
2018-09-24T21:31:13.064302Z,0.992238,-1.52813,0.123451
2018-09-24T21:31:13.264302Z,0.29834,-0.519892,-0.840975
2018-09-24T21:31:13.465302Z,1.049535,0.080731,-0.25205900000000003
2018-09-24T21:31:13.660302Z,-0.640266,-0.813821,1.25193
2018-09-24T21:31:13.851302Z,0.252731,-0.7742399999999999,-1.298284
2018-09-24T21:31:14.051302Z,0.502045,0.202647,-1.024602
2018-09-24T21:31:14.251302Z,-0.030657,0.373033,1.146842
2018-09-24T21:31:14.466302Z,0.711542,-1.018312,-0.6985600000000001
2018-09-24T21:31:14.665302Z,0.40738800000000003,-0.45988,-0.7293970000000001
2018-09-24T21:31:14.864302Z,0.432179,0.438734,0.432673
2018-09-24T21:31:15.064302Z,-1.655097,0.44838900000000004,0.790524
2018-09-24T21:31:15.266302Z,-1.56313,-1.27086,-0.342484
2018-09-24T21:31:15.465302Z,-0.3823,-0.35388800000000004,-0.17127799999999999
2018-09-24T21:31:15.667302Z,0.9790209999999999,0.737334,0.17638
2018-09-24T21:31:15.862302Z,0.312078,0.286038,1.1841549999999998
2018-09-24T21:31:16.067302Z,1.0531030000000001,-0.271017,-0.595568
2018-09-24T21:31:16.253302Z,1.060648,0.7313189999999999,-0.097653
2018-09-24T21:31:16.466302Z,1.091294,0.235762,1.351017
2018-09-24T21:31:16.653302Z,-0.474821,-0.371096,0.230866
2018-09-24T21:31:16.936302Z,0.395864,0.014485,-0.9483889999999999
2018-09-24T21:31:17.067302Z,0.064467,0.461009,1.013837
2018-09-24T21:31:17.269302Z,0.286812,-0.62748,0.589063
2018-09-24T21:31:17.467302Z,0.217511,-0.638079,-0.665887
2018-09-24T21:31:17.667302Z,0.547045,0.6600229999999999,0.22210100000000002
2018-09-24T21:31:17.855302Z,0.27405,0.435246,0.932908
2018-09-24T21:31:18.067302Z,0.13115,-1.614895,0.35547399999999996
2018-09-24T21:31:18.268302Z,0.93686,-0.721947,-0.48549200000000003
2018-09-24T21:31:18.528302Z,0.574066,0.510686,0.12474500000000001
2018-09-24T21:31:18.669302Z,-0.582745,-0.06435700000000001,1.096271
2018-09-24T21:31:18.856302Z,-0.764209,-0.990721,-0.81825
2018-09-24T21:31:19.053302Z,0.018978000000000002,-0.47347700000000004,-0.29175700000000004
2018-09-24T21:31:19.271302Z,0.272064,1.1721700000000002,-0.045147
2018-09-24T21:31:19.472302Z,0.393413,0.109992,1.365583
2018-09-24T21:31:19.656302Z,0.282476,-1.8554220000000001,0.343669
2018-09-24T21:31:19.869302Z,0.331935,-0.104921,-1.364058
2018-09-24T21:31:20.065302Z,0.349578,0.8280129999999999,0.713644
2018-09-24T21:31:20.256302Z,0.42236,-0.33679899999999996,0.79569
2018-09-24T21:31:20.472302Z,0.38673,-0.624524,-0.9631360000000001
2018-09-24T21:31:20.669302Z,0.675542,0.042304,-1.055728
2018-09-24T21:31:20.870302Z,-0.101345,0.46071599999999996,1.217334
2018-09-24T21:31:21.082302Z,0.224086,-1.468855,0.19902
2018-09-24T21:31:21.272302Z,0.789198,-0.472304,-0.73997
2018-09-24T21:31:21.472302Z,0.41165,0.288002,-0.396631
2018-09-24T21:31:21.672302Z,0.8383139999999999,-0.777821,0.5967180000000001
2018-09-24T21:31:21.872302Z,0.39095100000000005,-0.282209,-0.706344
2018-09-24T21:31:22.058302Z,0.781762,0.25962399999999997,-0.489516
2018-09-24T21:31:22.274302Z,-0.041139,0.46295600000000003,0.646487
2018-09-24T21:31:22.468302Z,-0.345801,-1.038999,-0.417375
2018-09-24T21:31:22.702302Z,0.228564,-0.6005189999999999,-0.344939
2018-09-24T21:31:22.872302Z,-0.092024,0.606349,-0.34224499999999997
2018-09-24T21:31:23.071302Z,0.32912399999999997,0.580645,0.779777
2018-09-24T21:31:23.269302Z,0.088114,-0.328099,-0.684768
2018-09-24T21:31:23.474302Z,0.479517,-0.168007,-0.340644
2018-09-24T21:31:23.673302Z,0.5145649999999999,0.419109,-0.033708
2018-09-24T21:31:23.875302Z,0.259641,0.29841100000000004,1.0632780000000002
2018-09-24T21:31:24.069302Z,-0.08607000000000001,-0.011247,-0.849051
2018-09-24T21:31:24.270302Z,0.38716300000000003,0.467922,-0.251931
2018-09-24T21:31:24.459302Z,0.51812,0.22270500000000001,0.750908
2018-09-24T21:31:24.670302Z,0.8786209999999999,-0.617959,1.010586
2018-09-24T21:31:24.871302Z,0.868561,0.145537,-1.035195
2018-09-24T21:31:25.074302Z,0.58382,0.42297799999999997,0.5286649999999999
2018-09-24T21:31:25.274302Z,-0.21643800000000002,0.08048999999999999,1.135407
2018-09-24T21:31:25.476302Z,0.008735,-1.2538129999999998,-0.17841600000000002
2018-09-24T21:31:25.677302Z,0.693339,0.476498,0.05934
2018-09-24T21:31:25.875302Z,0.430158,0.328785,1.3164420000000001
2018-09-24T21:31:26.082302Z,0.988809,-1.31413,0.704785
2018-09-24T21:31:26.278302Z,0.238554,-0.8360559999999999,-0.927434
2018-09-24T21:31:26.462302Z,0.425146,0.27109099999999997,0.185521
2018-09-24T21:31:26.662302Z,0.43363199999999996,-0.294402,0.9343600000000001
2018-09-24T21:31:26.868302Z,0.105728,-0.745467,-0.077444
2018-09-24T21:31:27.074302Z,0.175636,-0.534138,-0.123652
2018-09-24T21:31:27.262302Z,0.43019700000000005,0.33753,0.013040000000000001
2018-09-24T21:31:27.462302Z,-0.425914,0.07835700000000001,0.776361
2018-09-24T21:31:27.678302Z,0.336063,-0.6120979999999999,-0.588812
2018-09-24T21:31:27.880302Z,0.254434,-0.629446,-0.362935
2018-09-24T21:31:28.140302Z,-0.251277,-0.5934659999999999,-0.15751600000000002
2018-09-24T21:31:28.277302Z,-0.403233,-0.14388099999999998,0.354127
2018-09-24T21:31:28.470302Z,0.607019,0.42561499999999997,-0.257681
2018-09-24T21:31:28.676302Z,0.994763,0.265262,0.004251
2018-09-24T21:31:28.875302Z,1.269519,-0.034383,1.365348
2018-09-24T21:31:29.074302Z,0.65955,-0.647017,-0.8775430000000001
2018-09-24T21:31:29.277302Z,1.067024,0.021422,-0.493638
2018-09-24T21:31:29.479302Z,1.272441,0.43666800000000006,0.148084
2018-09-24T21:31:29.679302Z,-0.033551,-0.67937,0.117379
2018-09-24T21:31:29.874302Z,0.587258,-0.5721189999999999,-0.809675
2018-09-24T21:31:30.075302Z,0.829982,0.3745,-0.607117
2018-09-24T21:31:30.265302Z,0.380813,0.32013,0.950522
2018-09-24T21:31:30.476302Z,0.846636,-0.620387,-0.481171
2018-09-24T21:31:30.674302Z,0.761848,0.005727,-0.9561
