Datetime,accx,accy,accz
2018-09-27T21:09:26.904304Z,-0.02,-0.13,-0.18
2018-09-27T21:09:27.081304Z,0.07,0.08,0.03
2018-09-27T21:09:27.293304Z,-0.3,0.19,-0.2
2018-09-27T21:09:27.481304Z,0.36,0.17,1.08
2018-09-27T21:09:27.683304Z,-0.18,-0.19,-0.06
2018-09-27T21:09:27.862304Z,-0.55,0.41,-0.07
2018-09-27T21:09:28.055304Z,0.57,-1.54,1.52
2018-09-27T21:09:28.309304Z,0.09,0.02,3.2
2018-09-27T21:09:28.474304Z,-0.03,0.62,0.96
2018-09-27T21:09:28.685304Z,0.61,-0.84,2.98
2018-09-27T21:09:28.887304Z,-0.43,-0.28,0.69
2018-09-27T21:09:29.065304Z,0.12,1.13,1.09
2018-09-27T21:09:29.270304Z,0.44,0.14,0.95
2018-09-27T21:09:29.473304Z,0.89,-0.25,-2.06
2018-09-27T21:09:29.673304Z,-0.11,0.82,1.05
2018-09-27T21:09:29.853304Z,1.06,0.32,0.95
2018-09-27T21:09:30.063304Z,-0.8,-1.7,-0.82
2018-09-27T21:09:30.251304Z,0.51,-0.39,0.83
2018-09-27T21:09:30.445304Z,0.22,1.22,2.4
2018-09-27T21:09:30.645304Z,0.61,0.42,-0.16
2018-09-27T21:09:30.868304Z,-0.21,-0.21,-0.76
2018-09-27T21:09:31.079304Z,0.32,-1.39,1.33
2018-09-27T21:09:31.268304Z,-0.54,0.27,-0.26
2018-09-27T21:09:31.465304Z,-0.03,0.71,0.61
2018-09-27T21:09:31.694304Z,-0.01,0.55,-0.81
2018-09-27T21:09:31.868304Z,-0.27,-0.9,-1.21
2018-09-27T21:09:32.069304Z,-0.8,0.87,0.54
2018-09-27T21:09:32.268304Z,0.84,-0.14,-0.68
2018-09-27T21:09:32.469304Z,-0.75,-1.96,2.04
2018-09-27T21:09:32.668304Z,-0.13,-0.6,0.26
2018-09-27T21:09:32.863304Z,-0.11,0.73,0.53
2018-09-27T21:09:33.047304Z,-0.12,-0.17,-0.22
2018-09-27T21:09:33.244304Z,-0.75,0.04,-1.15
2018-09-27T21:09:33.470304Z,0.12,0.33,-0.21
2018-09-27T21:09:33.673304Z,0.3,0.05,-0.56
2018-09-27T21:09:33.874304Z,0.07,0.55,1.17
2018-09-27T21:09:34.071304Z,0.34,-0.74,0.15
2018-09-27T21:09:34.252304Z,-0.42,0.37,-0.72
2018-09-27T21:09:34.447304Z,0.36,0.35,0.53
2018-09-27T21:09:34.650304Z,0.0,-0.58,2.52
2018-09-27T21:09:34.844304Z,-0.01,-0.49,0.09
2018-09-27T21:09:35.037304Z,0.24,0.93,0.73
2018-09-27T21:09:35.244304Z,-0.2,-0.37,-0.06
2018-09-27T21:09:35.474304Z,0.92,-0.2,0.09
2018-09-27T21:09:35.633304Z,0.19,0.7,0.54
2018-09-27T21:09:35.837304Z,-0.34,-0.32,0.7
2018-09-27T21:09:36.050304Z,0.39,-0.54,-0.99
2018-09-27T21:09:36.225304Z,-0.36,-0.24,-0.69
2018-09-27T21:09:36.427304Z,0.61,0.24,0.03
2018-09-27T21:09:36.653304Z,-0.42,-0.06,-0.5
2018-09-27T21:09:36.841304Z,-0.26,-0.86,0.58
2018-09-27T21:09:37.046304Z,-0.56,-0.53,-1.39
2018-09-27T21:09:37.224304Z,-0.11,0.62,-0.28
2018-09-27T21:09:37.427304Z,0.0,0.72,0.25
2018-09-27T21:09:37.649304Z,0.52,-1.15,1.28
2018-09-27T21:09:37.843304Z,-0.41,-0.17,1.61
2018-09-27T21:09:38.059304Z,0.26,0.38,0.41
2018-09-27T21:09:38.262304Z,0.22,0.37,0.29
2018-09-27T21:09:38.434304Z,-0.83,-0.61,-1.35
2018-09-27T21:09:38.635304Z,-0.18,0.73,0.75
2018-09-27T21:09:38.858304Z,0.3,0.29,0.15
2018-09-27T21:09:39.072304Z,0.79,-1.07,0.98
2018-09-27T21:09:39.215304Z,-0.78,-0.08,-0.92
2018-09-27T21:09:39.416304Z,-0.27,0.71,0.18
2018-09-27T21:09:39.614304Z,0.09,-1.24,3.73
2018-09-27T21:09:39.815304Z,0.31,-0.63,-1.73
2018-09-27T21:09:40.013304Z,-0.01,1.9,0.86
2018-09-27T21:09:40.240304Z,0.69,-0.86,-0.11
2018-09-27T21:09:40.422304Z,-0.39,-0.43,-1.38
2018-09-27T21:09:40.620304Z,0.62,0.9,0.87
2018-09-27T21:09:40.823304Z,-0.56,0.14,0.24
2018-09-27T21:09:41.025304Z,-0.31,-1.54,-1.16
2018-09-27T21:09:41.233304Z,0.26,1.89,0.77
2018-09-27T21:09:41.433304Z,0.18,-0.21,-0.51
2018-09-27T21:09:41.632304Z,-0.81,-2.79,-3.06
2018-09-27T21:09:41.838304Z,-0.87,1.34,-0.94
2018-09-27T21:09:42.031304Z,0.04,0.2,0.18
2018-09-27T21:09:42.235304Z,0.36,-1.57,-4.04
2018-09-27T21:09:42.412304Z,-0.12,0.36,-0.76
2018-09-27T21:09:42.632304Z,0.0,0.17,-0.36
2018-09-27T21:09:42.812304Z,0.12,-1.59,-1.05
2018-09-27T21:09:43.003304Z,-1.19,0.17,-0.14
2018-09-27T21:09:43.230304Z,-1.19,0.21,0.61
2018-09-27T21:09:43.414304Z,0.48,0.71,0.48
2018-09-27T21:09:43.614304Z,-0.25,0.21,0.01
2018-09-27T21:09:43.809304Z,0.28,0.16,0.04
2018-09-27T21:09:44.029304Z,-0.38,-0.98,1.95
2018-09-27T21:09:44.203304Z,-0.26,-0.22,-0.36
2018-09-27T21:09:44.432304Z,0.31,0.76,0.53
2018-09-27T21:09:44.605304Z,0.51,0.4,0.7
2018-09-27T21:09:44.805304Z,0.16,-1.27,-2.87
2018-09-27T21:09:44.989304Z,-0.32,0.63,-0.21
2018-09-27T21:09:45.187304Z,-0.01,0.88,-0.36
2018-09-27T21:09:45.387304Z,-0.1,-1.51,1.82
2018-09-27T21:09:45.593304Z,-0.29,-0.41,-0.1
2018-09-27T21:09:45.795304Z,-0.57,0.42,0.21
2018-09-27T21:09:45.992304Z,0.81,0.33,1.54
2018-09-27T21:09:46.194304Z,-0.31,-1.08,-1.84
2018-09-27T21:09:46.398304Z,0.2,0.53,0.16
2018-09-27T21:09:46.601304Z,-0.31,0.98,0.82
2018-09-27T21:09:46.806304Z,-1.32,-2.68,-1.68
2018-09-27T21:09:46.982304Z,0.3,1.07,-1.8
2018-09-27T21:09:47.203304Z,0.05,0.62,0.65
2018-09-27T21:09:47.394304Z,0.2,-1.49,-0.28
2018-09-27T21:09:47.583304Z,-0.48,0.54,-1.37
2018-09-27T21:09:47.776304Z,-0.04,0.61,0.2
2018-09-27T21:09:47.999304Z,-0.5,-1.33,-0.94
2018-09-27T21:09:48.198304Z,0.56,0.47,-1.17
2018-09-27T21:09:48.385304Z,0.26,0.89,0.28
2018-09-27T21:09:48.586304Z,0.71,-1.38,1.06
2018-09-27T21:09:48.793304Z,-1.32,0.21,-1.41
2018-09-27T21:09:48.992304Z,-0.03,0.29,1.06
2018-09-27T21:09:49.211304Z,-0.96,-1.3,0.1
2018-09-27T21:09:49.388304Z,0.58,-0.06,-2.21
2018-09-27T21:09:49.572304Z,-0.33,1.55,1.2
2018-09-27T21:09:49.808304Z,0.71,-2.35,-0.06
2018-09-27T21:09:50.014304Z,-0.62,0.6,-1.05
2018-09-27T21:09:50.191304Z,0.81,0.83,0.34
2018-09-27T21:09:50.412304Z,0.6,-0.22,4.35
2018-09-27T21:09:50.612304Z,-0.19,-0.33,-0.57
2018-09-27T21:09:50.812304Z,0.02,0.7,1.52
2018-09-27T21:09:50.972304Z,-0.39,-0.07,-0.09
2018-09-27T21:09:51.172304Z,0.78,0.35,-1.89
2018-09-27T21:09:51.390304Z,-0.36,0.46,-1.81
2018-09-27T21:09:51.587304Z,-0.56,0.39,-1.38
2018-09-27T21:09:51.810304Z,-0.32,-0.08,-0.33
2018-09-27T21:09:51.988304Z,-0.25,-0.03,-0.21
2018-09-27T21:09:52.182304Z,-0.07,0.1,-0.02
2018-09-27T21:09:52.377304Z,0.05,-0.02,0.39
2018-09-27T21:09:52.574304Z,0.15,0.02,-0.41
2018-09-27T21:09:52.774304Z,0.07,0.21,-0.29
2018-09-27T21:09:52.954304Z,-0.33,-0.06,2.84
2018-09-27T21:09:53.162304Z,-0.22,-0.53,-0.4
2018-09-27T21:09:53.365304Z,0.13,0.26,-1.1
2018-09-27T21:09:53.558304Z,-0.36,0.57,0.13
2018-09-27T21:09:53.773304Z,0.8,-0.06,0.91
2018-09-27T21:09:53.983304Z,0.59,-0.84,-0.17
2018-09-27T21:09:54.164304Z,-0.21,0.23,-0.7
2018-09-27T21:09:54.386304Z,0.09,0.41,0.26
2018-09-27T21:09:54.588304Z,0.07,-0.1,1.18
2018-09-27T21:09:54.771304Z,-0.2,0.22,0.83
2018-09-27T21:09:54.969304Z,-0.17,0.0,-0.15
2018-09-27T21:09:55.171304Z,-0.05,0.18,-0.07
2018-09-27T21:09:55.365304Z,0.01,0.21,0.56
2018-09-27T21:09:55.568304Z,0.32,-0.79,2.04
2018-09-27T21:09:55.750304Z,-0.09,-0.41,0.28
2018-09-27T21:09:55.947304Z,0.06,0.72,0.74
2018-09-27T21:09:56.173304Z,0.4,0.19,0.19
2018-09-27T21:09:56.371304Z,-1.51,-1.54,-0.97
2018-09-27T21:09:56.547304Z,0.58,0.26,0.67
2018-09-27T21:09:56.755304Z,0.12,0.62,-0.88
2018-09-27T21:09:56.954304Z,-0.85,0.05,1.13
2018-09-27T21:09:57.156304Z,0.69,-0.84,1.85
2018-09-27T21:09:57.349304Z,-0.93,0.78,-2.77
2018-09-27T21:09:57.565304Z,-0.77,0.27,-0.28
2018-09-27T21:09:57.749304Z,0.2,0.13,0.1
2018-09-27T21:09:57.944304Z,-0.46,0.1,0.89
2018-09-27T21:09:58.150304Z,-0.05,-0.06,-0.36
2018-09-27T21:09:58.355304Z,-0.04,0.05,-0.11
2018-09-27T21:09:58.552304Z,0.15,0.24,-0.03
2018-09-27T21:09:58.731304Z,0.0,0.29,0.04
2018-09-27T21:09:58.932304Z,-0.5,-1.25,-0.33
2018-09-27T21:09:59.130304Z,0.09,-0.45,0.92
2018-09-27T21:09:59.345304Z,0.14,0.74,0.83
2018-09-27T21:09:59.528304Z,0.21,0.69,0.08
2018-09-27T21:09:59.729304Z,0.17,-1.47,-0.1
2018-09-27T21:09:59.949304Z,-0.57,0.42,0.28
2018-09-27T21:10:00.145304Z,0.11,0.46,-0.02
2018-09-27T21:10:00.329304Z,0.09,0.27,1.2
2018-09-27T21:10:00.533304Z,0.69,-0.61,1.76
2018-09-27T21:10:00.723304Z,-0.38,0.36,-0.8
2018-09-27T21:10:00.913304Z,0.07,-0.19,-0.62
2018-09-27T21:10:01.136304Z,0.0,0.29,0.33
2018-09-27T21:10:01.313304Z,-0.11,0.05,0.18
2018-09-27T21:10:01.536304Z,-0.3,0.12,-0.1
2018-09-27T21:10:01.734304Z,0.26,0.39,0.24
2018-09-27T21:10:01.939304Z,-0.46,-1.06,-0.12
2018-09-27T21:10:02.123304Z,-0.09,-0.42,-0.06
2018-09-27T21:10:02.338304Z,0.15,0.63,0.52
2018-09-27T21:10:02.541304Z,-0.27,0.34,-0.45
2018-09-27T21:10:02.713304Z,0.21,0.62,-1.23
2018-09-27T21:10:02.916304Z,0.46,-0.26,-1.42
2018-09-27T21:10:03.135304Z,0.62,0.62,0.12
2018-09-27T21:10:03.314304Z,-0.1,0.38,0.53
2018-09-27T21:10:03.519304Z,-0.26,-1.1,-1.92
2018-09-27T21:10:03.723304Z,0.57,-0.02,-1.29
2018-09-27T21:10:03.903304Z,0.09,0.55,0.95
2018-09-27T21:10:04.103304Z,-0.48,-1.21,-1.28
2018-09-27T21:10:04.347304Z,-0.21,-0.05,-1.28
2018-09-27T21:10:04.522304Z,-0.03,0.5,0.68
2018-09-27T21:10:04.703304Z,-1.06,-1.21,3.67
2018-09-27T21:10:04.904304Z,-0.19,-0.8,0.2
2018-09-27T21:10:05.106304Z,1.57,0.87,-1.3
2018-09-27T21:10:05.304304Z,0.35,0.86,-0.55
2018-09-27T21:10:05.504304Z,-0.31,0.12,-1.28
2018-09-27T21:10:05.706304Z,0.5,-0.97,-1.21
2018-09-27T21:10:05.906304Z,-0.72,0.65,0.86
2018-09-27T21:10:06.106304Z,0.03,-0.06,-0.01
2018-09-27T21:10:06.312304Z,0.49,-0.63,1.73
2018-09-27T21:10:06.512304Z,-0.56,-0.66,-1.01
2018-09-27T21:10:06.705304Z,0.59,1.6,0.53
2018-09-27T21:10:06.910304Z,-0.52,0.09,0.65
2018-09-27T21:10:07.112304Z,1.15,-1.77,-0.24
2018-09-27T21:10:07.313304Z,-0.6,0.46,-0.68
2018-09-27T21:10:07.503304Z,0.2,0.11,-0.1
2018-09-27T21:10:07.714304Z,0.49,1.01,-0.81
2018-09-27T21:10:07.891304Z,-0.04,-0.82,-0.29
2018-09-27T21:10:08.103304Z,0.34,0.48,-0.38
2018-09-27T21:10:08.287304Z,0.63,-0.08,-0.19
2018-09-27T21:10:08.507304Z,-0.08,-0.02,0.41
2018-09-27T21:10:08.711304Z,0.27,0.04,0.56
2018-09-27T21:10:08.913304Z,-0.17,0.0,-0.64
2018-09-27T21:10:09.087304Z,0.19,0.5,0.06
2018-09-27T21:10:09.290304Z,0.08,-0.61,0.07
2018-09-27T21:10:09.488304Z,-0.16,0.22,0.13
2018-09-27T21:10:09.689304Z,0.09,0.02,-0.45
2018-09-27T21:10:09.889304Z,0.08,0.44,-0.06
2018-09-27T21:10:10.091304Z,-0.53,0.16,-0.51
2018-09-27T21:10:10.291304Z,0.2,0.27,0.3
2018-09-27T21:10:10.504304Z,0.64,-0.85,-1.8
2018-09-27T21:10:10.684304Z,-0.28,0.48,-0.64
2018-09-27T21:10:10.907304Z,0.17,0.52,-0.07
2018-09-27T21:10:11.084304Z,-0.98,-1.08,2.64
2018-09-27T21:10:11.309304Z,0.39,-0.58,0.93
2018-09-27T21:10:11.494304Z,-0.16,0.93,0.12
2018-09-27T21:10:11.713304Z,0.28,-0.05,0.33
2018-09-27T21:10:11.872304Z,0.08,-1.04,-1.55
2018-09-27T21:10:12.092304Z,0.49,0.83,-0.43
2018-09-27T21:10:12.271304Z,-0.33,0.6,0.03
2018-09-27T21:10:12.481304Z,-0.48,-0.16,2.11
2018-09-27T21:10:12.672304Z,0.21,-0.54,-1.33
2018-09-27T21:10:12.873304Z,0.52,0.49,-0.44
2018-09-27T21:10:13.074304Z,0.21,0.15,-0.85
2018-09-27T21:10:13.267304Z,-0.44,0.2,-0.73
2018-09-27T21:10:13.470304Z,0.24,-0.46,2.29
2018-09-27T21:10:13.671304Z,0.54,-0.07,0.2
2018-09-27T21:10:13.865304Z,0.03,0.37,0.69
2018-09-27T21:10:14.085304Z,0.43,-0.03,-1.8
2018-09-27T21:10:14.268304Z,-1.38,-0.15,0.44
2018-09-27T21:10:14.453304Z,0.25,0.19,-1.03
2018-09-27T21:10:14.652304Z,0.92,0.46,0.6
2018-09-27T21:10:14.854304Z,-0.7,0.09,-0.87
2018-09-27T21:10:15.064304Z,-0.52,-0.57,-1.08
2018-09-27T21:10:15.248304Z,-0.37,0.02,-1.66
2018-09-27T21:10:15.453304Z,0.11,0.15,-1.18
2018-09-27T21:10:15.674304Z,0.05,1.13,-0.27
2018-09-27T21:10:15.885304Z,0.72,0.83,-0.27
2018-09-27T21:10:16.085304Z,0.7,-1.1,1.48
2018-09-27T21:10:16.244304Z,0.04,-0.14,0.6
2018-09-27T21:10:16.453304Z,0.04,0.31,1.55
2018-09-27T21:10:16.673304Z,-1.24,-0.28,0.44
2018-09-27T21:10:16.847304Z,0.31,1.24,-1.19
2018-09-27T21:10:17.054304Z,0.47,-0.54,-0.29
2018-09-27T21:10:17.253304Z,-0.41,-1.21,-0.59
2018-09-27T21:10:17.451304Z,0.7,0.37,0.26
2018-09-27T21:10:17.658304Z,-0.32,0.25,0.22
2018-09-27T21:10:17.864304Z,-0.19,-0.36,-0.57
2018-09-27T21:10:18.044304Z,-0.19,0.27,0.47
2018-09-27T21:10:18.247304Z,0.52,0.1,0.0
2018-09-27T21:10:18.449304Z,0.31,0.19,1.09
2018-09-27T21:10:18.646304Z,-0.33,-0.47,-0.26
2018-09-27T21:10:18.830304Z,0.35,0.19,0.67
2018-09-27T21:10:19.052304Z,-0.6,0.16,-1.38
2018-09-27T21:10:19.244304Z,-0.82,0.05,0.57
2018-09-27T21:10:19.463304Z,0.08,-0.77,1.73
2018-09-27T21:10:19.671304Z,0.1,-0.38,-0.32
2018-09-27T21:10:19.838304Z,0.12,0.8,-0.13
2018-09-27T21:10:20.031304Z,-0.24,0.41,-0.49
2018-09-27T21:10:20.246304Z,-0.15,-0.12,-0.37
2018-09-27T21:10:20.429304Z,0.04,-0.4,-2.27
2018-09-27T21:10:20.648304Z,-0.01,-0.42,-0.54
2018-09-27T21:10:20.833304Z,-0.23,0.51,0.19
2018-09-27T21:10:21.031304Z,0.19,0.1,0.57
2018-09-27T21:10:21.232304Z,-0.3,-0.43,1.23
2018-09-27T21:10:21.433304Z,-0.02,-0.36,-0.26
2018-09-27T21:10:21.624304Z,0.0,-0.01,-0.23
2018-09-27T21:10:21.828304Z,0.07,0.41,-0.04
2018-09-27T21:10:22.033304Z,-0.14,0.05,1.12
2018-09-27T21:10:22.232304Z,0.33,0.27,0.52
2018-09-27T21:10:22.426304Z,-0.28,0.06,1.81
2018-09-27T21:10:22.624304Z,0.05,0.21,-0.05
2018-09-27T21:10:22.827304Z,0.42,-0.22,0.25
2018-09-27T21:10:23.016304Z,0.0,0.0,-0.15
2018-09-27T21:10:23.239304Z,-0.22,0.03,-0.32
2018-09-27T21:10:23.420304Z,-0.52,0.04,0.56
2018-09-27T21:10:23.615304Z,0.5,0.34,0.14
2018-09-27T21:10:23.820304Z,-1.18,-1.32,0.82
2018-09-27T21:10:24.017304Z,0.35,-0.11,1.6
2018-09-27T21:10:24.222304Z,-0.15,0.93,-0.23
2018-09-27T21:10:24.422304Z,1.1,0.75,-0.5
2018-09-27T21:10:24.620304Z,0.19,-0.79,2.42
2018-09-27T21:10:24.798304Z,1.08,-0.34,-0.62
2018-09-27T21:10:24.993304Z,-0.11,0.55,-0.54
2018-09-27T21:10:25.200304Z,-0.15,0.46,0.44
2018-09-27T21:10:25.394304Z,0.62,-0.38,-0.28
2018-09-27T21:10:25.593304Z,-0.12,-0.16,-0.5
2018-09-27T21:10:25.837304Z,-0.4,0.47,-0.59
2018-09-27T21:10:26.021304Z,0.59,0.75,-1.02
2018-09-27T21:10:26.223304Z,0.0,-1.43,2.65
2018-09-27T21:10:26.421304Z,-1.0,-0.23,-1.15
2018-09-27T21:10:26.623304Z,0.44,0.11,0.16
2018-09-27T21:10:26.822304Z,-0.18,0.96,-1.0
2018-09-27T21:10:27.002304Z,-0.6,-0.89,-0.97
2018-09-27T21:10:27.201304Z,-0.24,0.65,-1.14
2018-09-27T21:10:27.396304Z,0.44,0.84,-0.31
2018-09-27T21:10:27.601304Z,-0.41,-0.74,0.06
2018-09-27T21:10:27.803304Z,-0.12,-0.65,-0.48
2018-09-27T21:10:28.004304Z,-0.29,0.34,0.8
2018-09-27T21:10:28.201304Z,-0.16,0.61,-0.91
2018-09-27T21:10:28.402304Z,0.21,-0.19,-2.29
2018-09-27T21:10:28.602304Z,-0.36,0.52,0.36
2018-09-27T21:10:28.782304Z,0.1,0.36,0.32
2018-09-27T21:10:29.002304Z,-0.7,-1.3,1.39
2018-09-27T21:10:29.182304Z,-0.07,-0.24,1.72
2018-09-27T21:10:29.377304Z,-0.57,-0.16,-0.43
2018-09-27T21:10:29.594304Z,-0.33,-0.57,0.75
2018-09-27T21:10:29.800304Z,-0.14,-0.18,0.43
2018-09-27T21:10:30.002304Z,-0.25,0.64,0.7
2018-09-27T21:10:30.199304Z,0.47,0.07,-0.62
2018-09-27T21:10:30.397304Z,0.03,-0.17,0.59
2018-09-27T21:10:30.594304Z,0.45,0.02,-0.85
2018-09-27T21:10:30.797304Z,-0.36,0.3,-0.41
2018-09-27T21:10:30.983304Z,0.05,0.1,0.25
2018-09-27T21:10:31.176304Z,-0.6,-1.01,0.37
2018-09-27T21:10:31.377304Z,-0.02,-0.84,0.2
2018-09-27T21:10:31.579304Z,0.19,1.32,1.01
2018-09-27T21:10:31.781304Z,-0.38,0.16,-0.41
2018-09-27T21:10:31.982304Z,0.93,0.08,1.92
2018-09-27T21:10:32.183304Z,-0.33,0.34,-0.64
2018-09-27T21:10:32.383304Z,0.28,0.43,1.11
2018-09-27T21:10:32.583304Z,-0.47,-0.26,-1.68
2018-09-27T21:10:32.781304Z,-0.09,0.75,-0.44
2018-09-27T21:10:32.992304Z,0.88,0.18,-1.38
2018-09-27T21:10:33.178304Z,0.06,0.1,-0.29
2018-09-27T21:10:33.382304Z,0.08,0.46,-0.89
2018-09-27T21:10:33.577304Z,-0.43,-0.5,0.0
2018-09-27T21:10:33.778304Z,-0.19,0.35,0.4
2018-09-27T21:10:33.991304Z,0.4,0.04,-0.1
2018-09-27T21:10:34.172304Z,-0.25,0.03,0.66
2018-09-27T21:10:34.354304Z,1.52,-0.13,0.4
2018-09-27T21:10:34.563304Z,0.04,0.05,0.06
2018-09-27T21:10:34.757304Z,-0.03,0.54,-0.32
2018-09-27T21:10:34.959304Z,0.16,0.19,0.0
2018-09-27T21:10:35.158304Z,0.25,-0.19,0.63
2018-09-27T21:10:35.400304Z,-0.22,-1.04,-2.16
2018-09-27T21:10:35.580304Z,-0.08,0.66,-1.33
2018-09-27T21:10:35.797304Z,-0.24,0.59,0.38
2018-09-27T21:10:35.975304Z,0.38,-1.03,2.32
2018-09-27T21:10:36.178304Z,-0.49,-0.62,0.33
2018-09-27T21:10:36.361304Z,-0.47,0.64,0.7
2018-09-27T21:10:36.560304Z,0.62,-0.02,0.75
2018-09-27T21:10:36.763304Z,1.43,-0.56,-0.98
2018-09-27T21:10:36.962304Z,-0.57,0.54,0.72
2018-09-27T21:10:37.161304Z,0.2,0.69,-0.07
2018-09-27T21:10:37.363304Z,-0.14,-1.92,-2.36
2018-09-27T21:10:37.561304Z,-0.01,0.35,1.19
2018-09-27T21:10:37.762304Z,-0.26,0.21,-0.89
2018-09-27T21:10:37.963304Z,-0.1,-0.1,0.5
2018-09-27T21:10:38.154304Z,-0.12,0.1,-0.23
2018-09-27T21:10:38.374304Z,0.06,-0.03,-0.35
2018-09-27T21:10:38.566304Z,-0.08,0.35,-0.14
2018-09-27T21:10:38.759304Z,-0.25,-0.26,0.02
2018-09-27T21:10:38.954304Z,0.16,0.08,0.13
2018-09-27T21:10:39.161304Z,-0.24,-0.23,-0.35
2018-09-27T21:10:39.357304Z,-0.3,0.43,-0.19
2018-09-27T21:10:39.560304Z,0.06,0.29,-0.13
2018-09-27T21:10:39.762304Z,0.46,-1.02,0.98
2018-09-27T21:10:39.960304Z,0.43,-0.12,-0.75
2018-09-27T21:10:40.168304Z,0.12,0.38,-0.07
2018-09-27T21:10:40.350304Z,0.03,0.46,0.39
2018-09-27T21:10:40.569304Z,-0.28,-0.9,0.1
2018-09-27T21:10:40.753304Z,-0.29,-0.38,0.54
2018-09-27T21:10:40.951304Z,0.29,0.59,0.16
2018-09-27T21:10:41.149304Z,-0.58,-0.03,-0.56
2018-09-27T21:10:41.351304Z,0.47,-1.34,-0.08
2018-09-27T21:10:41.573304Z,-0.54,-0.24,2.83
2018-09-27T21:10:41.754304Z,-0.05,0.84,-0.86
2018-09-27T21:10:41.946304Z,-0.27,-0.64,2.26
2018-09-27T21:10:42.166304Z,-0.4,0.37,-0.94
2018-09-27T21:10:42.348304Z,-0.03,-0.32,-0.44
2018-09-27T21:10:42.544304Z,0.17,0.39,0.09
2018-09-27T21:10:42.747304Z,0.22,-0.14,0.06
2018-09-27T21:10:42.930304Z,0.14,-0.01,-0.36
2018-09-27T21:10:43.124304Z,0.0,0.81,0.09
2018-09-27T21:10:43.328304Z,-0.5,-0.77,-0.74
2018-09-27T21:10:43.561304Z,0.59,-1.18,0.47
2018-09-27T21:10:43.726304Z,-1.02,0.32,-0.53
2018-09-27T21:10:43.950304Z,0.1,0.43,-0.27
2018-09-27T21:10:44.130304Z,-0.52,0.28,-0.37
2018-09-27T21:10:44.330304Z,-0.22,-1.1,-1.69
2018-09-27T21:10:44.525304Z,-0.52,-0.01,-0.03
2018-09-27T21:10:44.740304Z,0.57,0.0,1.26
2018-09-27T21:10:44.942304Z,0.46,0.31,-0.16
2018-09-27T21:10:45.163304Z,-0.15,-0.33,-0.42
2018-09-27T21:10:45.341304Z,-0.41,0.34,-0.59
2018-09-27T21:10:45.540304Z,0.02,0.3,-1.5
2018-09-27T21:10:45.754304Z,-0.54,-0.27,-1.13
2018-09-27T21:10:45.962304Z,-0.18,0.21,0.05
2018-09-27T21:10:46.154304Z,0.24,0.02,0.19
2018-09-27T21:10:46.336304Z,-0.14,0.29,0.14
2018-09-27T21:10:46.537304Z,0.07,0.0,-0.38
2018-09-27T21:10:46.722304Z,0.3,0.27,-0.11
2018-09-27T21:10:46.941304Z,-0.07,0.15,-0.05
2018-09-27T21:10:47.115304Z,0.02,-0.07,0.01
2018-09-27T21:10:47.314304Z,-0.04,-0.28,1.77
2018-09-27T21:10:47.514304Z,0.9,0.34,0.46
2018-09-27T21:10:47.714304Z,-0.52,0.38,-0.13
2018-09-27T21:10:47.918304Z,1.08,0.27,-0.03
2018-09-27T21:10:48.120304Z,-0.14,-1.09,-3.11
2018-09-27T21:10:48.321304Z,-1.24,-0.04,-0.62
2018-09-27T21:10:48.524304Z,0.19,1.01,0.01
2018-09-27T21:10:48.730304Z,0.96,-0.18,1.65
2018-09-27T21:10:48.927304Z,0.0,-1.14,-1.04
2018-09-27T21:10:49.122304Z,-0.2,0.75,0.6
2018-09-27T21:10:49.324304Z,0.41,0.35,-0.61
2018-09-27T21:10:49.522304Z,-1.33,-0.03,-2.28
2018-09-27T21:10:49.735304Z,-0.06,0.48,-0.89
2018-09-27T21:10:49.916304Z,-0.19,-0.28,0.04
2018-09-27T21:10:50.115304Z,0.2,0.36,-0.02
2018-09-27T21:10:50.316304Z,0.07,-0.13,-0.06
2018-09-27T21:10:50.501304Z,0.13,0.11,-0.21
2018-09-27T21:10:50.695304Z,-0.35,0.34,0.26
2018-09-27T21:10:50.919304Z,0.27,-0.02,-0.23
2018-09-27T21:10:51.097304Z,-0.56,-1.19,0.36
2018-09-27T21:10:51.320304Z,-0.04,0.12,0.14
2018-09-27T21:10:51.520304Z,0.31,0.73,0.08
2018-09-27T21:10:51.719304Z,0.55,0.56,-0.35
2018-09-27T21:10:51.920304Z,-0.72,-1.24,-2.64
2018-09-27T21:10:52.120304Z,-0.26,0.59,-1.42
2018-09-27T21:10:52.319304Z,0.53,0.93,0.62
2018-09-27T21:10:52.503304Z,-0.53,-1.64,1.5
2018-09-27T21:10:52.702304Z,-0.1,-0.37,-0.93
2018-09-27T21:10:52.903304Z,-0.35,0.95,1.9
2018-09-27T21:10:53.103304Z,0.33,-0.06,0.23
2018-09-27T21:10:53.302304Z,1.1,-0.14,-1.64
2018-09-27T21:10:53.502304Z,0.04,0.51,-0.09
2018-09-27T21:10:53.701304Z,-0.02,0.22,-0.26
2018-09-27T21:10:53.904304Z,0.63,0.75,-0.27
2018-09-27T21:10:54.104304Z,-0.7,-0.82,-1.12
2018-09-27T21:10:54.333304Z,-0.4,-0.23,-1.75
2018-09-27T21:10:54.512304Z,-0.55,-0.12,-1.4
2018-09-27T21:10:54.723304Z,0.51,0.59,0.95
2018-09-27T21:10:54.903304Z,0.51,0.39,2.46
2018-09-27T21:10:55.103304Z,0.19,0.2,0.08
2018-09-27T21:10:55.284304Z,0.64,0.5,0.57
2018-09-27T21:10:55.486304Z,-0.31,0.43,-0.21
2018-09-27T21:10:55.710304Z,-0.03,0.27,-0.4
2018-09-27T21:10:55.913304Z,-1.3,-1.66,-1.82
2018-09-27T21:10:56.112304Z,0.08,-0.2,-0.49
2018-09-27T21:10:56.304304Z,0.42,-0.17,-0.58
2018-09-27T21:10:56.510304Z,-1.66,-2.52,-0.42
2018-09-27T21:10:56.712304Z,-0.69,0.61,-0.71
2018-09-27T21:10:56.888304Z,0.69,0.42,-0.02
2018-09-27T21:10:57.113304Z,-0.76,-1.39,-2.47
2018-09-27T21:10:57.313304Z,-0.28,-0.15,-1.25
2018-09-27T21:10:57.503304Z,-0.68,0.05,-1.16
2018-09-27T21:10:57.684304Z,0.0,0.38,0.87
2018-09-27T21:10:57.904304Z,0.14,-0.14,-0.62
2018-09-27T21:10:58.104304Z,0.67,0.17,-0.68
2018-09-27T21:10:58.278304Z,0.07,0.76,-0.66
2018-09-27T21:10:58.475304Z,-0.2,-0.04,0.03
2018-09-27T21:10:58.686304Z,0.04,-0.46,-0.86
2018-09-27T21:10:58.882304Z,0.09,0.57,0.29
2018-09-27T21:10:59.074304Z,-0.07,-0.16,-0.59
2018-09-27T21:10:59.299304Z,0.03,-0.51,3.59
2018-09-27T21:10:59.497304Z,0.41,-0.67,-1.85
2018-09-27T21:10:59.687304Z,-0.14,1.43,1.75
2018-09-27T21:10:59.884304Z,0.94,-0.65,3.82
2018-09-27T21:11:00.083304Z,-0.69,-0.23,-1.07
2018-09-27T21:11:00.266304Z,0.32,0.19,1.09
2018-09-27T21:11:00.473304Z,-0.36,-0.35,-0.12
2018-09-27T21:11:00.669304Z,-1.16,0.34,-2.54
2018-09-27T21:11:00.864304Z,-0.15,0.19,-1.54
2018-09-27T21:11:01.065304Z,0.41,-0.1,-1.84
2018-09-27T21:11:01.288304Z,-0.16,0.06,0.04
2018-09-27T21:11:01.466304Z,-0.11,0.77,-0.43
2018-09-27T21:11:01.684304Z,0.18,0.21,0.48
2018-09-27T21:11:01.864304Z,0.0,-0.49,-0.12
2018-09-27T21:11:02.071304Z,-0.26,-0.61,-0.38
2018-09-27T21:11:02.273304Z,-0.55,-0.38,0.41
2018-09-27T21:11:02.471304Z,0.14,0.63,-0.25
2018-09-27T21:11:02.671304Z,0.2,0.49,0.08
2018-09-27T21:11:02.873304Z,-0.04,-2.2,5.1
2018-09-27T21:11:03.057304Z,-0.29,0.38,-1.08
2018-09-27T21:11:03.269304Z,0.14,0.52,0.18
2018-09-27T21:11:03.460304Z,0.08,-0.49,1.56
2018-09-27T21:11:03.662304Z,-0.32,-1.12,-1.44
2018-09-27T21:11:03.863304Z,-0.04,0.28,-0.15
2018-09-27T21:11:04.070304Z,0.22,0.43,-0.41
2018-09-27T21:11:04.262304Z,0.0,-0.43,1.75
2018-09-27T21:11:04.462304Z,0.25,0.68,-0.37
2018-09-27T21:11:04.662304Z,-0.11,0.25,0.36
2018-09-27T21:11:04.848304Z,-0.28,-1.15,2.39
2018-09-27T21:11:05.044304Z,0.49,-0.11,-0.16
2018-09-27T21:11:05.254304Z,-0.13,0.44,0.58
2018-09-27T21:11:05.465304Z,-0.15,-0.68,1.87
2018-09-27T21:11:05.664304Z,-0.51,0.19,-0.19
2018-09-27T21:11:05.863304Z,0.18,0.18,-0.86
2018-09-27T21:11:06.074304Z,-0.14,0.65,-1.73
2018-09-27T21:11:06.244304Z,0.43,0.43,0.42
2018-09-27T21:11:06.431304Z,-0.19,-0.07,0.0
2018-09-27T21:11:06.628304Z,0.14,-0.9,0.73
2018-09-27T21:11:06.834304Z,0.23,0.61,0.22
2018-09-27T21:11:07.024304Z,0.29,0.53,-0.78
2018-09-27T21:11:07.224304Z,-1.03,-2.01,4.57
2018-09-27T21:11:07.425304Z,-0.89,-0.94,-0.85
2018-09-27T21:11:07.645304Z,0.09,0.55,0.64
2018-09-27T21:11:07.845304Z,0.58,-0.05,-0.35
2018-09-27T21:11:08.066304Z,-0.48,-0.37,-1.21
2018-09-27T21:11:08.250304Z,-0.44,-0.19,-0.58
2018-09-27T21:11:08.431304Z,0.31,-0.39,-0.34
2018-09-27T21:11:08.634304Z,-0.32,0.81,-0.53
2018-09-27T21:11:08.845304Z,0.47,-0.9,2.05
2018-09-27T21:11:09.024304Z,-0.08,-0.67,2.08
2018-09-27T21:11:09.225304Z,0.14,1.3,-0.3
2018-09-27T21:11:09.423304Z,0.64,0.28,-1.12
2018-09-27T21:11:09.625304Z,-0.17,-0.19,-1.47
2018-09-27T21:11:09.825304Z,-0.32,0.37,0.0
2018-09-27T21:11:10.041304Z,0.46,-0.25,2.3
2018-09-27T21:11:10.221304Z,0.18,-0.77,-0.3
2018-09-27T21:11:10.415304Z,-0.14,1.09,0.2
2018-09-27T21:11:10.627304Z,0.14,0.59,0.98
2018-09-27T21:11:10.828304Z,-1.25,-1.54,-1.57
2018-09-27T21:11:11.009304Z,0.64,0.56,-1.15
2018-09-27T21:11:11.232304Z,-0.01,0.62,0.52
2018-09-27T21:11:11.429304Z,0.61,0.02,-0.42
2018-09-27T21:11:11.633304Z,-0.97,-1.66,-1.54
2018-09-27T21:11:11.833304Z,0.22,0.36,-0.79
2018-09-27T21:11:12.028304Z,0.43,0.29,1.16
2018-09-27T21:11:12.202304Z,-0.66,-0.02,-0.16
2018-09-27T21:11:12.427304Z,0.47,0.31,0.16
2018-09-27T21:11:12.606304Z,0.63,0.22,0.15
2018-09-27T21:11:12.805304Z,-0.81,-0.07,0.25
2018-09-27T21:11:13.032304Z,-1.08,-1.9,-1.74
2018-09-27T21:11:13.213304Z,-0.13,-0.57,2.76
2018-09-27T21:11:13.413304Z,0.13,0.59,-0.27
2018-09-27T21:11:13.607304Z,0.92,0.31,1.8
2018-09-27T21:11:13.822304Z,0.63,-0.94,0.18
2018-09-27T21:11:14.010304Z,0.08,0.54,0.9
2018-09-27T21:11:14.195304Z,0.47,0.18,0.2
2018-09-27T21:11:14.419304Z,-0.47,-0.79,-1.9
2018-09-27T21:11:14.599304Z,-0.3,-0.05,-0.52
2018-09-27T21:11:14.794304Z,-0.42,0.29,-1.07
2018-09-27T21:11:15.000304Z,-0.04,0.54,-0.37
2018-09-27T21:11:15.193304Z,0.2,0.03,0.83
2018-09-27T21:11:15.392304Z,-0.2,-0.36,0.02
2018-09-27T21:11:15.592304Z,-0.31,-0.47,0.06
2018-09-27T21:11:15.804304Z,0.03,-0.29,-0.85
2018-09-27T21:11:16.004304Z,0.31,0.35,0.72
2018-09-27T21:11:16.241304Z,-0.48,0.17,-1.79
2018-09-27T21:11:16.384304Z,0.11,0.7,-0.44
2018-09-27T21:11:16.585304Z,0.49,-0.04,-0.67
2018-09-27T21:11:16.785304Z,-0.44,-0.09,0.44
2018-09-27T21:11:16.989304Z,-0.13,0.14,-0.91
2018-09-27T21:11:17.194304Z,-1.11,-1.37,-0.66
2018-09-27T21:11:17.399304Z,0.31,0.01,-1.27
2018-09-27T21:11:17.580304Z,0.15,0.95,0.52
2018-09-27T21:11:17.804304Z,0.45,-0.11,-0.16
2018-09-27T21:11:17.980304Z,0.43,0.15,-1.12
2018-09-27T21:11:18.181304Z,-0.08,0.61,0.47
2018-09-27T21:11:18.379304Z,0.49,0.02,-0.07
2018-09-27T21:11:18.581304Z,-0.08,-1.27,-2.39
2018-09-27T21:11:18.773304Z,1.45,1.01,2.98
2018-09-27T21:11:18.959304Z,-0.19,0.63,-1.24
2018-09-27T21:11:19.165304Z,0.23,0.25,0.93
2018-09-27T21:11:19.390304Z,-0.2,-0.06,-1.65
2018-09-27T21:11:19.563304Z,-0.27,0.28,1.22
2018-09-27T21:11:19.763304Z,-0.3,-2.25,1.39
2018-09-27T21:11:19.963304Z,-0.59,0.08,-0.99
2018-09-27T21:11:20.176304Z,-0.03,0.47,0.32
2018-09-27T21:11:20.399304Z,1.04,0.82,0.07
2018-09-27T21:11:20.580304Z,-1.98,-0.89,0.39
2018-09-27T21:11:20.774304Z,0.45,-0.67,2.49
2018-09-27T21:11:20.974304Z,0.42,0.16,-0.98
2018-09-27T21:11:21.173304Z,-0.12,0.77,1.52
2018-09-27T21:11:21.355304Z,0.4,-0.55,-3.25
2018-09-27T21:11:21.555304Z,-0.47,0.15,0.34
2018-09-27T21:11:21.759304Z,-0.17,0.59,0.03
2018-09-27T21:11:21.962304Z,-0.77,-1.6,-2.83
2018-09-27T21:11:22.160304Z,0.2,0.24,-0.59
2018-09-27T21:11:22.357304Z,-0.06,0.44,0.31
2018-09-27T21:11:22.556304Z,1.05,-1.26,2.7
2018-09-27T21:11:22.755304Z,-0.16,0.36,-1.16
2018-09-27T21:11:22.934304Z,-1.4,-0.08,-0.97
2018-09-27T21:11:23.149304Z,-0.14,-1.87,4.69
2018-09-27T21:11:23.373304Z,0.57,-0.15,-1.45
2018-09-27T21:11:23.572304Z,-0.25,0.47,1.22
2018-09-27T21:11:23.745304Z,0.38,0.67,-1.16
2018-09-27T21:11:23.953304Z,-0.31,-0.57,-0.83
2018-09-27T21:11:24.158304Z,0.58,1.21,0.32
2018-09-27T21:11:24.344304Z,0.72,0.15,0.99
2018-09-27T21:11:24.550304Z,0.29,0.09,-0.39
2018-09-27T21:11:24.743304Z,0.77,0.94,0.63
2018-09-27T21:11:24.955304Z,-0.38,0.15,-0.02
2018-09-27T21:11:25.138304Z,-0.92,-2.89,1.54
2018-09-27T21:11:25.360304Z,0.43,-0.88,1.11
2018-09-27T21:11:25.534304Z,0.16,1.03,-0.45
2018-09-27T21:11:25.733304Z,0.33,1.26,1.37
2018-09-27T21:11:25.919304Z,0.18,-0.83,-0.95
2018-09-27T21:11:26.122304Z,-0.01,0.65,1.01
2018-09-27T21:11:26.314304Z,0.43,1.36,2.61
2018-09-27T21:11:26.530304Z,-0.74,0.14,0.83
2018-09-27T21:11:26.725304Z,0.41,0.35,0.46
2018-09-27T21:11:26.924304Z,0.08,-0.03,-1.38
2018-09-27T21:11:27.128304Z,0.36,-0.22,-0.55
2018-09-27T21:11:27.330304Z,0.15,0.78,0.39
2018-09-27T21:11:27.524304Z,-0.08,0.11,-0.3
2018-09-27T21:11:27.725304Z,0.09,-0.58,5.49
2018-09-27T21:11:27.939304Z,0.56,-0.46,1.91
2018-09-27T21:11:28.118304Z,0.37,1.06,2.25
2018-09-27T21:11:28.343304Z,-0.11,-0.42,-2.21
2018-09-27T21:11:28.517304Z,0.52,0.95,0.97
2018-09-27T21:11:28.722304Z,0.18,-0.09,-0.2
2018-09-27T21:11:28.917304Z,0.35,0.45,-0.13
2018-09-27T21:11:29.122304Z,-0.03,0.05,0.0
2018-09-27T21:11:29.314304Z,-0.52,-0.76,-1.05
2018-09-27T21:11:29.521304Z,0.16,-0.8,0.2
