Datetime,accx,accy,accz
2018-10-02T20:07:53.009017Z,0.0,0.0,0.0
2018-10-02T20:07:53.160017Z,-0.265175,0.716511,0.162731
2018-10-02T20:07:53.407017Z,-0.816448,-0.10471099999999998,0.45557299999999995
2018-10-02T20:07:53.602017Z,-1.583238,-0.819732,0.441402
2018-10-02T20:07:53.760017Z,-0.995389,-0.397278,-0.711933
2018-10-02T20:07:53.960017Z,-1.075741,0.22292199999999998,-0.59172
2018-10-02T20:07:54.161017Z,-0.08719500000000001,0.361275,0.385921
2018-10-02T20:07:54.348017Z,-0.040313,-0.8883270000000001,1.520195
2018-10-02T20:07:54.548017Z,-0.024051,-1.519859,-0.900185
2018-10-02T20:07:54.760017Z,-0.8311280000000001,-0.150033,-0.292477
2018-10-02T20:07:54.948017Z,-1.774197,0.07796,1.199327
2018-10-02T20:07:55.160017Z,-0.94686,-0.34633200000000003,-0.780415
2018-10-02T20:07:55.361017Z,-0.373354,0.317325,-0.49366099999999996
2018-10-02T20:07:55.561017Z,0.023018,0.737097,0.552176
2018-10-02T20:07:55.749017Z,0.191424,-0.355377,0.105233
2018-10-02T20:07:55.961017Z,0.682595,0.342896,-0.663146
2018-10-02T20:07:56.149017Z,0.261177,0.857085,0.374359
2018-10-02T20:07:56.365017Z,-0.607383,-0.086889,0.14263900000000002
2018-10-02T20:07:56.562017Z,-0.06401799999999999,0.248822,-0.717198
2018-10-02T20:07:56.751017Z,0.079963,0.41878999999999994,0.722529
2018-10-02T20:07:56.951017Z,0.457892,-0.457442,0.046542
2018-10-02T20:07:57.350017Z,0.29132800000000003,0.8506870000000001,0.56597
2018-10-02T20:07:57.543017Z,0.265411,-0.26577,0.48496300000000003
2018-10-02T20:07:57.745017Z,0.25280199999999997,-0.284908,-1.1830530000000001
2018-10-02T20:07:57.951017Z,0.306264,0.63456,0.099178
2018-10-02T20:07:58.144017Z,0.48158900000000004,0.031291,0.7776529999999999
2018-10-02T20:07:58.346017Z,0.762204,-0.6070439999999999,-0.897558
2018-10-02T20:07:58.547017Z,0.269969,0.913709,0.5827260000000001
2018-10-02T20:07:58.746017Z,-0.501942,-0.48765299999999995,0.5711890000000001
2018-10-02T20:07:58.948017Z,0.14533,-0.39179400000000003,-0.9078450000000001
2018-10-02T20:07:59.146017Z,0.269831,0.42040900000000003,0.08909
2018-10-02T20:07:59.344017Z,0.609474,-0.21296199999999998,0.829226
2018-10-02T20:07:59.546017Z,1.071848,-0.485573,-0.8864360000000001
2018-10-02T20:07:59.746017Z,1.1060889999999999,0.43123100000000003,0.607222
2018-10-02T20:07:59.946017Z,0.21221700000000002,-0.317341,0.5709270000000001
2018-10-02T20:08:00.146017Z,0.185042,-0.6574770000000001,-0.8355670000000001
2018-10-02T20:08:00.347017Z,0.240673,0.13311199999999998,-0.160698
2018-10-02T20:08:00.548017Z,0.205517,-0.126338,1.774115
2018-10-02T20:08:00.748017Z,0.45364499999999996,-1.1346969999999998,-0.795326
2018-10-02T20:08:00.949017Z,1.025283,-0.302082,-0.212916
2018-10-02T20:08:01.146017Z,0.862542,0.156065,1.051664
2018-10-02T20:08:01.348017Z,0.62051,-1.475598,0.49513
2018-10-02T20:08:01.548017Z,1.2829629999999999,-0.911801,-0.583092
2018-10-02T20:08:01.750017Z,1.204852,-0.45819,0.8572120000000001
2018-10-02T20:08:01.947017Z,0.336624,-1.502761,0.926703
2018-10-02T20:08:02.149017Z,0.718236,-1.4190770000000001,-0.530089
2018-10-02T20:08:02.159017Z,0.852142,-1.498402,-0.450931
2018-10-02T20:08:02.354017Z,0.580619,0.02395,0.214756
2018-10-02T20:08:02.568017Z,0.768124,-1.4679879999999998,1.867348
2018-10-02T20:08:02.754017Z,1.589049,-1.9055939999999998,-0.07015199999999999
2018-10-02T20:08:02.954017Z,1.054102,-1.056247,0.078176
2018-10-02T20:08:03.155017Z,0.548365,-0.8560129999999999,0.8565200000000001
2018-10-02T20:08:03.391017Z,0.634667,-1.411924,0.026719999999999997
2018-10-02T20:08:03.555017Z,0.14085,-0.661876,0.5004350000000001
2018-10-02T20:08:03.861017Z,-0.5726289999999999,-0.722834,0.72837
2018-10-02T20:08:03.964017Z,-0.292425,-1.06491,-0.14260799999999998
2018-10-02T20:08:04.170017Z,0.042312,-0.11195799999999999,-0.44831099999999996
2018-10-02T20:08:04.365017Z,0.45131000000000004,-0.25845100000000004,1.08388
2018-10-02T20:08:04.567017Z,0.7781520000000001,-0.8427100000000001,0.143003
2018-10-02T20:08:04.756017Z,0.831465,-0.436759,-0.345675
2018-10-02T20:08:04.968017Z,0.060204999999999995,0.082893,0.859402
2018-10-02T20:08:05.168017Z,-0.7888609999999999,-1.049395,0.24292199999999997
2018-10-02T20:08:05.373017Z,-0.012466,-0.562163,-0.738957
2018-10-02T20:08:05.567017Z,0.27766,0.115335,0.735416
2018-10-02T20:08:05.759017Z,0.20155399999999998,-0.424658,0.504536
2018-10-02T20:08:05.961017Z,0.356606,-0.843467,-0.5013270000000001
2018-10-02T20:08:06.170017Z,0.243842,0.08684800000000001,0.41536300000000004
2018-10-02T20:08:06.371017Z,0.14948399999999998,-0.192396,0.8954280000000001
2018-10-02T20:08:06.572017Z,0.287144,-0.9055120000000001,-0.5205069999999999
2018-10-02T20:08:06.771017Z,0.37335999999999997,-0.464739,0.224356
2018-10-02T20:08:06.965017Z,0.10495399999999999,-0.527312,1.1325610000000002
2018-10-02T20:08:07.175017Z,0.37312,-0.902675,-0.839548
2018-10-02T20:08:07.372017Z,-0.076677,0.176795,-0.252467
2018-10-02T20:08:07.573017Z,-0.10671199999999999,0.26166100000000003,0.9119889999999999
2018-10-02T20:08:07.761017Z,-0.669769,-0.771864,0.07119199999999999
2018-10-02T20:08:07.972017Z,0.12271900000000001,0.133871,-0.7722760000000001
2018-10-02T20:08:08.171017Z,0.21038099999999998,0.137925,1.051868
2018-10-02T20:08:08.372017Z,0.213063,-0.772936,-0.067223
2018-10-02T20:08:08.582017Z,0.015785,-0.42600600000000005,-0.503734
2018-10-02T20:08:08.783017Z,-1.282513,0.49032299999999995,0.139729
2018-10-02T20:08:08.974017Z,-2.371184,-0.970477,0.782112
2018-10-02T20:08:09.172017Z,-1.251742,-0.8442879999999999,-0.577542
2018-10-02T20:08:09.372017Z,0.185051,-0.12684700000000002,0.343145
2018-10-02T20:08:09.570017Z,0.554172,-0.17319,0.5101060000000001
2018-10-02T20:08:09.771017Z,0.300315,0.052503999999999995,-0.42705600000000005
2018-10-02T20:08:09.970017Z,0.5746220000000001,0.682265,-0.17064200000000002
2018-10-02T20:08:10.173017Z,0.07137,-0.7502909999999999,1.062463
2018-10-02T20:08:10.369017Z,0.083173,-0.310492,-0.638862
2018-10-02T20:08:10.570017Z,0.463631,0.22720500000000002,0.15048599999999998
2018-10-02T20:08:10.772017Z,0.9830469999999999,-0.587012,0.80972
2018-10-02T20:08:10.975017Z,0.625352,-0.573951,-0.640672
2018-10-02T20:08:11.181017Z,0.588093,0.45392,-0.24763000000000002
2018-10-02T20:08:11.372017Z,0.156549,0.247821,0.661886
2018-10-02T20:08:11.572017Z,0.645971,-0.911739,0.236585
2018-10-02T20:08:11.777017Z,0.709557,0.024683,-0.436904
2018-10-02T20:08:11.963017Z,0.247702,0.07918700000000001,0.582705
2018-10-02T20:08:12.172017Z,0.4758,-0.44902200000000003,-0.181276
2018-10-02T20:08:12.375017Z,0.407375,-0.011207,-0.373608
2018-10-02T20:08:12.573017Z,-0.9035770000000001,0.361085,-0.066777
2018-10-02T20:08:12.801017Z,-1.008999,-0.198722,0.5689960000000001
2018-10-02T20:08:12.996017Z,0.07709500000000001,-0.669864,-0.232879
2018-10-02T20:08:13.195017Z,0.8224469999999999,0.41526199999999996,-0.034359
2018-10-02T20:08:13.395017Z,1.1123180000000001,-0.10408099999999999,1.044086
2018-10-02T20:08:13.595017Z,0.6821619999999999,-0.5836979999999999,-0.392928
2018-10-02T20:08:13.813017Z,0.8338200000000001,0.152502,-0.153436
2018-10-02T20:08:13.985017Z,0.46738999999999997,0.49427200000000004,0.18574200000000002
2018-10-02T20:08:14.185017Z,0.051936,-0.541605,0.124125
2018-10-02T20:08:14.395017Z,0.804737,-0.137776,-0.509426
2018-10-02T20:08:14.600017Z,0.8203389999999999,0.684537,0.290821
2018-10-02T20:08:14.800017Z,0.632554,-0.258623,0.16488
2018-10-02T20:08:14.998017Z,0.741271,-0.537571,-0.23870999999999998
2018-10-02T20:08:15.196017Z,0.245901,0.120121,0.31432899999999997
2018-10-02T20:08:15.399017Z,0.11283800000000001,-0.039977,0.377395
2018-10-02T20:08:15.608017Z,-0.113383,-0.95468,0.020084
2018-10-02T20:08:15.813017Z,-0.032922,-0.024162,-0.674714
2018-10-02T20:08:15.998017Z,-0.291587,0.677804,0.391322
2018-10-02T20:08:16.202017Z,-0.119309,-0.719259,0.36322
2018-10-02T20:08:16.397017Z,0.915609,-0.6348600000000001,-0.6397149999999999
2018-10-02T20:08:16.598017Z,1.83912,-0.958566,0.289756
2018-10-02T20:08:16.799017Z,-0.234523,1.335037,-0.026822000000000002
2018-10-02T20:08:16.997017Z,-0.69697,0.7239,0.887294
2018-10-02T20:08:17.202017Z,-0.29380500000000004,0.672384,-1.089721
2018-10-02T20:08:17.411017Z,0.598931,0.540423,0.5186270000000001
2018-10-02T20:08:17.599017Z,0.22351,-0.462449,0.11881400000000002
2018-10-02T20:08:17.797017Z,0.912631,-0.22682800000000003,-0.717621
2018-10-02T20:08:18.000017Z,0.427167,0.09438099999999999,0.868091
2018-10-02T20:08:18.193017Z,0.296862,-0.552077,-0.08757000000000001
2018-10-02T20:08:18.389017Z,0.12383,-0.180746,-0.49726899999999996
2018-10-02T20:08:18.589017Z,0.162211,0.5632020000000001,0.288616
2018-10-02T20:08:18.799017Z,0.563339,-0.25451799999999997,0.422993
2018-10-02T20:08:19.005017Z,1.005831,-0.372216,-0.49703800000000004
2018-10-02T20:08:19.199017Z,0.371541,0.48931199999999997,-0.045369
2018-10-02T20:08:19.399017Z,-0.016628999999999998,-0.072143,0.9050940000000001
2018-10-02T20:08:19.600017Z,0.231614,-1.054211,-0.20877600000000002
2018-10-02T20:08:19.812017Z,0.657163,-0.084231,-0.452556
2018-10-02T20:08:19.993017Z,0.703611,0.075554,0.9540549999999999
2018-10-02T20:08:20.191017Z,1.033799,-0.55699,0.040427
2018-10-02T20:08:20.401017Z,1.025736,-0.343688,-0.383856
2018-10-02T20:08:20.600017Z,0.65217,-0.056503,0.666187
2018-10-02T20:08:20.805017Z,0.355987,-0.93016,0.45356199999999997
2018-10-02T20:08:21.048017Z,0.419509,-0.827262,-0.26655700000000004
2018-10-02T20:08:21.206017Z,0.617571,0.13381500000000002,-0.324807
2018-10-02T20:08:21.403017Z,1.008034,-0.752815,0.8657469999999999
2018-10-02T20:08:21.602017Z,1.024642,-0.642314,-0.10890799999999999
2018-10-02T20:08:21.808017Z,0.9052479999999999,-0.22231399999999998,0.50635
2018-10-02T20:08:22.001017Z,1.229898,-0.191588,0.7547229999999999
2018-10-02T20:08:22.202017Z,0.052296,-0.5972390000000001,-0.597355
2018-10-02T20:08:22.403017Z,0.131691,-0.31140500000000004,0.21273699999999998
2018-10-02T20:08:22.602017Z,0.54972,-0.728021,0.5703090000000001
2018-10-02T20:08:22.814017Z,0.64372,-1.450755,0.41586999999999996
2018-10-02T20:08:22.993017Z,0.924325,-0.80689,-0.307653
2018-10-02T20:08:23.193017Z,1.043599,-1.165997,1.191
2018-10-02T20:08:23.402017Z,0.9066790000000001,-1.8322049999999999,0.719515
2018-10-02T20:08:23.603017Z,0.6113649999999999,-1.4629940000000001,0.07257100000000001
2018-10-02T20:08:23.803017Z,0.20828200000000002,-0.029193,0.708544
2018-10-02T20:08:24.003017Z,1.070375,-1.8355240000000002,0.7838729999999999
2018-10-02T20:08:24.204017Z,0.118861,-1.221041,-0.608079
2018-10-02T20:08:24.406017Z,0.311693,-0.474743,0.8229219999999999
2018-10-02T20:08:24.609017Z,-0.19045299999999998,-0.711825,0.575471
2018-10-02T20:08:24.806017Z,-0.043701,-0.68799,-0.448113
2018-10-02T20:08:25.004017Z,0.11583099999999999,-0.036726,-0.15020899999999998
2018-10-02T20:08:25.206017Z,0.171205,-0.579407,1.14924
2018-10-02T20:08:25.396017Z,0.003393,-0.7904100000000001,-0.422329
2018-10-02T20:08:25.605017Z,-0.08645900000000001,-0.111323,-0.266007
2018-10-02T20:08:25.805017Z,0.38101199999999996,-0.220727,1.026365
2018-10-02T20:08:26.007017Z,-0.27876799999999996,-1.12775,0.08079
2018-10-02T20:08:26.205017Z,-0.144557,-0.369763,-0.760123
2018-10-02T20:08:26.406017Z,-1.1428459999999998,0.536329,0.633228
2018-10-02T20:08:26.607017Z,-1.6455939999999998,-1.9409189999999998,0.850709
2018-10-02T20:08:26.807017Z,-1.123837,-1.1275959999999998,-1.0124950000000001
2018-10-02T20:08:27.029017Z,-0.38222,0.323818,0.650691
2018-10-02T20:08:27.247017Z,-0.750026,-1.041682,1.2704739999999999
2018-10-02T20:08:27.396017Z,-0.5443939999999999,-1.413052,-1.1556870000000001
2018-10-02T20:08:27.633017Z,-0.646903,0.132036,0.25887899999999997
2018-10-02T20:08:27.834017Z,0.263206,-1.127143,1.5307870000000001
2018-10-02T20:08:28.038017Z,1.806893,-1.7215470000000002,-0.22213200000000002
2018-10-02T20:08:28.233017Z,0.5636899999999999,0.822435,-0.533813
2018-10-02T20:08:28.432017Z,0.257318,-0.41712899999999997,1.00494
2018-10-02T20:08:28.652017Z,1.191974,-0.9595610000000001,-0.026542000000000003
2018-10-02T20:08:28.833017Z,0.9755209999999999,-0.40055999999999997,-0.13489
2018-10-02T20:08:29.034017Z,-0.406441,0.8185359999999999,-0.202444
2018-10-02T20:08:29.234017Z,-0.13492300000000002,-0.182324,0.333687
2018-10-02T20:08:29.433017Z,1.310511,0.12123900000000001,-0.221664
2018-10-02T20:08:29.606017Z,0.768536,0.347496,0.271656
2018-10-02T20:08:29.810017Z,0.086376,-0.466805,0.280752
2018-10-02T20:08:29.999017Z,-0.21655700000000003,-0.521572,-0.302138
2018-10-02T20:08:30.200017Z,0.499381,0.54718,-0.547971
2018-10-02T20:08:30.416017Z,0.306804,0.829965,0.040243
2018-10-02T20:08:30.610017Z,-0.113749,0.319592,0.521356
2018-10-02T20:08:30.809017Z,0.154581,-0.59377,-0.26456599999999997
2018-10-02T20:08:30.999017Z,0.22521999999999998,0.21264899999999998,-0.447065
2018-10-02T20:08:31.210017Z,-0.067005,0.992209,0.368185
2018-10-02T20:08:31.410017Z,-0.811141,-0.044867000000000004,0.178058
2018-10-02T20:08:31.609017Z,-0.14919300000000002,-0.7828649999999999,-0.281976
2018-10-02T20:08:31.809017Z,0.089251,0.559265,-0.316963
2018-10-02T20:08:32.010017Z,0.213362,0.32245999999999997,0.728071
2018-10-02T20:08:32.209017Z,-0.17699,-0.558638,0.075515
2018-10-02T20:08:32.409017Z,0.498065,0.14238900000000002,-0.8797370000000001
2018-10-02T20:08:32.609017Z,0.812938,0.368772,0.9575309999999999
2018-10-02T20:08:32.810017Z,0.686566,-0.864893,0.34153
2018-10-02T20:08:33.011017Z,0.936624,-0.38056,-0.69996
2018-10-02T20:08:33.201017Z,0.773736,-0.005511,0.833333
2018-10-02T20:08:33.409017Z,0.039285,-0.646991,0.492758
2018-10-02T20:08:33.633017Z,0.5929770000000001,-0.510088,-0.367043
2018-10-02T20:08:33.811017Z,0.823961,-0.004195,-1.1e-05
2018-10-02T20:08:34.011017Z,0.814435,0.016361,0.772149
2018-10-02T20:08:34.212017Z,1.3744,-1.221065,0.018599
2018-10-02T20:08:34.411017Z,0.717102,-0.614322,-0.407116
2018-10-02T20:08:34.611017Z,0.059692999999999996,0.671538,0.280817
2018-10-02T20:08:34.812017Z,-0.47453500000000004,-0.375335,0.557711
2018-10-02T20:08:35.012017Z,0.38815,-0.627832,-0.54285
2018-10-02T20:08:35.213017Z,0.35443600000000003,-0.139665,0.252969
2018-10-02T20:08:35.413017Z,0.29231799999999997,-0.657895,0.929457
2018-10-02T20:08:35.650017Z,0.282468,-1.034522,-0.033269
2018-10-02T20:08:35.813017Z,-0.016024,0.08655700000000001,-0.440432
2018-10-02T20:08:36.013017Z,0.5649689999999999,-0.11963599999999999,0.412876
2018-10-02T20:08:36.213017Z,0.036107,-0.936364,0.553816
2018-10-02T20:08:36.413017Z,0.46350399999999997,-1.0192700000000001,0.226527
2018-10-02T20:08:36.613017Z,-0.042959,0.110293,-0.445254
2018-10-02T20:08:36.804017Z,1.0109,-0.8680950000000001,1.2222950000000001
2018-10-02T20:08:37.004017Z,0.310883,-0.78259,-0.816185
2018-10-02T20:08:37.213017Z,0.068702,-0.5170640000000001,0.503563
2018-10-02T20:08:37.405017Z,-0.509196,-0.535067,1.23492
2018-10-02T20:08:37.638017Z,-1.017109,-0.501771,-0.336861
2018-10-02T20:08:37.815017Z,-0.231866,-0.19802999999999998,-0.537025
2018-10-02T20:08:38.005017Z,-1.15794,0.33455300000000004,0.432561
2018-10-02T20:08:38.225017Z,-0.792285,-0.570924,0.31958000000000003
2018-10-02T20:08:38.415017Z,-0.879058,-0.22725700000000001,-0.34325
2018-10-02T20:08:38.614017Z,-0.41606499999999996,0.508843,-0.127671
2018-10-02T20:08:38.816017Z,0.444867,0.188181,0.37816700000000003
2018-10-02T20:08:39.015017Z,-0.408554,-0.064105,-0.235352
2018-10-02T20:08:39.216017Z,0.09468700000000001,0.380283,-0.569901
2018-10-02T20:08:39.415017Z,0.036312,0.257548,0.938514
2018-10-02T20:08:39.617017Z,-0.15573900000000002,-0.43168,0.005256
2018-10-02T20:08:39.834017Z,-0.28387199999999996,0.55601,-1.180557
2018-10-02T20:08:40.017017Z,-0.489163,0.528501,0.554808
2018-10-02T20:08:40.218017Z,-0.291677,-0.63167,0.77837
2018-10-02T20:08:40.417017Z,0.015681999999999998,-0.46174399999999993,-0.459002
2018-10-02T20:08:40.607017Z,0.726596,0.516774,-0.37961999999999996
2018-10-02T20:08:40.807017Z,0.9607040000000001,0.018667,1.3522040000000002
2018-10-02T20:08:41.007017Z,0.929233,-0.589387,-0.533233
2018-10-02T20:08:41.218017Z,0.7503989999999999,0.237048,-0.710893
2018-10-02T20:08:41.418017Z,0.320054,0.582145,0.617883
2018-10-02T20:08:41.618017Z,0.024081,-0.539035,0.165811
2018-10-02T20:08:41.819017Z,0.9683510000000001,-0.256973,-0.583573
2018-10-02T20:08:42.017017Z,0.36551100000000003,0.610417,0.292906
2018-10-02T20:08:42.219017Z,0.43753100000000006,-0.543304,0.655512
2018-10-02T20:08:42.425017Z,0.34485,-0.5320060000000001,-0.700654
2018-10-02T20:08:42.619017Z,0.49966400000000005,0.423116,-0.134985
2018-10-02T20:08:42.818017Z,0.295804,-0.330687,1.105505
2018-10-02T20:08:43.025017Z,0.523595,-0.442222,-0.329002
2018-10-02T20:08:43.219017Z,0.521774,-0.16050899999999999,0.255319
2018-10-02T20:08:43.418017Z,0.29586599999999996,0.019548,0.35173699999999997
2018-10-02T20:08:43.620017Z,0.221004,-0.8620190000000001,-0.274895
2018-10-02T20:08:43.820017Z,0.20239400000000002,-0.101758,-0.915149
2018-10-02T20:08:44.019017Z,-0.340302,0.324581,0.7894329999999999
2018-10-02T20:08:44.221017Z,-0.382168,-0.47426199999999996,0.26234
2018-10-02T20:08:44.419017Z,0.039795,-0.283314,-0.47815
2018-10-02T20:08:44.620017Z,-0.14693499999999998,0.366162,0.272513
2018-10-02T20:08:44.819017Z,-0.241954,-0.34162,0.30973
2018-10-02T20:08:45.020017Z,-0.016812999999999998,-0.6277119999999999,-0.42532
2018-10-02T20:08:45.219017Z,-0.198027,0.373893,0.050366
2018-10-02T20:08:45.410017Z,-0.540148,0.06473999999999999,0.9933139999999999
2018-10-02T20:08:45.620017Z,-0.43903400000000004,-0.346932,-0.902644
2018-10-02T20:08:45.820017Z,0.12649100000000002,0.016562999999999998,-0.309062
2018-10-02T20:08:46.021017Z,0.142431,0.31448000000000004,0.785309
2018-10-02T20:08:46.222017Z,-0.23493899999999998,-0.624445,-0.071166
2018-10-02T20:08:46.421017Z,-0.025112,0.0058130000000000005,-0.670285
2018-10-02T20:08:46.623017Z,0.002669,0.51193,0.66091
2018-10-02T20:08:46.821017Z,-0.467104,-0.291508,0.167328
2018-10-02T20:08:47.024017Z,-0.185928,-0.30090700000000004,-0.5902229999999999
2018-10-02T20:08:47.213017Z,0.15178599999999998,0.377684,-0.244554
2018-10-02T20:08:47.421017Z,0.364531,0.3496,0.624152
2018-10-02T20:08:47.625017Z,0.142171,-0.6537310000000001,-0.074544
2018-10-02T20:08:47.822017Z,0.351222,0.477825,-0.587001
2018-10-02T20:08:48.022017Z,-0.012276,-0.096438,0.7924
2018-10-02T20:08:48.223017Z,0.12207,-0.752739,0.204594
2018-10-02T20:08:48.421017Z,0.527833,-0.12743,-0.40937399999999996
2018-10-02T20:08:48.639017Z,0.36756300000000003,0.31752600000000003,0.001639
2018-10-02T20:08:48.814017Z,0.060004999999999996,-0.369,0.275394
2018-10-02T20:08:49.030017Z,0.16338699999999998,-0.340555,-0.252566
2018-10-02T20:08:49.229017Z,0.046799,0.278568,0.385804
2018-10-02T20:08:49.433017Z,0.204227,0.07196,0.47639799999999993
2018-10-02T20:08:49.628017Z,-0.7122930000000001,-0.610688,-0.40809
2018-10-02T20:08:49.824017Z,0.079413,0.396027,-1.0720020000000001
2018-10-02T20:08:50.035017Z,0.127947,0.923738,0.5471739999999999
2018-10-02T20:08:50.217017Z,0.325002,-0.128726,0.811233
2018-10-02T20:08:50.433017Z,0.232667,-0.9220780000000001,-0.6043109999999999
2018-10-02T20:08:50.628017Z,-0.21636799999999998,0.13541199999999998,0.360602
2018-10-02T20:08:50.836017Z,-0.082617,0.112169,0.174441
2018-10-02T20:08:51.027017Z,-0.731046,-0.41961800000000005,-0.272737
2018-10-02T20:08:51.233017Z,-0.055205,0.058338,-0.544212
2018-10-02T20:08:51.430017Z,-0.321362,0.815792,0.566814
2018-10-02T20:08:51.636017Z,-0.351567,-0.631178,0.221286
2018-10-02T20:08:51.832017Z,0.18176900000000001,-0.190217,-0.8724860000000001
2018-10-02T20:08:52.026017Z,-0.617001,0.624009,0.540395
2018-10-02T20:08:52.216017Z,-0.944947,-0.026117,0.16150499999999998
2018-10-02T20:08:52.452017Z,-0.231452,0.020306,-0.507792
2018-10-02T20:08:52.633017Z,-0.177819,0.639367,-0.192278
2018-10-02T20:08:52.829017Z,0.319183,-0.014188,0.817249
2018-10-02T20:08:53.017017Z,0.15819,-0.48038100000000006,-0.467271
2018-10-02T20:08:53.226017Z,-0.073934,-0.02472,0.177715
2018-10-02T20:08:53.462017Z,0.263621,-0.169086,0.031487
2018-10-02T20:08:53.638017Z,-0.03687,-0.610247,0.179094
2018-10-02T20:08:53.898017Z,0.21948099999999998,-0.31609699999999996,-0.016661000000000002
2018-10-02T20:08:54.018017Z,0.456024,-0.05879500000000001,0.087177
2018-10-02T20:08:54.229017Z,0.37494299999999997,0.026097000000000002,0.026673000000000002
2018-10-02T20:08:54.438017Z,0.299426,0.087987,0.044968
2018-10-02T20:08:54.631017Z,0.389407,0.180418,0.03685
2018-10-02T20:08:54.834017Z,0.429316,0.340609,-0.079368
2018-10-02T20:08:55.031017Z,0.586234,0.407233,-0.092597
2018-10-02T20:08:55.228017Z,0.627553,0.47632700000000006,-0.223867
2018-10-02T20:08:55.429017Z,0.5205350000000001,1.1456899999999999,-0.323396
2018-10-02T20:08:55.619017Z,0.252739,0.758492,-0.17915699999999998
2018-10-02T20:08:55.830017Z,0.042071,1.137584,0.266467
2018-10-02T20:08:56.029017Z,0.8735430000000001,-0.364323,0.390949
2018-10-02T20:08:56.233017Z,0.615152,-0.321294,-0.644937
2018-10-02T20:08:56.431017Z,0.515958,0.725907,-0.242627
2018-10-02T20:08:56.630017Z,0.732495,0.787349,0.377027
2018-10-02T20:08:56.838017Z,-0.363358,-0.923273,0.388441
2018-10-02T20:08:57.032017Z,0.200999,-0.34392,-0.735798
2018-10-02T20:08:57.236017Z,0.330937,0.22744499999999998,0.454531
2018-10-02T20:08:57.447017Z,0.4929,-0.34632399999999997,0.616536
2018-10-02T20:08:57.661017Z,0.567114,-0.858699,-0.5546840000000001
2018-10-02T20:08:57.858017Z,-0.145765,0.076068,0.28681100000000004
2018-10-02T20:08:58.026017Z,-0.164919,-0.23919200000000002,0.486601
2018-10-02T20:08:58.222017Z,-0.282562,-0.48243800000000003,-0.489942
2018-10-02T20:08:58.463017Z,-0.37972,0.082468,-0.09691
2018-10-02T20:08:58.657017Z,-0.143475,-0.24495100000000003,0.6641699999999999
2018-10-02T20:08:58.861017Z,-0.048844,-0.748845,-0.286231
2018-10-02T20:08:59.099017Z,-0.32312399999999997,-0.087724,-0.240769
2018-10-02T20:08:59.223017Z,-0.7098220000000001,0.16450499999999998,0.8939010000000001
2018-10-02T20:08:59.460017Z,-0.5295810000000001,-0.759113,-0.259598
2018-10-02T20:08:59.634017Z,-0.15879400000000002,0.200383,-0.628188
2018-10-02T20:08:59.832017Z,-0.096455,0.395692,0.55652
2018-10-02T20:09:00.032017Z,0.466334,-1.040314,0.5049600000000001
2018-10-02T20:09:00.242017Z,0.500263,-0.49960299999999996,-0.575399
2018-10-02T20:09:00.435017Z,0.301066,0.002131,0.133258
2018-10-02T20:09:00.635017Z,-0.24061300000000002,-0.024626,0.627366
2018-10-02T20:09:00.834017Z,-0.22060700000000003,-0.395148,-0.039062
2018-10-02T20:09:01.024017Z,-0.5097649999999999,0.077739,-0.5460109999999999
2018-10-02T20:09:01.241017Z,-1.163398,0.07778,0.606206
2018-10-02T20:09:01.469017Z,-1.002507,-0.858251,0.147844
2018-10-02T20:09:01.635017Z,-0.652385,-0.20383900000000002,-0.387236
2018-10-02T20:09:01.838017Z,-0.08945499999999999,0.599637,-0.268642
2018-10-02T20:09:02.037017Z,0.44313500000000006,0.346523,0.6366850000000001
2018-10-02T20:09:02.237017Z,0.545431,-0.194909,0.175073
2018-10-02T20:09:02.437017Z,0.723541,0.38164899999999996,-0.830183
2018-10-02T20:09:02.643017Z,1.084071,0.941634,0.14735399999999998
2018-10-02T20:09:02.840017Z,1.087636,0.43623900000000004,1.014505
2018-10-02T20:09:03.035017Z,1.121359,-0.967985,-0.442258
2018-10-02T20:09:03.235017Z,0.597225,0.333901,-0.525075
2018-10-02T20:09:03.436017Z,0.748638,1.280397,0.24222
2018-10-02T20:09:03.641017Z,-0.032006,-0.60528,0.459685
2018-10-02T20:09:03.841017Z,0.348546,0.11980299999999999,-1.095021
2018-10-02T20:09:04.026017Z,0.415088,0.696496,0.5704520000000001
2018-10-02T20:09:04.234017Z,0.5157579999999999,-0.151034,0.5034029999999999
2018-10-02T20:09:04.462017Z,0.496338,-0.626425,-0.647783
2018-10-02T20:09:04.636017Z,0.315019,0.14287,0.48313
2018-10-02T20:09:04.841017Z,-0.057698,-0.046610000000000006,0.24028000000000002
2018-10-02T20:09:05.081017Z,0.369398,-0.25522399999999995,-0.5280279999999999
2018-10-02T20:09:05.236017Z,0.10845199999999999,0.245389,0.028023000000000003
2018-10-02T20:09:05.427017Z,0.576383,0.043703,0.8555780000000001
2018-10-02T20:09:05.641017Z,0.378882,-0.22628800000000002,-0.767795
2018-10-02T20:09:05.843017Z,0.6989489999999999,0.442543,-0.157445
2018-10-02T20:09:06.046017Z,0.227559,0.72919,0.41673000000000004
2018-10-02T20:09:06.248017Z,-0.135034,-0.8482270000000001,0.317967
2018-10-02T20:09:06.438017Z,0.472049,-0.21992399999999998,-0.49382299999999996
2018-10-02T20:09:06.640017Z,0.23462800000000003,0.47111800000000004,0.371239
2018-10-02T20:09:06.838017Z,0.685385,-0.74017,0.23643499999999998
2018-10-02T20:09:07.043017Z,0.12525799999999998,-0.058963,-0.73627
2018-10-02T20:09:07.228017Z,0.267943,0.47262600000000005,0.400451
2018-10-02T20:09:07.428017Z,-0.584066,-0.217187,0.372056
2018-10-02T20:09:07.642017Z,-0.061974,0.06157000000000001,-0.763053
2018-10-02T20:09:07.846017Z,-0.11876099999999999,0.8401280000000001,0.374808
2018-10-02T20:09:08.043017Z,-0.058921,-0.038439999999999995,0.143978
2018-10-02T20:09:08.249017Z,0.232492,-0.519247,-0.538929
2018-10-02T20:09:08.448017Z,0.45278599999999997,0.299006,-0.025369
2018-10-02T20:09:08.641017Z,-0.225508,0.41435600000000006,0.526898
2018-10-02T20:09:08.829017Z,-0.163221,-0.548588,-0.078914
2018-10-02T20:09:09.053017Z,-0.188377,0.14306300000000002,-0.5998979999999999
2018-10-02T20:09:09.243017Z,-0.780841,-0.035565,1.288691
2018-10-02T20:09:09.446017Z,-0.6715939999999999,-1.03603,-0.04891
2018-10-02T20:09:09.633017Z,-0.17113,-0.5440649999999999,-0.569838
2018-10-02T20:09:09.839017Z,0.430753,0.394488,0.09487899999999999
2018-10-02T20:09:10.052017Z,0.720504,-0.120022,0.41445600000000005
2018-10-02T20:09:10.252017Z,0.376675,-0.264707,-0.438959
2018-10-02T20:09:10.452017Z,0.296748,0.46591099999999996,-0.028033
2018-10-02T20:09:10.650017Z,0.751084,-0.085893,0.892991
2018-10-02T20:09:10.863017Z,0.178651,-0.466954,-0.355629
2018-10-02T20:09:11.041017Z,-0.24869899999999998,0.008605,-0.524312
2018-10-02T20:09:11.232017Z,-0.17516199999999998,-0.11961300000000001,0.554597
2018-10-02T20:09:11.444017Z,-0.409557,-1.054466,0.429667
2018-10-02T20:09:11.647017Z,0.509231,-0.632905,-0.440047
2018-10-02T20:09:11.844017Z,0.672972,-0.013059999999999999,0.448009
2018-10-02T20:09:12.041017Z,1.134674,-0.270065,-0.074803
2018-10-02T20:09:12.252017Z,0.848182,-0.405762,0.24528200000000003
2018-10-02T20:09:12.452017Z,0.9795280000000001,-0.37372,0.43366400000000005
2018-10-02T20:09:12.644017Z,0.603847,-0.531638,0.6697770000000001
2018-10-02T20:09:12.843017Z,0.661254,-0.5456880000000001,-0.400886
2018-10-02T20:09:13.044017Z,0.9685040000000001,2.1e-05,-0.341458
2018-10-02T20:09:13.233017Z,0.702058,0.185776,0.388824
2018-10-02T20:09:13.449017Z,0.5054649999999999,-0.820818,0.487724
2018-10-02T20:09:13.654017Z,0.557954,-0.53893,-0.5474899999999999
2018-10-02T20:09:13.880017Z,-0.192389,-0.257171,0.5937060000000001
2018-10-02T20:09:14.044017Z,0.00394,-0.813296,0.719167
2018-10-02T20:09:14.252017Z,1.21536,-0.473612,-0.474497
2018-10-02T20:09:14.444017Z,1.4716,-0.21337199999999998,0.899331
2018-10-02T20:09:14.654017Z,1.41773,-1.608827,0.48705299999999996
2018-10-02T20:09:14.852017Z,2.263345,-2.033166,0.396998
2018-10-02T20:09:15.050017Z,0.7448100000000001,-0.541796,0.371586
2018-10-02T20:09:15.244017Z,0.312776,-0.120354,0.5406529999999999
2018-10-02T20:09:15.445017Z,-0.459348,-1.343422,0.266547
2018-10-02T20:09:15.719017Z,-0.0458,-0.568929,-0.130717
2018-10-02T20:09:15.846017Z,-0.022345,0.748276,-0.216969
2018-10-02T20:09:16.079017Z,0.06927,-0.669221,0.764104
2018-10-02T20:09:16.253017Z,-0.028663,-0.976089,-0.299295
2018-10-02T20:09:16.436017Z,-0.015729,-0.29397199999999996,0.055202
2018-10-02T20:09:16.646017Z,-0.18349100000000002,-0.42840100000000003,1.056214
2018-10-02T20:09:16.848017Z,-0.933343,-0.843413,-0.466279
2018-10-02T20:09:17.055017Z,-0.32095300000000004,-0.41882299999999995,-0.272099
2018-10-02T20:09:17.248017Z,-0.741934,0.455266,0.533475
2018-10-02T20:09:17.438017Z,-1.253601,-0.952817,-0.028504
2018-10-02T20:09:17.647017Z,-0.8164859999999999,-1.123559,-0.19285
2018-10-02T20:09:17.852017Z,-1.150034,-1.263827,0.567968
2018-10-02T20:09:18.055017Z,-1.107853,-1.255611,0.20360799999999998
2018-10-02T20:09:18.254017Z,-0.789762,-1.304562,0.019091
2018-10-02T20:09:18.439017Z,-0.047715,-1.314929,0.421228
2018-10-02T20:09:18.647017Z,0.409688,-1.098646,0.681167
2018-10-02T20:09:18.857017Z,0.8629680000000001,-0.299829,0.46202200000000004
2018-10-02T20:09:19.039017Z,1.264289,-0.505116,-0.406198
2018-10-02T20:09:19.253017Z,1.112916,-0.158417,0.9295690000000001
2018-10-02T20:09:19.439017Z,-0.080512,-0.902552,0.537509
2018-10-02T20:09:19.649017Z,-0.008126999999999999,-0.9979030000000001,-0.314137
2018-10-02T20:09:19.849017Z,1.497528,-0.26034,-0.191365
2018-10-02T20:09:20.054017Z,0.312294,-0.9298,1.107432
2018-10-02T20:09:20.254017Z,0.400654,-0.558867,-0.6782100000000001
2018-10-02T20:09:20.453017Z,-0.254563,0.046137,0.329252
2018-10-02T20:09:20.653017Z,-1.010438,-0.38907800000000003,0.494766
2018-10-02T20:09:20.849017Z,-0.674457,-0.5887720000000001,-0.573597
2018-10-02T20:09:21.050017Z,-0.049618,0.08022699999999999,0.374781
2018-10-02T20:09:21.260017Z,0.486907,-0.39441,0.23275700000000002
2018-10-02T20:09:21.460017Z,0.336392,-0.428755,-0.254531
2018-10-02T20:09:21.661017Z,0.113249,0.423304,-0.6745140000000001
2018-10-02T20:09:21.851017Z,-0.00864,-0.001326,1.073216
2018-10-02T20:09:22.050017Z,0.256704,-0.825569,0.136766
2018-10-02T20:09:22.242017Z,0.273494,-0.19487100000000002,-0.364055
2018-10-02T20:09:22.456017Z,0.056669000000000004,-0.004638000000000001,0.574335
2018-10-02T20:09:22.729017Z,0.198376,-0.696641,0.003922
2018-10-02T20:09:22.854017Z,0.355995,0.036514,-0.642379
2018-10-02T20:09:23.068017Z,-0.552165,0.383831,0.242394
2018-10-02T20:09:23.258017Z,-1.344223,-0.696729,0.581195
2018-10-02T20:09:23.457017Z,-0.703279,-0.282543,-0.611563
2018-10-02T20:09:23.666017Z,-0.017281,0.038433999999999996,0.068426
2018-10-02T20:09:23.862017Z,0.693427,-0.046352,0.751135
2018-10-02T20:09:24.053017Z,1.0688090000000001,-1.0602209999999999,0.055987
2018-10-02T20:09:24.251017Z,0.9140219999999999,-0.723254,-0.043429
2018-10-02T20:09:24.461017Z,0.9784799999999999,-0.24054899999999999,0.089561
2018-10-02T20:09:24.659017Z,0.670931,0.038183,-0.11193
2018-10-02T20:09:24.860017Z,-0.141042,-0.21506199999999998,0.08489400000000001
2018-10-02T20:09:25.057017Z,0.259855,-0.845037,1.0588469999999999
2018-10-02T20:09:25.255017Z,0.5766640000000001,-0.089587,-0.170214
2018-10-02T20:09:25.452017Z,0.6898850000000001,-0.426525,-0.357007
2018-10-02T20:09:25.659017Z,0.8292010000000001,1.238872,-0.026249
2018-10-02T20:09:25.945017Z,0.636772,1.205537,0.19151400000000002
2018-10-02T20:09:26.054017Z,0.610374,0.979633,-0.413925
2018-10-02T20:09:26.256017Z,0.625202,0.785082,0.102221
2018-10-02T20:09:26.453017Z,0.411246,1.143818,-0.22993400000000003
2018-10-02T20:09:26.660017Z,0.951117,0.320664,0.24583000000000002
2018-10-02T20:09:26.862017Z,0.568916,-0.44327700000000003,-0.040604
2018-10-02T20:09:27.064017Z,0.7179300000000001,-0.284986,-0.182361
2018-10-02T20:09:27.263017Z,0.770799,-0.053438,0.477538
2018-10-02T20:09:27.454017Z,1.104905,-0.535784,0.012602
2018-10-02T20:09:27.645017Z,1.4658,-0.534049,-0.148776
2018-10-02T20:09:27.852017Z,1.066273,-0.35241500000000003,0.549144
2018-10-02T20:09:28.058017Z,1.234344,-1.028184,1.007962
2018-10-02T20:09:28.247017Z,1.175704,-0.513195,-0.977886
2018-10-02T20:09:28.483017Z,0.026966000000000004,0.022956,0.133434
2018-10-02T20:09:28.680017Z,0.370687,0.055284,0.9196479999999999
2018-10-02T20:09:28.885017Z,0.7437010000000001,-1.603391,-0.141848
2018-10-02T20:09:29.088017Z,0.371085,-0.5938319999999999,-0.36472
2018-10-02T20:09:29.288017Z,-0.049905,-0.198177,0.657939
2018-10-02T20:09:29.510017Z,-0.860301,-0.787363,0.089284
2018-10-02T20:09:29.717017Z,-0.502242,-0.31698899999999997,-0.586671
2018-10-02T20:09:29.855017Z,-1.062447,-0.175227,0.495975
2018-10-02T20:09:30.048017Z,-1.5156100000000001,-1.213848,0.693615
2018-10-02T20:09:30.264017Z,-1.1487530000000001,-0.35186300000000004,-0.41676899999999995
2018-10-02T20:09:30.462017Z,-0.326396,-0.18979000000000001,0.17055499999999998
2018-10-02T20:09:30.658017Z,0.135247,-0.666567,0.9008940000000001
2018-10-02T20:09:30.857017Z,0.132468,-0.265246,-0.643609
2018-10-02T20:09:31.063017Z,-0.1183,0.6270439999999999,-0.609428
2018-10-02T20:09:31.267017Z,0.23776,0.385346,0.832509
2018-10-02T20:09:31.460017Z,0.44370299999999996,-0.601967,0.13593
2018-10-02T20:09:31.663017Z,1.109708,-0.149092,-0.5106390000000001
2018-10-02T20:09:31.848017Z,0.6510859999999999,0.283271,0.282711
