Datetime,accx,accy,accz
2018-09-26T18:10:18.478529Z,0.0,0.0,0.0
2018-09-26T18:10:18.720529Z,0.41692299999999993,0.246641,-0.043931
2018-09-26T18:10:18.920529Z,0.27366599999999996,0.195437,-0.267702
2018-09-26T18:10:19.120529Z,0.317227,0.504931,0.252923
2018-09-26T18:10:19.318529Z,0.407331,0.178633,1.7673459999999999
2018-09-26T18:10:19.519529Z,-0.405783,-1.191338,-1.8024189999999998
2018-09-26T18:10:19.723529Z,-0.045124,-0.08025499999999999,0.012111
2018-09-26T18:10:19.919529Z,0.002124,0.272456,0.683372
2018-09-26T18:10:20.120529Z,0.662667,-1.102755,0.408895
2018-09-26T18:10:20.320529Z,0.47438500000000006,-0.256858,0.12218599999999999
2018-09-26T18:10:20.525529Z,0.536552,-0.179352,0.578395
2018-09-26T18:10:20.721529Z,0.664153,-1.544859,0.494866
2018-09-26T18:10:20.921529Z,1.229147,-1.2873379999999999,-0.38489
2018-09-26T18:10:21.121529Z,0.432015,-0.414307,0.35046
2018-09-26T18:10:21.320529Z,0.028919999999999998,-0.480121,0.765824
2018-09-26T18:10:21.523529Z,0.588645,-1.545487,0.29076599999999997
2018-09-26T18:10:21.721529Z,1.2370450000000002,-1.6970740000000002,-0.348767
2018-09-26T18:10:21.922529Z,1.3668129999999998,0.098444,0.8619530000000001
2018-09-26T18:10:22.146529Z,1.931423,-1.7204869999999999,1.7037919999999998
2018-09-26T18:10:22.321529Z,1.867105,-2.599641,0.015205000000000002
2018-09-26T18:10:22.618529Z,2.404354,-1.381214,0.077907
2018-09-26T18:10:22.736529Z,1.176244,0.34471,0.494433
2018-09-26T18:10:22.923529Z,0.331795,-1.226122,2.097107
2018-09-26T18:10:23.123529Z,0.280876,-1.919813,-0.5593600000000001
2018-09-26T18:10:23.323529Z,0.604876,-0.8380120000000001,-0.8074359999999999
2018-09-26T18:10:23.525529Z,0.11438800000000002,-0.230134,1.576673
2018-09-26T18:10:23.724529Z,-0.256576,-1.076198,-0.680972
2018-09-26T18:10:23.924529Z,0.341197,-0.9290200000000001,-0.9755590000000001
2018-09-26T18:10:24.124529Z,0.638466,-0.375659,0.439143
2018-09-26T18:10:24.342529Z,0.8100229999999999,-1.445971,-0.329088
2018-09-26T18:10:24.543529Z,0.815458,-1.227091,-0.818288
2018-09-26T18:10:24.746529Z,0.25011500000000003,0.20647800000000002,0.253297
2018-09-26T18:10:24.945529Z,0.6512819999999999,0.186977,1.039177
2018-09-26T18:10:25.125529Z,0.348095,-0.839037,-0.7323930000000001
2018-09-26T18:10:25.325529Z,0.266372,-0.356091,0.22328
2018-09-26T18:10:25.561529Z,0.26843,-0.138377,0.867662
2018-09-26T18:10:25.726529Z,0.20797,-0.8562620000000001,0.371423
2018-09-26T18:10:25.925529Z,-0.252225,-0.64498,-0.28213299999999997
2018-09-26T18:10:26.124529Z,-0.112302,0.134733,-0.07283300000000001
2018-09-26T18:10:26.325529Z,0.543033,0.7517119999999999,0.314091
2018-09-26T18:10:26.526529Z,0.480862,0.171255,0.736089
2018-09-26T18:10:26.726529Z,0.220336,-0.07481499999999999,-1.045736
2018-09-26T18:10:26.927529Z,0.520324,0.561527,-0.073763
2018-09-26T18:10:27.127529Z,0.499849,-0.020693,0.879337
2018-09-26T18:10:27.327529Z,0.576569,-0.870051,0.966792
2018-09-26T18:10:27.533529Z,1.297056,-0.193399,-0.6133850000000001
2018-09-26T18:10:27.726529Z,0.51117,0.7213890000000001,0.603653
2018-09-26T18:10:27.926529Z,0.462154,-1.090176,1.519534
2018-09-26T18:10:28.126529Z,0.42831,-0.7533989999999999,-0.6434310000000001
2018-09-26T18:10:28.326529Z,0.41213900000000003,0.17675,-0.52688
2018-09-26T18:10:28.526529Z,0.23261700000000002,1.0732549999999998,0.497357
2018-09-26T18:10:28.731529Z,0.478196,-0.39574699999999996,1.353988
2018-09-26T18:10:28.944529Z,-0.106925,-1.288403,-0.35725100000000004
2018-09-26T18:10:29.127529Z,0.274685,0.04118,-0.32153000000000004
2018-09-26T18:10:29.327529Z,0.119145,0.774694,0.7874869999999999
2018-09-26T18:10:29.528529Z,-0.065214,-0.890236,0.788795
2018-09-26T18:10:29.728529Z,0.10418399999999998,-1.459373,-0.429228
2018-09-26T18:10:29.929529Z,2.1822060000000003,-1.0887850000000001,0.6344479999999999
2018-09-26T18:10:30.129529Z,2.3332349999999997,-1.844264,1.513279
2018-09-26T18:10:30.330529Z,1.044055,-2.184984,0.088436
2018-09-26T18:10:30.529529Z,0.5708270000000001,-1.529292,0.16744
2018-09-26T18:10:30.730529Z,0.134353,-0.359498,1.3307200000000001
2018-09-26T18:10:30.929529Z,-1.06185,-1.810974,-0.238537
2018-09-26T18:10:31.130529Z,0.036095,-0.914269,-1.026786
2018-09-26T18:10:31.331529Z,0.373029,-0.02765,0.14682
2018-09-26T18:10:31.529529Z,0.192433,-0.6777529999999999,0.962802
2018-09-26T18:10:31.730529Z,0.227528,-2.075581,-0.46792399999999995
2018-09-26T18:10:31.930529Z,0.035179,-0.673145,-0.904302
2018-09-26T18:10:32.150529Z,0.28328000000000003,0.190167,0.157127
2018-09-26T18:10:32.332529Z,-0.209458,-0.362334,1.86178
2018-09-26T18:10:32.530529Z,-0.128308,-2.106807,-0.116578
2018-09-26T18:10:32.733529Z,0.398906,-0.805944,-0.502455
2018-09-26T18:10:32.989529Z,0.29789899999999997,-0.217277,-0.135323
2018-09-26T18:10:33.132529Z,-0.883977,-0.9208200000000001,1.279032
2018-09-26T18:10:33.330529Z,-1.278009,-1.7276790000000002,-0.283598
2018-09-26T18:10:33.532529Z,-1.4069129999999999,-0.920268,0.070661
2018-09-26T18:10:33.731529Z,-0.391462,-1.191671,0.8074819999999999
2018-09-26T18:10:33.933529Z,0.275334,-0.471415,-0.503789
2018-09-26T18:10:34.133529Z,0.841674,0.271988,0.194934
2018-09-26T18:10:34.333529Z,1.0947850000000001,0.82465,-0.125776
2018-09-26T18:10:34.533529Z,1.541459,1.2129219999999998,0.501028
2018-09-26T18:10:34.735529Z,0.863598,-0.6660729999999999,-0.9355889999999999
2018-09-26T18:10:34.940529Z,1.0441989999999999,0.341381,-0.844425
2018-09-26T18:10:35.133529Z,1.235347,1.313713,0.597372
2018-09-26T18:10:35.335529Z,0.475181,0.471541,0.998944
2018-09-26T18:10:35.534529Z,0.8581989999999999,-1.04514,-0.705075
2018-09-26T18:10:35.756529Z,0.961227,-0.054304,-0.5929800000000001
2018-09-26T18:10:35.933529Z,0.23090300000000002,1.041935,0.596531
2018-09-26T18:10:36.153529Z,0.06116799999999999,-0.7627149999999999,1.7469720000000002
2018-09-26T18:10:36.354529Z,0.547419,-0.517687,-0.8609700000000001
2018-09-26T18:10:36.551529Z,0.29422,0.391762,-0.240321
2018-09-26T18:10:36.735529Z,0.546079,0.986469,0.574258
2018-09-26T18:10:36.933529Z,-0.04718,0.530725,1.20533
2018-09-26T18:10:37.135529Z,0.45806099999999994,-0.7095779999999999,-1.234731
2018-09-26T18:10:37.336529Z,0.418745,0.413872,-1.171034
2018-09-26T18:10:37.535529Z,0.188342,1.181805,1.405273
2018-09-26T18:10:37.736529Z,0.872582,-1.075908,2.04451
2018-09-26T18:10:37.955529Z,0.763621,-0.638364,-0.883441
2018-09-26T18:10:38.135529Z,0.9141450000000001,0.592571,-0.49923100000000004
2018-09-26T18:10:38.335529Z,1.172971,0.186522,1.7367689999999998
2018-09-26T18:10:38.537529Z,0.793161,-2.370052,1.434878
2018-09-26T18:10:38.737529Z,2.720533,-2.375991,0.9030889999999999
2018-09-26T18:10:38.936529Z,1.000584,-2.404402,0.410667
2018-09-26T18:10:39.136529Z,-0.310089,-1.4990709999999998,0.857316
2018-09-26T18:10:39.336529Z,0.118996,-0.731707,-0.20802600000000002
2018-09-26T18:10:39.539529Z,0.10579100000000001,-0.730204,0.755659
2018-09-26T18:10:39.749529Z,0.720508,-1.412416,-0.5950810000000001
2018-09-26T18:10:39.938529Z,0.612459,-0.350506,-0.039154
2018-09-26T18:10:40.138529Z,0.477285,0.300197,-0.553297
2018-09-26T18:10:40.354529Z,-0.8625639999999999,-1.419076,0.892893
2018-09-26T18:10:40.555529Z,0.147124,-1.304991,-1.070639
2018-09-26T18:10:40.774529Z,0.37495500000000004,-0.502325,-0.886333
2018-09-26T18:10:40.952529Z,0.607163,0.367534,0.7741060000000001
2018-09-26T18:10:41.140529Z,0.7526609999999999,-2.001602,-0.481412
2018-09-26T18:10:41.339529Z,0.984384,-1.021674,-1.192916
2018-09-26T18:10:41.555529Z,0.691752,-0.049426,0.007555
2018-09-26T18:10:41.738529Z,0.635016,0.6599149999999999,1.8837380000000001
2018-09-26T18:10:41.940529Z,-0.16028599999999998,-1.0239209999999999,-1.09313
2018-09-26T18:10:42.140529Z,0.035639,-0.059299,-0.50174
2018-09-26T18:10:42.341529Z,-0.181145,0.693068,0.708094
2018-09-26T18:10:42.541529Z,0.509885,-0.8752719999999999,1.643039
2018-09-26T18:10:42.803529Z,0.7385689999999999,-0.815695,-0.7551640000000001
2018-09-26T18:10:42.940529Z,0.18266,0.027752,-0.055390999999999996
2018-09-26T18:10:43.147529Z,0.25150100000000003,0.24957600000000002,1.134943
2018-09-26T18:10:43.340529Z,-0.5776020000000001,-1.1991459999999998,0.568503
2018-09-26T18:10:43.558529Z,0.052578999999999994,0.120521,-0.766756
2018-09-26T18:10:43.740529Z,0.19153499999999998,0.492225,1.248732
2018-09-26T18:10:43.942529Z,0.41698,-0.849166,1.518702
2018-09-26T18:10:44.159529Z,0.5413,-1.184659,-1.202404
2018-09-26T18:10:44.342529Z,0.324253,0.482389,0.688429
2018-09-26T18:10:44.543529Z,-0.015804,0.127653,1.448862
2018-09-26T18:10:44.743529Z,-0.37647800000000003,-1.1542459999999999,-0.751909
2018-09-26T18:10:44.953529Z,0.19983599999999999,-0.692145,-0.589305
2018-09-26T18:10:45.143529Z,0.341803,0.706501,1.04291
2018-09-26T18:10:45.342529Z,0.704244,-1.124991,0.854042
2018-09-26T18:10:45.544529Z,0.34276599999999996,-1.015521,-0.769884
2018-09-26T18:10:45.742529Z,0.175043,-0.004581,-0.9369629999999999
2018-09-26T18:10:45.945529Z,-0.6536489999999999,-0.6036560000000001,1.217193
2018-09-26T18:10:46.144529Z,-0.69214,-0.565082,-1.0824799999999999
2018-09-26T18:10:46.345529Z,0.164082,-0.144585,-0.5226529999999999
2018-09-26T18:10:46.545529Z,0.181599,0.580836,0.735677
2018-09-26T18:10:46.745529Z,0.42660200000000004,-1.889066,-0.104322
2018-09-26T18:10:46.985529Z,0.6405270000000001,-1.3092709999999999,0.037381
2018-09-26T18:10:47.144529Z,0.629109,-0.23757899999999998,-0.32008400000000004
2018-09-26T18:10:47.344529Z,1.054243,-0.21785100000000002,0.916432
2018-09-26T18:10:47.555529Z,1.266727,-1.4975319999999999,0.9020100000000001
2018-09-26T18:10:47.745529Z,0.8215120000000001,-1.3645049999999999,0.246655
2018-09-26T18:10:47.946529Z,0.099535,-0.586477,0.06834900000000001
2018-09-26T18:10:48.145529Z,-0.160691,-0.39847899999999997,0.534323
2018-09-26T18:10:48.386529Z,-0.199797,-1.451316,1.2341010000000001
2018-09-26T18:10:48.547529Z,0.25969200000000003,-0.980608,-0.807817
2018-09-26T18:10:48.807529Z,0.197286,-0.509125,-0.19397
2018-09-26T18:10:48.945529Z,-0.003281,0.286146,0.057241
2018-09-26T18:10:49.146529Z,-0.700738,-1.474988,0.274013
2018-09-26T18:10:49.349529Z,0.07900700000000001,-0.619853,-0.382457
2018-09-26T18:10:49.548529Z,0.25538,0.206573,-0.292769
2018-09-26T18:10:49.748529Z,0.435305,-0.017543,1.585428
2018-09-26T18:10:49.947529Z,0.273325,-1.485687,0.12128299999999999
2018-09-26T18:10:50.149529Z,0.199535,-0.679951,-0.606511
2018-09-26T18:10:50.347529Z,0.19678900000000002,-0.037385,0.136377
2018-09-26T18:10:50.547529Z,0.136284,0.619016,0.923657
2018-09-26T18:10:50.748529Z,-0.251402,-1.3799700000000001,-0.33671999999999996
2018-09-26T18:10:50.948529Z,0.09475399999999999,-0.49808800000000003,-0.599206
2018-09-26T18:10:51.149529Z,0.258801,0.255835,0.305117
2018-09-26T18:10:51.348529Z,0.20080599999999998,0.146137,1.447236
2018-09-26T18:10:51.548529Z,0.017145,-1.0340260000000001,-0.465735
2018-09-26T18:10:51.749529Z,0.057555999999999996,0.22681300000000001,-0.19072999999999998
2018-09-26T18:10:51.949529Z,0.24061999999999997,-0.012976,1.2665469999999999
2018-09-26T18:10:52.148529Z,-0.169282,-0.993477,1.167505
2018-09-26T18:10:52.349529Z,-0.07322200000000001,-0.276071,-0.23396399999999998
2018-09-26T18:10:52.549529Z,-0.14927200000000002,0.357665,0.021144999999999997
2018-09-26T18:10:52.765529Z,0.048101,-0.031391,1.1032440000000001
2018-09-26T18:10:52.949529Z,0.8263469999999999,-1.223051,0.44619
2018-09-26T18:10:53.149529Z,0.389764,0.388106,-0.495993
2018-09-26T18:10:53.350529Z,0.33174499999999996,0.755605,0.26656399999999997
2018-09-26T18:10:53.551529Z,0.052747,0.45075200000000004,1.2859770000000001
2018-09-26T18:10:53.752529Z,-0.736684,-1.774091,0.652543
2018-09-26T18:10:53.951529Z,0.11358199999999999,-0.167021,-0.278071
2018-09-26T18:10:54.157529Z,-0.08898400000000001,0.5517529999999999,0.363656
2018-09-26T18:10:54.351529Z,-0.583277,0.665696,0.148205
2018-09-26T18:10:54.551529Z,-0.449984,-1.1257270000000001,-0.101094
2018-09-26T18:10:54.752529Z,0.060247,0.17836,-0.409418
2018-09-26T18:10:54.952529Z,-0.13477999999999998,0.842492,-0.20746799999999999
2018-09-26T18:10:55.152529Z,0.28376799999999996,0.704986,1.127443
2018-09-26T18:10:55.354529Z,-0.711721,-1.403182,1.074912
2018-09-26T18:10:55.552529Z,0.10521400000000002,0.251176,-0.675914
2018-09-26T18:10:55.753529Z,0.147136,0.725513,0.5043380000000001
2018-09-26T18:10:55.954529Z,0.591961,-0.216908,0.751943
2018-09-26T18:10:56.154529Z,0.46946800000000005,-0.801373,-0.45459700000000003
2018-09-26T18:10:56.359529Z,0.64245,0.399196,-0.616872
2018-09-26T18:10:56.553529Z,0.895884,0.545405,0.800747
2018-09-26T18:10:56.764529Z,0.733104,-0.44943599999999995,0.507019
2018-09-26T18:10:56.954529Z,0.576006,-0.594024,-0.86992
2018-09-26T18:10:57.155529Z,0.019549,0.08416699999999999,-0.151903
2018-09-26T18:10:57.354529Z,-0.12806800000000002,0.190762,0.713114
2018-09-26T18:10:57.555529Z,0.057638999999999996,-1.279083,0.9685219999999999
2018-09-26T18:10:57.756529Z,-0.279953,-0.352088,-1.43816
2018-09-26T18:10:57.955529Z,0.5123479999999999,0.280326,0.137994
2018-09-26T18:10:58.155529Z,0.056625,0.9418860000000001,0.60578
2018-09-26T18:10:58.356529Z,-0.718124,-1.3982809999999999,0.993836
2018-09-26T18:10:58.555529Z,-0.553863,-1.261317,-1.034958
2018-09-26T18:10:58.756529Z,-0.24601900000000002,0.294498,-0.454612
2018-09-26T18:10:58.955529Z,0.291392,0.7999390000000001,0.75042
2018-09-26T18:10:59.156529Z,-0.077785,-0.7506550000000001,0.570258
2018-09-26T18:10:59.356529Z,0.106109,-1.315762,-0.570771
2018-09-26T18:10:59.556529Z,0.227341,0.394527,-0.670107
2018-09-26T18:10:59.756529Z,0.214986,0.46759700000000004,0.42908500000000005
2018-09-26T18:10:59.956529Z,-0.592619,-0.137391,0.6568350000000001
2018-09-26T18:11:00.156529Z,-0.484476,-0.73665,-0.38539
2018-09-26T18:11:00.356529Z,0.063003,0.639946,-0.593841
2018-09-26T18:11:00.557529Z,-0.007326000000000001,0.604321,1.147125
2018-09-26T18:11:00.758529Z,0.48403599999999997,-0.077288,0.112749
2018-09-26T18:11:00.979529Z,0.348089,-1.074834,-0.687372
2018-09-26T18:11:01.157529Z,0.515582,0.499349,-0.403429
2018-09-26T18:11:01.357529Z,0.41256499999999996,0.695221,0.180323
2018-09-26T18:11:01.558529Z,-0.036818000000000004,0.104229,0.811133
2018-09-26T18:11:01.757529Z,-0.49920600000000004,-1.027253,-0.188696
2018-09-26T18:11:01.958529Z,-0.134661,0.45381499999999997,-1.1075549999999998
2018-09-26T18:11:02.159529Z,0.108873,0.919834,0.71997
2018-09-26T18:11:02.359529Z,0.13413,-0.378331,0.964794
2018-09-26T18:11:02.559529Z,0.056771,-1.026613,-0.687882
2018-09-26T18:11:02.759529Z,0.299352,0.20825700000000003,-0.079291
2018-09-26T18:11:02.960529Z,0.13858099999999998,0.401632,1.0347629999999999
2018-09-26T18:11:03.159529Z,-0.10323900000000001,-1.481924,0.059974
2018-09-26T18:11:03.359529Z,-0.19506099999999998,-0.7081310000000001,-1.0211139999999999
2018-09-26T18:11:03.560529Z,0.142219,0.549882,0.18878599999999998
2018-09-26T18:11:03.760529Z,0.38495799999999997,0.208891,0.773363
2018-09-26T18:11:03.971529Z,0.383681,-1.181325,-0.11985699999999999
2018-09-26T18:11:04.159529Z,0.209377,-0.440468,-1.0433270000000001
2018-09-26T18:11:04.360529Z,0.42696999999999996,0.8913530000000001,0.403233
2018-09-26T18:11:04.561529Z,-0.06138,0.150315,1.1075959999999998
2018-09-26T18:11:04.762529Z,-0.413918,-1.5044170000000001,0.349342
2018-09-26T18:11:04.962529Z,0.04415,-0.45558999999999994,-1.158647
2018-09-26T18:11:05.162529Z,-0.26085,0.726586,0.27875700000000003
2018-09-26T18:11:05.361529Z,-0.11710599999999999,-0.09716799999999999,1.0568540000000002
2018-09-26T18:11:05.562529Z,-0.080837,-1.114614,-0.516913
2018-09-26T18:11:05.762529Z,0.020274,-0.47059300000000004,-0.7486010000000001
2018-09-26T18:11:05.963529Z,0.18958599999999998,0.7834369999999999,0.42757
2018-09-26T18:11:06.185529Z,-0.094038,-0.30888699999999997,0.781193
2018-09-26T18:11:06.362529Z,-0.802072,-0.759925,-0.609793
2018-09-26T18:11:06.563529Z,-0.12475499999999999,-0.076487,-0.8543709999999999
2018-09-26T18:11:06.774529Z,-0.033844,0.688905,0.6032890000000001
2018-09-26T18:11:06.978529Z,-0.239118,-0.420958,-0.223271
2018-09-26T18:11:07.163529Z,0.009969,-0.620408,-0.34602
2018-09-26T18:11:07.364529Z,0.1774,0.308944,-0.959973
2018-09-26T18:11:07.563529Z,0.5690729999999999,1.2801200000000001,0.569621
2018-09-26T18:11:07.763529Z,-0.6770619999999999,-1.430741,1.273685
2018-09-26T18:11:07.964529Z,-0.304823,-0.615237,-1.5545010000000001
2018-09-26T18:11:08.164529Z,0.43238000000000004,0.291394,-0.7888
2018-09-26T18:11:08.364529Z,0.250922,0.288475,1.6818939999999998
2018-09-26T18:11:08.567529Z,0.217529,-1.558219,-0.8870680000000001
2018-09-26T18:11:08.766529Z,0.029947,-0.401188,-0.7122430000000001
2018-09-26T18:11:08.964529Z,-0.094937,0.639225,-0.541556
2018-09-26T18:11:09.164529Z,-0.230066,-0.5130899999999999,1.623173
2018-09-26T18:11:09.384529Z,-0.242812,-0.6138560000000001,-0.865094
2018-09-26T18:11:09.565529Z,0.153425,0.216973,-0.672138
2018-09-26T18:11:09.766529Z,0.125668,0.8828520000000001,0.166451
2018-09-26T18:11:09.966529Z,0.5160319999999999,-0.7265229999999999,-0.075097
2018-09-26T18:11:10.167529Z,0.338656,-0.546491,-0.319968
2018-09-26T18:11:10.367529Z,0.55766,0.45324200000000003,-0.579306
2018-09-26T18:11:10.566529Z,0.854907,0.6223029999999999,0.985188
2018-09-26T18:11:10.767529Z,0.399595,-1.869155,0.662034
2018-09-26T18:11:10.967529Z,2.21238,-1.604256,0.164609
2018-09-26T18:11:11.169529Z,1.407032,-1.197101,0.11314400000000001
2018-09-26T18:11:11.381529Z,0.159858,-1.2594889999999999,0.5606369999999999
2018-09-26T18:11:11.566529Z,0.47906000000000004,-1.645546,0.231133
2018-09-26T18:11:11.783529Z,0.5158,-1.718058,0.008302
2018-09-26T18:11:11.968529Z,0.484232,-0.565975,0.15788
2018-09-26T18:11:12.169529Z,0.464553,-0.265746,1.250802
2018-09-26T18:11:12.369529Z,-0.631943,-2.09195,0.397611
2018-09-26T18:11:12.569529Z,-0.5406529999999999,-1.1550049999999998,-0.65485
2018-09-26T18:11:12.769529Z,0.281277,-0.49017299999999997,0.594025
2018-09-26T18:11:12.969529Z,0.854384,-0.9938040000000001,1.7241630000000001
2018-09-26T18:11:13.170529Z,0.5349729999999999,-1.247425,-0.46140200000000003
2018-09-26T18:11:13.447529Z,-0.004340999999999999,-0.499778,0.5966020000000001
2018-09-26T18:11:13.569529Z,-1.0941299999999998,-0.443902,0.884968
2018-09-26T18:11:13.778529Z,-0.526921,-0.9316780000000001,-0.04219
2018-09-26T18:11:13.985529Z,-0.044333,0.154585,-0.006701
2018-09-26T18:11:14.181529Z,-0.584938,0.555818,0.358562
2018-09-26T18:11:14.384529Z,-0.24796300000000002,0.131012,0.6623100000000001
2018-09-26T18:11:14.588529Z,0.198062,-1.037683,-0.277167
2018-09-26T18:11:14.770529Z,0.517652,0.41288800000000003,-0.171692
2018-09-26T18:11:14.971529Z,-0.279854,0.371017,0.879041
2018-09-26T18:11:15.172529Z,-0.657786,-1.1211440000000001,0.9257569999999999
2018-09-26T18:11:15.383529Z,0.5721430000000001,-0.56589,-1.0887799999999999
2018-09-26T18:11:15.573529Z,0.262027,0.5768800000000001,0.457899
2018-09-26T18:11:15.771529Z,0.111653,-0.515154,1.2604469999999999
2018-09-26T18:11:15.972529Z,0.713441,-1.0900729999999998,-0.823859
2018-09-26T18:11:16.171529Z,0.241941,-0.448186,-0.715832
2018-09-26T18:11:16.372529Z,0.701874,0.808307,1.7214459999999998
2018-09-26T18:11:16.572529Z,-0.992685,-1.2279120000000001,0.713192
2018-09-26T18:11:16.772529Z,0.408183,-0.889135,-1.032016
2018-09-26T18:11:16.972529Z,0.13636500000000001,-0.021338,-0.65003
2018-09-26T18:11:17.173529Z,0.199517,0.005188,1.604554
2018-09-26T18:11:17.482529Z,0.27462800000000004,-1.8045229999999999,-0.63477
2018-09-26T18:11:17.623529Z,0.460071,-0.690538,-0.618641
2018-09-26T18:11:17.786529Z,0.46335699999999996,0.11869400000000001,-0.286813
2018-09-26T18:11:17.973529Z,0.017678,-0.501626,0.866807
2018-09-26T18:11:18.175529Z,-0.16853900000000002,-0.9489639999999999,-0.151949
2018-09-26T18:11:18.374529Z,0.5834779999999999,-0.20464300000000002,-0.474708
2018-09-26T18:11:18.575529Z,0.551199,-0.029856999999999998,0.165379
2018-09-26T18:11:18.775529Z,0.149725,-1.031341,0.8080430000000001
2018-09-26T18:11:18.975529Z,0.9823120000000001,-1.243252,-0.383279
2018-09-26T18:11:19.197529Z,0.9359290000000001,-0.217173,-0.47382799999999997
2018-09-26T18:11:19.376529Z,0.577693,-0.391809,1.010485
2018-09-26T18:11:19.575529Z,-0.287136,-1.154457,0.08853
2018-09-26T18:11:19.787529Z,0.42784099999999997,-0.591205,-0.593575
2018-09-26T18:11:19.977529Z,0.102349,0.204253,-0.007193000000000001
2018-09-26T18:11:20.178529Z,-0.130964,0.402961,0.9637620000000001
2018-09-26T18:11:20.375529Z,0.11983900000000001,-1.406512,-0.7309399999999999
2018-09-26T18:11:20.662529Z,0.010095999999999999,-0.276744,-0.649656
2018-09-26T18:11:20.775529Z,-0.188377,0.151756,1.453136
2018-09-26T18:11:21.024529Z,-0.42851999999999996,-1.762315,2.001262
2018-09-26T18:11:21.176529Z,0.44650500000000004,-0.8136939999999999,-0.46718999999999994
2018-09-26T18:11:21.376529Z,0.021122,0.269507,-0.11028699999999998
2018-09-26T18:11:21.576529Z,-0.516055,0.924134,1.330414
2018-09-26T18:11:21.777529Z,0.709116,-1.8258459999999999,1.313809
2018-09-26T18:11:21.978529Z,0.003908,-0.702466,-0.20039
2018-09-26T18:11:22.262529Z,0.319316,0.306016,0.25008
2018-09-26T18:11:22.377529Z,-0.285508,0.197406,1.012812
2018-09-26T18:11:22.577529Z,-0.5664359999999999,-1.6879939999999998,1.200718
2018-09-26T18:11:22.778529Z,0.43534799999999996,-0.262554,-1.058135
2018-09-26T18:11:22.977529Z,0.662912,0.510166,0.209078
2018-09-26T18:11:23.177529Z,-0.032546,-0.309888,1.587649
2018-09-26T18:11:23.379529Z,0.366626,-1.40249,-0.383538
2018-09-26T18:11:23.578529Z,0.296462,0.13013,0.578218
2018-09-26T18:11:23.779529Z,-0.096469,-0.162918,1.6216139999999999
2018-09-26T18:11:23.980529Z,-1.135047,-1.4559469999999999,-0.06918200000000001
2018-09-26T18:11:24.179529Z,0.16154100000000002,-0.505372,-1.0167110000000001
2018-09-26T18:11:24.441529Z,0.190004,0.367913,0.056701999999999995
2018-09-26T18:11:24.578529Z,-0.307777,0.206688,0.8534299999999999
2018-09-26T18:11:24.781529Z,0.21536599999999997,-1.124316,-0.347867
2018-09-26T18:11:24.979529Z,0.27931100000000003,-0.404958,-0.816421
2018-09-26T18:11:25.194529Z,0.562612,0.460046,0.394938
2018-09-26T18:11:25.380529Z,-0.753657,-0.30796100000000004,1.230237
2018-09-26T18:11:25.597529Z,-0.304115,-0.51648,-1.049949
2018-09-26T18:11:25.781529Z,0.25655300000000003,0.007979,-0.59968
2018-09-26T18:11:25.981529Z,0.6696850000000001,-0.088172,1.108917
2018-09-26T18:11:26.182529Z,0.32271500000000003,-1.040783,-0.28853
2018-09-26T18:11:26.407529Z,0.348635,-0.219754,-0.446216
2018-09-26T18:11:26.595529Z,0.66347,0.26721500000000004,-0.45304099999999997
2018-09-26T18:11:26.781529Z,-0.7105670000000001,-0.5084569999999999,1.361402
2018-09-26T18:11:26.982529Z,0.20685900000000002,-0.608003,-1.150131
2018-09-26T18:11:27.182529Z,0.488221,0.030017000000000002,-0.828569
2018-09-26T18:11:27.382529Z,0.019396,0.714932,0.2391
2018-09-26T18:11:27.583529Z,0.10436300000000001,-1.14016,0.27627199999999996
2018-09-26T18:11:27.796529Z,0.370289,-0.9024969999999999,-0.655849
2018-09-26T18:11:27.983529Z,-0.293202,0.33271300000000004,-0.13966199999999998
2018-09-26T18:11:28.190529Z,0.12803299999999998,0.84944,0.49129700000000004
2018-09-26T18:11:28.382529Z,-0.34945,-0.9240709999999999,-0.686883
2018-09-26T18:11:28.584529Z,0.183029,-0.35681599999999997,-0.173698
2018-09-26T18:11:28.783529Z,-0.36228299999999997,0.503692,-0.033381
2018-09-26T18:11:28.984529Z,-0.10803800000000001,0.338844,0.640626
2018-09-26T18:11:29.183529Z,0.527506,-0.5065,-0.612839
2018-09-26T18:11:29.384529Z,0.032602,0.5362640000000001,-0.392198
2018-09-26T18:11:29.585529Z,0.167554,1.015559,0.7235090000000001
2018-09-26T18:11:29.802529Z,-0.200927,-0.597481,1.662074
2018-09-26T18:11:29.984529Z,0.018045,-0.100238,-0.721631
2018-09-26T18:11:30.192529Z,-0.102091,0.39968200000000004,0.20182
2018-09-26T18:11:30.385529Z,-0.154472,0.28999400000000003,0.784127
2018-09-26T18:11:30.605529Z,0.46674799999999994,-1.040509,0.24286799999999997
2018-09-26T18:11:30.801529Z,0.304026,0.346723,-0.597244
2018-09-26T18:11:30.986529Z,0.312796,0.818094,0.4218
2018-09-26T18:11:31.186529Z,-1.244265,-0.1727,1.218668
2018-09-26T18:11:31.387529Z,0.015066,-0.9945780000000001,-0.186116
2018-09-26T18:11:31.605529Z,0.44235,0.275081,0.43180799999999997
2018-09-26T18:11:31.786529Z,-0.1053,0.11452799999999999,0.368095
2018-09-26T18:11:31.987529Z,0.294718,-0.9177270000000001,-0.13289
2018-09-26T18:11:32.187529Z,0.599324,-0.362626,-0.981598
2018-09-26T18:11:32.387529Z,0.14002699999999998,0.754371,0.913427
2018-09-26T18:11:32.586529Z,-0.42953900000000006,-0.614621,0.535409
2018-09-26T18:11:32.787529Z,-0.171255,-0.590755,-0.934132
2018-09-26T18:11:32.987529Z,0.267025,-0.431492,-0.205958
2018-09-26T18:11:33.187529Z,0.08039500000000001,0.316983,0.132779
2018-09-26T18:11:33.388529Z,-0.276256,-0.032192,-0.095188
2018-09-26T18:11:33.588529Z,-0.057604999999999996,-0.27671799999999996,0.24517600000000003
2018-09-26T18:11:33.788529Z,0.905115,-0.44996,-0.383384
2018-09-26T18:11:33.988529Z,0.07487,0.72953,0.1907
2018-09-26T18:11:34.204529Z,0.39769299999999996,0.04507,1.131273
2018-09-26T18:11:34.389529Z,-0.028737000000000002,-1.465511,0.528874
2018-09-26T18:11:34.589529Z,0.659959,-0.7831859999999999,-0.685265
2018-09-26T18:11:34.871529Z,-0.397023,0.725047,0.6671
2018-09-26T18:11:34.988529Z,-0.789054,-0.185838,0.185303
2018-09-26T18:11:35.189529Z,-0.669895,-1.211806,-0.24239000000000002
2018-09-26T18:11:35.389529Z,-1.302027,0.099611,-1.000046
2018-09-26T18:11:35.589529Z,-0.071324,0.785733,0.261062
2018-09-26T18:11:35.789529Z,0.011993,0.41893500000000006,1.13939
2018-09-26T18:11:35.991529Z,-0.715094,-1.066095,-0.544311
2018-09-26T18:11:36.191529Z,-0.130194,-0.319706,-0.6775770000000001
2018-09-26T18:11:36.392529Z,0.5781970000000001,1.018373,0.356621
2018-09-26T18:11:36.591529Z,0.789513,-0.6512720000000001,1.040908
2018-09-26T18:11:36.791529Z,0.8971030000000001,-1.1125049999999999,-1.052812
2018-09-26T18:11:36.991529Z,0.407382,0.255213,-1.199781
2018-09-26T18:11:37.191529Z,0.138688,0.9117350000000001,0.583878
2018-09-26T18:11:37.402529Z,-0.654017,-1.2100389999999999,1.497614
2018-09-26T18:11:37.635529Z,-0.741319,-1.069339,-0.9680540000000001
2018-09-26T18:11:37.791529Z,0.094122,0.13714400000000002,-0.9278719999999999
2018-09-26T18:11:37.993529Z,-0.479041,1.15856,0.5105390000000001
2018-09-26T18:11:38.193529Z,-0.361213,-0.135231,0.855267
2018-09-26T18:11:38.392529Z,-0.086626,-1.1895870000000002,-0.19750399999999999
2018-09-26T18:11:38.594529Z,0.077827,-0.46532799999999996,-0.824567
2018-09-26T18:11:38.793529Z,0.999539,0.961031,-0.27
2018-09-26T18:11:38.993529Z,1.03187,1.3397629999999998,0.316295
2018-09-26T18:11:39.192529Z,0.44869799999999993,0.815763,0.554689
2018-09-26T18:11:39.393529Z,0.589266,-0.924502,-0.147748
2018-09-26T18:11:39.594529Z,0.796601,0.993892,-0.725685
2018-09-26T18:11:39.795529Z,0.7259220000000001,1.391052,0.02936
2018-09-26T18:11:40.006529Z,0.745271,-0.020735,0.901433
2018-09-26T18:11:40.193529Z,0.463599,-0.8592540000000001,0.027716
2018-09-26T18:11:40.394529Z,0.566822,0.686225,-0.23375300000000002
2018-09-26T18:11:40.631529Z,0.281023,1.204093,0.264049
2018-09-26T18:11:40.795529Z,-0.12238299999999999,-0.326671,0.9389190000000001
2018-09-26T18:11:41.004529Z,0.8141189999999999,-1.3749790000000002,-0.35449
2018-09-26T18:11:41.196529Z,2.175129,-1.180493,0.42555
2018-09-26T18:11:41.409529Z,1.7641790000000002,-1.786001,1.4137899999999999
2018-09-26T18:11:41.597529Z,0.9421440000000001,-2.417421,0.592439
2018-09-26T18:11:41.797529Z,0.850582,-1.720912,-0.232096
2018-09-26T18:11:41.997529Z,-0.350657,-0.505657,1.042008
2018-09-26T18:11:42.196529Z,-1.0098280000000002,-1.672668,1.2497559999999999
2018-09-26T18:11:42.396529Z,-0.31327699999999997,-0.881184,-0.7490939999999999
2018-09-26T18:11:42.606529Z,-0.286882,0.007047,-1.156173
2018-09-26T18:11:42.797529Z,0.471458,-0.07349,1.082623
2018-09-26T18:11:42.996529Z,0.759898,-1.79351,0.647921
2018-09-26T18:11:43.197529Z,0.999598,-1.266973,-0.8751129999999999
2018-09-26T18:11:43.396529Z,0.611563,-0.215437,-0.33006199999999997
2018-09-26T18:11:43.597529Z,-0.101253,-0.8331719999999999,1.6915080000000002
2018-09-26T18:11:43.797529Z,-0.07206599999999999,-1.620066,-0.61765
2018-09-26T18:11:44.122529Z,0.824053,-1.1133950000000001,-0.526216
2018-09-26T18:11:44.199529Z,0.544038,-0.033667,0.365709
2018-09-26T18:11:44.442529Z,-0.062009,-1.54111,0.8783860000000001
2018-09-26T18:11:44.598529Z,0.159273,-0.699728,-0.417008
2018-09-26T18:11:44.798529Z,0.258967,-0.285939,-0.857474
2018-09-26T18:11:45.035529Z,0.357977,0.695153,-0.181849
2018-09-26T18:11:45.199529Z,-0.486321,-1.3620459999999999,1.214005
2018-09-26T18:11:45.401529Z,0.076016,-0.9234389999999999,-0.8876059999999999
2018-09-26T18:11:45.617529Z,0.202869,0.222165,-0.9219040000000001
2018-09-26T18:11:45.877529Z,0.410211,0.24606,0.9980959999999999
2018-09-26T18:11:46.000529Z,0.44091400000000003,-1.434504,-0.06209
2018-09-26T18:11:46.221529Z,0.68562,-1.167111,-0.144554
2018-09-26T18:11:46.399529Z,0.02507,0.22740700000000003,-0.653904
2018-09-26T18:11:46.611529Z,0.19559200000000002,0.340081,0.667612
2018-09-26T18:11:46.801529Z,-0.434141,-1.615869,0.672691
2018-09-26T18:11:47.000529Z,0.368799,-0.639515,-0.635141
2018-09-26T18:11:47.201529Z,-0.04746,0.210436,-0.152548
2018-09-26T18:11:47.400529Z,-0.00037799999999999997,0.633858,0.44075
2018-09-26T18:11:47.602529Z,0.336937,-1.631564,-0.206833
2018-09-26T18:11:47.805529Z,0.238708,-0.279538,-0.9501860000000001
2018-09-26T18:11:48.001529Z,0.43666400000000005,0.24544000000000002,0.32585
2018-09-26T18:11:48.201529Z,0.262209,0.7176560000000001,1.005383
2018-09-26T18:11:48.402529Z,-0.387667,-0.811226,-1.146466
2018-09-26T18:11:48.603529Z,0.498946,-0.332453,-0.248888
2018-09-26T18:11:48.804529Z,-0.073521,0.953089,-0.284981
2018-09-26T18:11:49.002529Z,-0.3802,1.329412,1.4755770000000001
2018-09-26T18:11:49.204529Z,0.020971,-0.9898049999999999,-0.790238
2018-09-26T18:11:49.402529Z,0.00156,-0.010887,-0.3384
2018-09-26T18:11:49.607529Z,0.823049,0.450905,0.348058
2018-09-26T18:11:49.802529Z,1.17325,0.424717,1.583426
2018-09-26T18:11:50.017529Z,2.469911,-2.036397,-0.068945
2018-09-26T18:11:50.202529Z,1.612184,-1.90107,0.5439149999999999
2018-09-26T18:11:50.417529Z,-0.032195,-1.057596,0.48440600000000006
2018-09-26T18:11:50.605529Z,0.161939,-0.61195,1.0860299999999998
2018-09-26T18:11:50.806529Z,0.297743,-1.859949,-0.042588
2018-09-26T18:11:51.005529Z,0.216973,-0.998525,0.149279
2018-09-26T18:11:51.204529Z,0.323156,-0.066386,0.382927
2018-09-26T18:11:51.420529Z,0.5609689999999999,0.27055799999999997,1.503214
2018-09-26T18:11:51.605529Z,0.392801,-1.414302,-0.5988979999999999
2018-09-26T18:11:51.805529Z,0.562944,-0.6727529999999999,-0.060155999999999994
2018-09-26T18:11:52.006529Z,-0.10147300000000001,0.022213999999999998,0.169301
2018-09-26T18:11:52.207529Z,-0.087741,0.047120999999999996,0.976659
2018-09-26T18:11:52.406529Z,0.132063,-1.332465,-0.591906
2018-09-26T18:11:52.607529Z,-0.112475,-0.588531,0.102826
2018-09-26T18:11:52.806529Z,0.564938,-0.289564,0.377917
2018-09-26T18:11:53.007529Z,0.711531,0.020238,0.49509
2018-09-26T18:11:53.207529Z,-0.15578399999999998,-0.737787,-1.087648
2018-09-26T18:11:53.429529Z,0.191548,-0.23991300000000002,-0.129688
2018-09-26T18:11:53.607529Z,0.274621,-0.26154,0.760509
2018-09-26T18:11:53.806529Z,1.63144,-0.612334,0.9175629999999999
2018-09-26T18:11:54.007529Z,1.788568,-1.728277,0.576699
2018-09-26T18:11:54.207529Z,1.28345,-1.167923,0.53806
2018-09-26T18:11:54.418529Z,0.8013170000000001,-0.5807680000000001,0.262776
2018-09-26T18:11:54.608529Z,0.17127,-0.086198,0.9344610000000001
2018-09-26T18:11:54.808529Z,-0.312792,-1.53732,0.009557
2018-09-26T18:11:55.008529Z,0.18403699999999998,-0.6590239999999999,-0.254728
2018-09-26T18:11:55.209529Z,0.26007600000000003,0.262862,-0.18411
2018-09-26T18:11:55.426529Z,0.375603,0.093292,0.513653
2018-09-26T18:11:55.608529Z,-0.624158,-1.830395,0.37694099999999997
2018-09-26T18:11:55.809529Z,-1.121048,-1.293029,-0.474289
2018-09-26T18:11:56.009529Z,-1.0349389999999998,-0.362159,0.174257
2018-09-26T18:11:56.211529Z,-0.55615,0.11401099999999999,0.6341399999999999
2018-09-26T18:11:56.410529Z,-0.5064810000000001,-1.482787,0.6095510000000001
2018-09-26T18:11:56.610529Z,0.122798,-0.64952,-0.792082
2018-09-26T18:11:56.810529Z,0.194956,0.28908,0.45803699999999997
2018-09-26T18:11:57.009529Z,0.775842,0.7614529999999999,0.3516
2018-09-26T18:11:57.212529Z,0.543979,-1.320219,-0.115468
2018-09-26T18:11:57.425529Z,0.667833,-0.8418979999999999,-0.5997239999999999
2018-09-26T18:11:57.622529Z,0.109305,-0.034812,-0.011495
2018-09-26T18:11:57.811529Z,-0.090503,0.6215430000000001,1.103742
2018-09-26T18:11:58.011529Z,-0.522776,-1.264693,-0.236985
2018-09-26T18:11:58.225529Z,0.65162,-0.301158,-0.285027
2018-09-26T18:11:58.434529Z,0.702058,0.47819399999999995,0.21664899999999998
2018-09-26T18:11:58.612529Z,0.594395,0.7576039999999999,0.379295
2018-09-26T18:11:58.812529Z,1.2166059999999999,-0.11452999999999999,1.110625
2018-09-26T18:11:59.013529Z,0.86241,-0.040093000000000004,-0.131671
2018-09-26T18:11:59.213529Z,0.9190649999999999,0.43857299999999994,-0.677134
2018-09-26T18:11:59.413529Z,0.596054,0.46102,0.004229
2018-09-26T18:11:59.612529Z,0.15855,-1.0767959999999999,0.441478
2018-09-26T18:11:59.830529Z,0.552339,-0.42881899999999995,-0.485328
2018-09-26T18:12:00.013529Z,0.806636,0.25113800000000003,-0.143428
2018-09-26T18:12:00.212529Z,0.637446,0.584923,0.16671
2018-09-26T18:12:00.412529Z,1.9274799999999999,-1.336882,0.097353
2018-09-26T18:12:00.621529Z,0.39774699999999996,-0.7507729999999999,-0.19836199999999998
2018-09-26T18:12:00.822529Z,0.266719,0.022437000000000002,0.15425999999999998
2018-09-26T18:12:01.013529Z,0.330071,0.274769,0.701816
2018-09-26T18:12:01.214529Z,-0.39415100000000003,-1.122903,0.357623
2018-09-26T18:12:01.415529Z,0.173045,-0.755846,-0.41863
2018-09-26T18:12:01.614529Z,0.32026,0.0033090000000000003,0.175754
2018-09-26T18:12:01.815529Z,-0.028542,-0.019196,0.957118
2018-09-26T18:12:02.028529Z,0.345796,-1.312071,-0.301806
2018-09-26T18:12:02.229529Z,0.207979,-0.813442,-0.22216599999999997
2018-09-26T18:12:02.416529Z,-0.298064,0.256598,-0.017456
2018-09-26T18:12:02.622529Z,-0.064496,0.623334,0.41560699999999995
2018-09-26T18:12:02.817529Z,-0.499209,-0.918427,-0.88821
2018-09-26T18:12:03.015529Z,0.143091,0.165897,-0.07272
2018-09-26T18:12:03.216529Z,0.378858,0.671568,0.014738
2018-09-26T18:12:03.416529Z,-0.161839,0.780808,1.192653
2018-09-26T18:12:03.617529Z,0.447234,-1.384725,-0.805592
2018-09-26T18:12:03.816529Z,0.151859,0.056856,-0.6505850000000001
2018-09-26T18:12:04.017529Z,0.274514,0.400302,0.8460219999999999
2018-09-26T18:12:04.217529Z,-0.09575499999999999,0.455484,0.49749899999999997
2018-09-26T18:12:04.416529Z,-0.321495,-0.7765380000000001,-0.599913
2018-09-26T18:12:04.617529Z,-0.553656,0.230296,0.14694300000000002
2018-09-26T18:12:04.817529Z,-1.069127,0.080661,0.472214
2018-09-26T18:12:05.017529Z,-0.9584889999999999,-0.316941,0.35575999999999997
2018-09-26T18:12:05.217529Z,-0.25063,-0.42383000000000004,-0.37385799999999997
2018-09-26T18:12:05.418529Z,0.618957,0.301989,0.282221
2018-09-26T18:12:05.618529Z,0.878499,1.069957,0.52876
2018-09-26T18:12:05.819529Z,0.863374,0.222334,1.027623
2018-09-26T18:12:06.019529Z,-0.120556,-0.228106,-0.275235
2018-09-26T18:12:06.218529Z,0.079899,0.20856799999999998,-0.350852
2018-09-26T18:12:06.446529Z,-0.006856999999999999,0.41611899999999996,-0.030073000000000003
2018-09-26T18:12:06.618529Z,-0.44910200000000006,-0.189445,0.9374979999999999
2018-09-26T18:12:06.819529Z,-0.21865300000000001,-0.761827,-0.263302
2018-09-26T18:12:07.019529Z,0.821361,-0.26508400000000004,0.217187
2018-09-26T18:12:07.218529Z,1.8382740000000002,0.408204,0.315039
2018-09-26T18:12:07.419529Z,1.4150639999999999,0.228674,0.60005
2018-09-26T18:12:07.620529Z,0.617957,-0.842407,0.02692
2018-09-26T18:12:07.819529Z,0.934039,-0.4773,-0.167518
2018-09-26T18:12:08.020529Z,1.0135809999999998,0.344908,-0.22329200000000002
2018-09-26T18:12:08.222529Z,0.234717,0.785887,0.718741
2018-09-26T18:12:08.420529Z,0.944334,-1.243973,-0.407348
2018-09-26T18:12:08.621529Z,1.104192,-0.385071,-0.595363
2018-09-26T18:12:08.832529Z,0.91801,0.343276,0.098248
2018-09-26T18:12:09.021529Z,0.6511359999999999,0.810818,1.128789
2018-09-26T18:12:09.221529Z,-0.093073,-0.528255,-1.017807
2018-09-26T18:12:09.422529Z,0.176368,0.20116099999999998,-0.287026
2018-09-26T18:12:09.622529Z,0.36704499999999995,0.47508599999999995,0.240632
2018-09-26T18:12:09.835529Z,0.337966,0.293773,0.884851
2018-09-26T18:12:10.023529Z,0.153319,-0.469359,-0.472606
2018-09-26T18:12:10.223529Z,0.34483400000000003,0.004679,-0.170849
2018-09-26T18:12:10.422529Z,0.297114,0.439805,0.695036
2018-09-26T18:12:10.622529Z,-0.447607,-0.690399,0.8923209999999999
2018-09-26T18:12:10.822529Z,0.14280199999999998,-0.231616,-0.703488
2018-09-26T18:12:11.022529Z,0.13106700000000002,0.6555770000000001,0.16608599999999998
2018-09-26T18:12:11.223529Z,0.042735,-0.015966,1.4806059999999999
2018-09-26T18:12:11.427529Z,0.299452,-1.346027,0.087812
2018-09-26T18:12:11.624529Z,0.32134,0.05419500000000001,-0.11909600000000001
2018-09-26T18:12:11.875529Z,0.7150310000000001,0.451405,0.000468
2018-09-26T18:12:12.023529Z,0.207393,-0.052842999999999994,1.126835
2018-09-26T18:12:12.264529Z,0.258311,-0.9545020000000001,-0.03417
2018-09-26T18:12:12.424529Z,0.593803,0.41746000000000005,-0.43879700000000005
2018-09-26T18:12:12.625529Z,0.9189649999999999,0.896316,-0.042881999999999997
2018-09-26T18:12:12.824529Z,0.685605,0.554667,1.222111
2018-09-26T18:12:13.025529Z,0.6469520000000001,-1.140554,0.6427350000000001
2018-09-26T18:12:13.225529Z,0.880323,0.048479,-0.930732
2018-09-26T18:12:13.426529Z,1.213474,0.47085699999999997,0.28145
2018-09-26T18:12:13.626529Z,0.615797,0.287071,0.810816
2018-09-26T18:12:13.825529Z,-0.7388170000000001,-1.180792,0.218261
2018-09-26T18:12:14.041529Z,0.096524,-0.35814,-0.386301
2018-09-26T18:12:14.226529Z,-0.244154,0.6237149999999999,-0.24093499999999998
2018-09-26T18:12:14.426529Z,-0.004753,0.327651,0.699084
2018-09-26T18:12:14.637529Z,0.359306,-0.841133,0.724514
2018-09-26T18:12:14.839529Z,0.612129,-0.297133,-0.523088
2018-09-26T18:12:15.041529Z,0.470764,0.485234,0.232431
2018-09-26T18:12:15.226529Z,-0.194654,0.0008300000000000001,1.180315
2018-09-26T18:12:15.426529Z,-0.47711899999999996,-1.202508,-0.198784
2018-09-26T18:12:15.642529Z,-0.038627999999999996,0.26464,-0.5511050000000001
2018-09-26T18:12:15.827529Z,0.072528,0.754202,0.28733000000000003
2018-09-26T18:12:16.041529Z,0.089899,0.302412,1.068451
2018-09-26T18:12:16.227529Z,0.79328,-1.583385,-0.377382
2018-09-26T18:12:16.428529Z,0.414217,-0.023636,-0.23125900000000002
2018-09-26T18:12:16.649529Z,0.187624,0.377303,0.664084
2018-09-26T18:12:16.839529Z,-0.379837,-0.451068,0.8859299999999999
2018-09-26T18:12:17.028529Z,-0.495885,-0.9124620000000001,-1.188634
2018-09-26T18:12:17.230529Z,-0.304726,0.493137,-0.305446
2018-09-26T18:12:17.429529Z,-0.286017,0.680434,0.719781
2018-09-26T18:12:17.629529Z,-0.28252,-0.833266,0.572032
2018-09-26T18:12:17.829529Z,0.10018300000000001,-0.7967810000000001,-0.9888100000000001
2018-09-26T18:12:18.028529Z,-0.21503699999999998,0.288627,0.391835
2018-09-26T18:12:18.229529Z,-1.1724290000000002,-0.13817000000000002,1.211249
2018-09-26T18:12:18.429529Z,-1.344411,-0.6223770000000001,-0.519253
2018-09-26T18:12:18.631529Z,-0.323115,-0.245219,-0.755548
2018-09-26T18:12:18.830529Z,0.8412200000000001,1.046386,0.28641
2018-09-26T18:12:19.030529Z,0.9843049999999999,-0.421152,0.668373
2018-09-26T18:12:19.231529Z,0.894149,-0.31155900000000003,-0.885179
2018-09-26T18:12:19.430529Z,0.705048,0.6621279999999999,-1.416399
2018-09-26T18:12:19.631529Z,0.184909,0.070113,1.049109
2018-09-26T18:12:19.848529Z,0.927201,-0.7643270000000001,-0.988131
2018-09-26T18:12:20.041529Z,1.2555889999999998,-0.237323,-0.8261649999999999
2018-09-26T18:12:20.231529Z,0.36465,0.801478,0.18747
2018-09-26T18:12:20.432529Z,0.9066420000000001,-0.958701,-0.044159
2018-09-26T18:12:20.631529Z,0.589817,-0.245205,-1.066951
2018-09-26T18:12:20.832529Z,1.036265,0.547297,-0.464192
2018-09-26T18:12:21.031529Z,0.458496,1.197381,0.592435
2018-09-26T18:12:21.233529Z,0.39732399999999995,-0.649871,-0.845929
2018-09-26T18:12:21.433529Z,0.494051,0.261183,-0.63346
2018-09-26T18:12:21.633529Z,0.425285,0.918092,0.587735
2018-09-26T18:12:21.833529Z,0.503903,0.011076,1.078934
2018-09-26T18:12:22.033529Z,0.8366950000000001,-0.587496,-0.998102
2018-09-26T18:12:22.250529Z,0.521005,0.505915,-0.013605
2018-09-26T18:12:22.434529Z,0.555619,0.442283,1.0479889999999998
2018-09-26T18:12:22.633529Z,-0.247273,-0.371651,0.44057700000000005
2018-09-26T18:12:22.836529Z,0.36291799999999996,-0.041527,-0.873461
2018-09-26T18:12:23.034529Z,0.26895,0.689856,0.230827
2018-09-26T18:12:23.235529Z,0.128709,0.7488060000000001,0.763791
2018-09-26T18:12:23.434529Z,0.785801,-1.135839,0.62513
2018-09-26T18:12:23.634529Z,0.333418,-0.080514,0.033768
2018-09-26T18:12:23.834529Z,0.65177,0.700012,0.010406
2018-09-26T18:12:24.113529Z,0.193273,0.405597,0.467923
2018-09-26T18:12:24.234529Z,-0.399538,-1.076463,0.099491
2018-09-26T18:12:24.435529Z,-0.153894,0.38842899999999997,-0.6641239999999999
2018-09-26T18:12:24.636529Z,-0.370734,0.86246,0.42933599999999994
2018-09-26T18:12:24.835529Z,-0.21998800000000002,0.253483,0.664081
2018-09-26T18:12:25.036529Z,0.543169,-0.75826,-0.5457810000000001
2018-09-26T18:12:25.236529Z,0.613727,0.768848,-0.293607
2018-09-26T18:12:25.437529Z,0.680234,0.89226,0.319679
2018-09-26T18:12:25.638529Z,-0.653121,0.134295,0.7699010000000001
2018-09-26T18:12:25.838529Z,-0.765512,-1.196796,-0.434615
2018-09-26T18:12:26.124529Z,-0.127718,0.626075,-0.016493999999999998
2018-09-26T18:12:26.237529Z,-0.7771640000000001,0.595024,0.608212
2018-09-26T18:12:26.440529Z,-0.845556,-1.648406,0.366134
2018-09-26T18:12:26.639529Z,-0.9177799999999999,-0.797132,-1.073545
2018-09-26T18:12:26.838529Z,1.127589,0.7675029999999999,0.463566
2018-09-26T18:12:27.049529Z,0.406225,0.5222939999999999,0.19497899999999999
2018-09-26T18:12:27.238529Z,0.38921500000000003,-0.9850540000000001,0.047844
2018-09-26T18:12:27.438529Z,0.673743,-0.142122,-0.55823
2018-09-26T18:12:27.729529Z,1.196599,1.1598469999999999,0.8836129999999999
2018-09-26T18:12:27.837529Z,0.475575,-0.10246500000000001,0.622272
2018-09-26T18:12:28.049529Z,0.953843,-1.1331280000000001,-1.40242
2018-09-26T18:12:28.239529Z,0.737919,-0.252203,-0.564171
2018-09-26T18:12:28.438529Z,0.582255,0.366848,0.639741
2018-09-26T18:12:28.639529Z,0.22733899999999999,-1.195457,1.039975
2018-09-26T18:12:28.841529Z,0.298591,-0.051792,-1.6427349999999998
2018-09-26T18:12:29.040529Z,0.524724,0.446137,-0.572978
2018-09-26T18:12:29.239529Z,0.34439000000000003,0.09512899999999999,1.226987
2018-09-26T18:12:29.441529Z,1.210559,-0.994475,-0.514329
2018-09-26T18:12:29.640529Z,0.9969129999999999,-0.391953,-0.8012020000000001
2018-09-26T18:12:29.840529Z,0.644224,0.6099680000000001,-0.264527
2018-09-26T18:12:30.041529Z,-0.091956,0.094764,0.520461
2018-09-26T18:12:30.241529Z,-0.371259,-0.774412,-0.399071
2018-09-26T18:12:30.442529Z,0.561819,-0.053352,-0.853648
2018-09-26T18:12:30.641529Z,0.609345,0.42990100000000003,0.225615
2018-09-26T18:12:30.843529Z,0.488737,-0.670702,0.772401
2018-09-26T18:12:31.066529Z,0.6902699999999999,-0.7354430000000001,-0.790613
2018-09-26T18:12:31.242529Z,0.203207,0.519463,-0.932903
2018-09-26T18:12:31.458529Z,-0.47623000000000004,0.817674,0.41877200000000003
2018-09-26T18:12:31.642529Z,-1.834495,-0.6936869999999999,-1.338634
2018-09-26T18:12:31.842529Z,-0.40530900000000003,-0.304631,-0.174623
2018-09-26T18:12:32.043529Z,0.5611470000000001,0.8657239999999999,0.13733499999999998
2018-09-26T18:12:32.243529Z,0.6632399999999999,0.9589790000000001,0.833802
2018-09-26T18:12:32.443529Z,1.044468,-0.23270300000000002,-0.7752760000000001
2018-09-26T18:12:32.642529Z,0.70894,0.665432,-0.523734
2018-09-26T18:12:32.862529Z,0.67635,0.48735100000000003,0.9792780000000001
2018-09-26T18:12:33.043529Z,-0.010709,-0.719637,1.0298969999999998
2018-09-26T18:12:33.243529Z,1.0030350000000001,0.27657,-0.6722899999999999
2018-09-26T18:12:33.457529Z,0.909307,0.8597290000000001,1.043875
2018-09-26T18:12:33.645529Z,0.503041,-0.159222,1.057887
2018-09-26T18:12:33.854529Z,0.9503950000000001,-0.9739909999999999,-0.44952299999999995
2018-09-26T18:12:34.045529Z,0.863649,0.095658,-0.194705
2018-09-26T18:12:34.244529Z,0.6651020000000001,0.701298,0.054439999999999995
2018-09-26T18:12:34.447529Z,-0.13703900000000002,0.421911,0.8678739999999999
2018-09-26T18:12:34.645529Z,-0.723825,-1.098986,0.119236
2018-09-26T18:12:34.845529Z,0.329556,0.575641,0.185374
2018-09-26T18:12:35.046529Z,-0.349761,-0.288339,0.767185
2018-09-26T18:12:35.245529Z,-0.301865,-1.429841,0.039502999999999996
2018-09-26T18:12:35.455529Z,-0.237868,-0.686802,-0.9768190000000001
2018-09-26T18:12:35.646529Z,-1.503881,-0.12773299999999999,0.946443
2018-09-26T18:12:35.846529Z,-1.707038,-1.49708,0.396459
2018-09-26T18:12:36.058529Z,-1.189634,-0.8670190000000001,-0.5852430000000001
2018-09-26T18:12:36.265529Z,0.044772,-0.11754300000000001,0.130246
2018-09-26T18:12:36.446529Z,1.5852190000000002,0.983836,0.109704
2018-09-26T18:12:36.647529Z,1.208869,-0.44856,0.556311
2018-09-26T18:12:36.848529Z,1.21246,-0.155499,-0.7449560000000001
2018-09-26T18:12:37.047529Z,1.483256,0.598626,-0.248455
2018-09-26T18:12:37.249529Z,0.14166600000000001,-0.090303,0.757781
2018-09-26T18:12:37.448529Z,0.148034,-0.279254,-0.5701069999999999
2018-09-26T18:12:37.647529Z,0.9804290000000001,0.043936,-0.530828
