Datetime,accx,accy,accz
2018-10-15T21:40:03.619764Z,-0.680847,0.559204,1.2052
2018-10-15T21:40:03.815764Z,1.467957,3.300354,-0.521606
2018-10-15T21:40:04.019764Z,-0.679565,-4.120667,3.5310059999999996
2018-10-15T21:40:04.216764Z,-0.646423,-3.792358,2.864868
2018-10-15T21:40:04.416764Z,-0.8319700000000001,-3.3933720000000003,3.828125
2018-10-15T21:40:04.617764Z,-1.8350830000000002,-3.3766480000000003,2.850464
2018-10-15T21:40:04.815764Z,1.146729,-0.08673099999999999,-0.502319
2018-10-15T21:40:05.015764Z,1.348999,-0.11907999999999999,1.003052
2018-10-15T21:40:05.215764Z,1.199524,-1.465271,0.047913
2018-10-15T21:40:05.412764Z,3.2299189999999998,-0.000732,-0.456665
2018-10-15T21:40:05.615764Z,0.5783689999999999,0.061707000000000005,1.6893310000000001
2018-10-15T21:40:05.815764Z,0.404053,-1.073547,2.592041
2018-10-15T21:40:06.014764Z,1.467041,0.06488,-1.264648
2018-10-15T21:40:06.214764Z,1.4447020000000002,0.143555,-1.01001
2018-10-15T21:40:06.414764Z,2.34552,0.499084,-0.07928500000000001
2018-10-15T21:40:06.619764Z,3.0809330000000004,0.107849,-1.112183
2018-10-15T21:40:06.840764Z,1.309082,1.202576,0.204651
2018-10-15T21:40:07.016764Z,1.437683,2.2596439999999998,-0.729614
2018-10-15T21:40:07.215764Z,1.976379,0.125427,0.734924
2018-10-15T21:40:07.417764Z,1.577759,0.033752,-1.132996
2018-10-15T21:40:07.617764Z,0.8941040000000001,0.820984,-0.200256
2018-10-15T21:40:07.816764Z,0.449219,1.38855,-0.219788
2018-10-15T21:40:08.016764Z,0.385803,0.290894,-0.739075
2018-10-15T21:40:08.217764Z,0.665894,1.370667,0.361023
2018-10-15T21:40:08.417764Z,2.148682,1.499817,-0.522095
2018-10-15T21:40:08.618764Z,0.33624299999999996,2.027588,-1.496521
2018-10-15T21:40:08.815764Z,-0.34021,1.134216,-3.953186
2018-10-15T21:40:09.015764Z,0.938049,1.8698119999999998,-3.47937
2018-10-15T21:40:09.214764Z,0.9774780000000001,1.708435,-0.469238
2018-10-15T21:40:09.414764Z,0.708801,1.785339,-0.584961
2018-10-15T21:40:09.617764Z,0.247437,1.058044,-0.207947
2018-10-15T21:40:09.816764Z,0.172546,0.9431149999999999,-0.003967
2018-10-15T21:40:10.095764Z,0.40618899999999997,0.913391,0.59613
2018-10-15T21:40:10.221764Z,0.435852,1.080994,-0.391602
2018-10-15T21:40:10.413764Z,0.305054,1.4752809999999998,-0.049316000000000006
2018-10-15T21:40:10.606764Z,1.18335,1.1351930000000001,-0.9910889999999999
2018-10-15T21:40:10.818764Z,1.238953,1.62439,0.180054
2018-10-15T21:40:11.021764Z,-0.407837,1.272034,0.799805
2018-10-15T21:40:11.214764Z,-1.810242,-0.718018,-0.421509
2018-10-15T21:40:11.414764Z,-1.4106450000000001,-0.098633,-0.694824
2018-10-15T21:40:11.611764Z,0.42749,-0.43633999999999995,0.7966310000000001
2018-10-15T21:40:11.827764Z,-1.7645259999999998,-1.358643,-0.293457
2018-10-15T21:40:12.015764Z,-1.5396729999999998,-1.667603,-1.0667719999999998
2018-10-15T21:40:12.214764Z,-1.212585,-0.8399049999999999,-0.9071040000000001
2018-10-15T21:40:12.416764Z,-2.256836,-0.8480219999999999,1.593323
2018-10-15T21:40:12.615764Z,-2.8314209999999997,-0.349731,0.318176
2018-10-15T21:40:12.817764Z,-2.8198849999999998,-0.312195,-0.523987
2018-10-15T21:40:13.016764Z,-1.112732,0.289551,-1.4701540000000002
2018-10-15T21:40:13.212764Z,-1.1519780000000002,-0.07208300000000001,-0.546692
2018-10-15T21:40:13.414764Z,0.45825200000000005,0.458801,-0.502686
2018-10-15T21:40:13.617764Z,-0.812012,1.513123,0.256714
2018-10-15T21:40:13.817764Z,0.096497,0.085388,-0.456665
2018-10-15T21:40:14.018764Z,1.0512700000000001,0.005371,-1.147095
2018-10-15T21:40:14.216764Z,-1.249207,-0.099243,0.09930399999999999
2018-10-15T21:40:14.416764Z,1.007141,-4.389099,1.999512
2018-10-15T21:40:14.618764Z,-0.077637,-2.5048220000000003,0.9589840000000001
2018-10-15T21:40:14.815764Z,-1.4585569999999999,-1.98584,1.032959
2018-10-15T21:40:15.013764Z,-1.782471,0.187927,-2.110229
2018-10-15T21:40:15.216764Z,-1.9121700000000001,0.598755,-0.777039
2018-10-15T21:40:15.423764Z,-0.20880100000000001,0.839417,-0.27508499999999997
2018-10-15T21:40:15.618764Z,0.374695,-1.142334,0.047668
2018-10-15T21:40:15.819764Z,0.667725,0.477966,-1.271667
2018-10-15T21:40:16.015764Z,1.38208,0.667419,1.703491
2018-10-15T21:40:16.215764Z,1.351501,-0.771362,-0.5658569999999999
2018-10-15T21:40:16.415764Z,1.14801,0.073364,-0.202881
2018-10-15T21:40:16.615764Z,-0.061157,0.591064,0.22699
2018-10-15T21:40:16.813764Z,-0.588379,0.458374,1.6417240000000002
2018-10-15T21:40:17.022764Z,0.716431,0.46368400000000004,-0.667786
2018-10-15T21:40:17.221764Z,0.279053,0.827759,-1.44281
2018-10-15T21:40:17.479764Z,0.635498,1.91156,-1.4978639999999999
2018-10-15T21:40:17.622764Z,0.47943100000000005,1.356079,-0.762512
2018-10-15T21:40:18.015764Z,0.287292,0.732788,-0.126282
2018-10-15T21:40:18.215764Z,-0.063416,0.899963,-0.822937
2018-10-15T21:40:18.417764Z,0.24054,0.619446,-0.489929
2018-10-15T21:40:18.615764Z,0.347839,0.8843989999999999,-0.20105
2018-10-15T21:40:18.815764Z,0.300415,0.641235,-0.23846399999999998
2018-10-15T21:40:19.023764Z,-0.153625,0.398865,-0.283325
2018-10-15T21:40:19.222764Z,0.267029,0.5839840000000001,-0.31561300000000003
2018-10-15T21:40:19.415764Z,-0.052917,0.53772,-0.49523900000000004
2018-10-15T21:40:19.622764Z,0.507812,0.31494099999999997,-0.847046
2018-10-15T21:40:19.815764Z,0.573181,0.8807370000000001,-0.982361
2018-10-15T21:40:20.015764Z,0.0014039999999999999,0.847534,0.035522000000000005
2018-10-15T21:40:20.215764Z,0.45983900000000005,0.7418819999999999,-0.657898
2018-10-15T21:40:20.415764Z,-0.36938499999999996,-0.241211,2.202515
2018-10-15T21:40:20.614764Z,-1.041626,-0.548279,-1.0855709999999998
2018-10-15T21:40:20.815764Z,-0.027710000000000002,0.57843,0.032776
2018-10-15T21:40:21.021764Z,0.61145,0.007812,-0.22021500000000002
2018-10-15T21:40:21.214764Z,0.49523900000000004,-0.831665,0.372864
2018-10-15T21:40:21.422764Z,-0.291321,-0.458557,0.368164
2018-10-15T21:40:21.626764Z,-0.11071800000000001,0.168457,0.342163
2018-10-15T21:40:21.821764Z,-0.29492199999999996,-1.105225,0.1604
2018-10-15T21:40:22.015764Z,-0.888977,-0.535095,0.256714
2018-10-15T21:40:22.219764Z,-0.322144,0.654541,0.617065
2018-10-15T21:40:22.417764Z,0.11969,0.636108,0.388916
2018-10-15T21:40:22.619764Z,-0.170898,-0.816833,1.062378
2018-10-15T21:40:22.816764Z,-0.9098510000000001,-0.082764,-1.9970700000000001
2018-10-15T21:40:23.015764Z,-0.950256,0.042664,0.993225
2018-10-15T21:40:23.222764Z,-1.129211,-1.208252,1.117859
2018-10-15T21:40:23.416764Z,-1.816711,-0.8276979999999999,1.404541
2018-10-15T21:40:23.611764Z,-0.835571,-0.699829,0.096375
2018-10-15T21:40:23.820764Z,-1.019958,-0.9776610000000001,0.627869
2018-10-15T21:40:24.015764Z,-0.580872,-0.054626,-0.59613
2018-10-15T21:40:24.231764Z,-0.155396,-0.513794,1.0043950000000001
2018-10-15T21:40:24.421764Z,-1.453552,0.188354,-0.935791
2018-10-15T21:40:24.621764Z,-1.3534549999999999,0.12793,0.044922000000000004
2018-10-15T21:40:24.816764Z,-1.2001950000000001,0.476685,-1.006958
2018-10-15T21:40:25.016764Z,-1.845459,1.0151370000000002,-0.34387199999999996
2018-10-15T21:40:25.217764Z,-2.056885,1.826782,-0.402527
2018-10-15T21:40:25.422764Z,-0.8897709999999999,1.6886599999999998,1.11084
2018-10-15T21:40:25.616764Z,-0.651794,-0.34057600000000005,-1.518433
2018-10-15T21:40:25.817764Z,-1.024902,0.41290299999999996,-1.729797
2018-10-15T21:40:26.015764Z,-1.312805,1.6115110000000001,0.11804200000000001
2018-10-15T21:40:26.212764Z,-1.979004,-0.452087,0.171875
2018-10-15T21:40:26.424764Z,-1.484497,0.056824,-1.335693
2018-10-15T21:40:26.618764Z,0.30956999999999996,1.221619,2.146545
2018-10-15T21:40:26.821764Z,0.7166140000000001,-0.357605,-0.540283
2018-10-15T21:40:27.021764Z,-1.956482,1.135071,0.38952600000000004
2018-10-15T21:40:27.216764Z,-1.5755620000000001,0.17999300000000001,-1.284851
2018-10-15T21:40:27.415764Z,-2.229004,0.42663599999999996,-2.44873
2018-10-15T21:40:27.616764Z,-0.786987,0.946106,1.416199
2018-10-15T21:40:27.832764Z,-2.080505,-0.129456,-0.359558
2018-10-15T21:40:28.016764Z,-1.004944,0.907349,0.18103
2018-10-15T21:40:28.215764Z,-0.7905270000000001,0.365173,-1.1290280000000001
2018-10-15T21:40:28.415764Z,-0.78833,0.523926,-3.171082
2018-10-15T21:40:28.706764Z,1.398682,0.553467,2.4505619999999997
2018-10-15T21:40:28.816764Z,-1.905823,0.369263,-2.497864
2018-10-15T21:40:29.021764Z,-0.547241,0.237671,5.247008999999999
2018-10-15T21:40:29.225764Z,-0.49316400000000005,-0.297668,3.4154660000000003
2018-10-15T21:40:29.416764Z,-1.664246,1.22522,-3.1809689999999997
2018-10-15T21:40:29.615764Z,-0.716064,-1.072327,3.605225
2018-10-15T21:40:29.816764Z,-1.2036129999999998,0.633728,-2.260986
2018-10-15T21:40:30.015764Z,-2.8442990000000004,0.33758499999999997,1.5109860000000002
2018-10-15T21:40:30.215764Z,-2.467834,-0.9481809999999999,-0.068176
2018-10-15T21:40:30.415764Z,-1.012634,0.43029799999999996,-0.557678
2018-10-15T21:40:30.868764Z,-0.762573,-1.2185059999999999,-0.226379
2018-10-15T21:40:31.018764Z,-1.5650629999999999,-0.041931,-1.052429
2018-10-15T21:40:31.214764Z,-2.563904,0.32513400000000003,-0.557312
2018-10-15T21:40:31.418764Z,-2.198425,-0.8734129999999999,0.541626
2018-10-15T21:40:31.614764Z,-1.9757689999999999,-1.1583860000000001,1.0405879999999998
2018-10-15T21:40:31.823764Z,-1.746521,-0.190918,0.414307
2018-10-15T21:40:32.015764Z,-1.9598389999999999,0.338013,0.632324
2018-10-15T21:40:32.215764Z,-1.405334,0.595093,-0.30365
2018-10-15T21:40:32.416764Z,-2.37616,0.190918,0.285767
2018-10-15T21:40:32.615764Z,-0.833923,-0.6427,-0.416504
2018-10-15T21:40:32.816764Z,-2.793457,0.9450069999999999,-0.674683
2018-10-15T21:40:33.016764Z,-0.774109,-0.997925,-0.094421
2018-10-15T21:40:33.217764Z,0.560669,-0.7086180000000001,0.792603
2018-10-15T21:40:33.414764Z,-1.480408,0.915833,-0.824829
2018-10-15T21:40:33.611764Z,-1.5258180000000001,0.785339,0.159851
2018-10-15T21:40:33.814764Z,-1.488525,0.559692,-0.619324
2018-10-15T21:40:34.015764Z,-0.8422850000000001,0.48999,-0.280396
2018-10-15T21:40:34.216764Z,-0.904114,0.38879400000000003,-0.24945100000000003
2018-10-15T21:40:34.414764Z,-0.8602290000000001,0.07843,-0.391418
2018-10-15T21:40:34.615764Z,-0.50647,-0.092651,-0.286926
2018-10-15T21:40:34.812764Z,-0.395996,0.058899,-0.054077
2018-10-15T21:40:35.015764Z,-0.864624,-0.216675,-0.12793
2018-10-15T21:40:35.217764Z,-0.933594,-1.494873,1.716309
2018-10-15T21:40:35.416764Z,-5.975586,3.703003,-2.1690669999999996
2018-10-15T21:40:35.615764Z,1.198364,-1.542358,-0.816467
2018-10-15T21:40:35.816764Z,-0.19653299999999999,0.661804,2.380066
2018-10-15T21:40:36.015764Z,-0.047668,0.492249,-0.75946
2018-10-15T21:40:36.215764Z,0.272339,-0.203308,1.2147219999999999
2018-10-15T21:40:36.415764Z,0.31604,-0.6350100000000001,0.757141
2018-10-15T21:40:36.615764Z,-0.263733,0.329773,-0.22296100000000002
2018-10-15T21:40:36.815764Z,-0.115784,0.66803,-0.34491
2018-10-15T21:40:37.016764Z,0.45605500000000004,0.421875,0.982849
2018-10-15T21:40:37.217764Z,-1.642334,-0.397278,0.595459
2018-10-15T21:40:37.416764Z,-1.561279,-0.5974729999999999,-0.858398
2018-10-15T21:40:37.637764Z,-1.393127,-0.4729,1.4353639999999999
2018-10-15T21:40:37.822764Z,-1.0983889999999998,-0.194824,0.215027
2018-10-15T21:40:38.014764Z,-0.492859,0.143799,-0.22772199999999998
2018-10-15T21:40:38.227764Z,-0.178589,0.31665,-0.36853
2018-10-15T21:40:38.434764Z,-0.16461199999999998,0.059021000000000004,-0.076843
2018-10-15T21:40:38.617764Z,-0.558533,0.348328,-0.067566
2018-10-15T21:40:38.816764Z,-0.275208,-0.01825,0.327881
2018-10-15T21:40:39.016764Z,-0.484192,-0.40387,-0.272095
2018-10-15T21:40:39.218764Z,-0.861511,0.044677999999999995,-0.29486100000000004
2018-10-15T21:40:39.417764Z,-1.5511469999999998,-0.45251499999999995,0.043274
2018-10-15T21:40:39.616764Z,-1.201904,-0.816833,-0.013062
2018-10-15T21:40:39.817764Z,-1.919434,-0.960205,0.008484
2018-10-15T21:40:40.013764Z,0.76178,-0.615784,-0.362793
2018-10-15T21:40:40.216764Z,1.080322,-0.49365200000000004,-0.153625
2018-10-15T21:40:40.406764Z,-0.274048,-0.5725100000000001,1.6591189999999998
2018-10-15T21:40:40.616764Z,-0.836731,-2.140747,1.576782
2018-10-15T21:40:40.818764Z,-1.098511,-0.217468,-0.037659
2018-10-15T21:40:41.015764Z,-0.24664299999999997,-0.752197,-0.397644
2018-10-15T21:40:41.215764Z,-1.3009030000000001,-0.573669,-0.907349
2018-10-15T21:40:41.416764Z,-0.96405,-0.608887,0.638184
2018-10-15T21:40:41.622764Z,-0.68811,-1.259888,-0.956299
2018-10-15T21:40:41.822764Z,-0.411926,-1.1777950000000001,0.575012
2018-10-15T21:40:42.028764Z,0.02179,-1.558716,0.9390870000000001
2018-10-15T21:40:42.229764Z,1.752747,-2.004944,-0.29931599999999997
2018-10-15T21:40:42.427764Z,1.672363,-1.9910279999999998,-0.11761500000000001
2018-10-15T21:40:42.627764Z,2.328125,-1.6483150000000002,0.667419
2018-10-15T21:40:42.826764Z,-1.113281,0.365784,0.21643099999999998
2018-10-15T21:40:43.026764Z,-0.427551,1.51062,-2.074036
2018-10-15T21:40:43.228764Z,-1.390503,2.3629759999999997,0.34491
2018-10-15T21:40:43.425764Z,-0.561646,1.148865,-0.002991
2018-10-15T21:40:43.625764Z,0.247437,1.281128,-0.821167
2018-10-15T21:40:43.831764Z,-0.042542,2.062378,-0.761108
2018-10-15T21:40:44.031764Z,-0.623108,-0.035767,2.173279
2018-10-15T21:40:44.230764Z,0.173706,0.724548,-0.990417
2018-10-15T21:40:44.431764Z,-0.321655,1.328247,-3.4046629999999998
2018-10-15T21:40:44.635764Z,0.540222,0.635742,-1.3355709999999998
2018-10-15T21:40:44.833764Z,-0.28875700000000004,0.862671,-0.996582
2018-10-15T21:40:45.027764Z,0.530334,0.768799,-0.305054
2018-10-15T21:40:45.226764Z,-0.735718,0.00116,-0.6248779999999999
2018-10-15T21:40:45.427764Z,0.738586,0.43328900000000004,-1.985962
2018-10-15T21:40:45.826764Z,-1.185974,2.2413939999999997,0.42059300000000005
2018-10-15T21:40:46.026764Z,0.704834,-1.090637,-0.9656370000000001
2018-10-15T21:40:46.226764Z,0.008057,-0.136047,-0.8672489999999999
2018-10-15T21:40:46.427764Z,-0.44073500000000004,0.354797,0.19201700000000002
2018-10-15T21:40:46.629764Z,-0.566956,-2.086853,3.009277
2018-10-15T21:40:46.830764Z,-0.335754,-2.085876,2.171448
2018-10-15T21:40:47.032764Z,0.079041,-1.070129,-0.41119399999999995
2018-10-15T21:40:47.242764Z,-0.210083,-0.396179,0.082397
2018-10-15T21:40:47.432764Z,0.063721,-0.053954999999999996,-0.336304
2018-10-15T21:40:47.631764Z,-0.133301,-0.013793999999999999,-0.659729
2018-10-15T21:40:47.825764Z,-0.86554,0.06536900000000001,0.464233
2018-10-15T21:40:48.032764Z,-0.329102,-0.171448,0.413513
2018-10-15T21:40:48.234764Z,-0.143066,-0.070435,0.001282
2018-10-15T21:40:48.424764Z,0.009276999999999999,-0.11645499999999999,-0.04303
2018-10-15T21:40:48.626764Z,-0.136353,-0.098999,-0.081482
2018-10-15T21:40:48.825764Z,-0.394348,0.175964,-0.06842000000000001
2018-10-15T21:40:49.028764Z,0.16003399999999998,0.23028600000000002,-0.296448
2018-10-15T21:40:49.232764Z,-0.7693479999999999,0.033081,0.035156
2018-10-15T21:40:49.428764Z,-0.788818,0.031067,-0.285706
2018-10-15T21:40:49.630764Z,-1.198669,1.071533,0.096558
2018-10-15T21:40:49.827764Z,-0.265015,0.786682,0.467712
2018-10-15T21:40:50.026764Z,-0.321289,-1.224304,1.28009
2018-10-15T21:40:50.225764Z,-0.246521,-0.36322,0.54718
2018-10-15T21:40:50.429764Z,0.21337899999999999,0.101746,-0.154541
2018-10-15T21:40:50.622764Z,-0.26061999999999996,0.693787,0.254578
2018-10-15T21:40:50.835764Z,-0.8383790000000001,-1.498657,0.778137
2018-10-15T21:40:51.029764Z,-1.0409549999999999,-0.389648,-1.2090450000000001
2018-10-15T21:40:51.233764Z,-1.0921020000000001,0.59082,1.7142939999999998
2018-10-15T21:40:51.427764Z,-0.586121,-0.44250500000000004,-0.44470200000000004
2018-10-15T21:40:51.627764Z,-0.270935,-0.45202600000000004,-1.088623
2018-10-15T21:40:51.825764Z,-0.24469000000000002,0.17346199999999998,0.288696
2018-10-15T21:40:52.027764Z,-1.505005,-0.786438,1.824402
2018-10-15T21:40:52.226764Z,-0.27331500000000003,0.022095,-1.8282470000000002
2018-10-15T21:40:52.425764Z,0.10022,-0.107178,1.058533
2018-10-15T21:40:52.645764Z,-0.501404,-1.0854489999999999,0.831787
2018-10-15T21:40:52.826764Z,-0.168823,-0.431824,-0.040161
2018-10-15T21:40:53.044764Z,-0.432312,0.003296,-0.297668
2018-10-15T21:40:53.225764Z,-0.19049100000000002,-0.999756,0.8662110000000001
2018-10-15T21:40:53.459764Z,-0.190125,-1.0764770000000001,1.53949
2018-10-15T21:40:53.618764Z,0.270874,-0.8504639999999999,0.19781500000000002
2018-10-15T21:40:53.827764Z,-0.020996,-0.43884300000000004,-0.193176
2018-10-15T21:40:54.029764Z,1.419373,-0.090515,0.209961
2018-10-15T21:40:54.226764Z,0.497803,0.616821,-0.14032
2018-10-15T21:40:54.426764Z,1.188721,1.0090940000000002,-0.14715599999999998
2018-10-15T21:40:54.626764Z,0.5900880000000001,0.5900270000000001,0.632935
2018-10-15T21:40:54.825764Z,0.288696,-0.616394,0.6627810000000001
2018-10-15T21:40:55.029764Z,0.010681,-0.594727,-0.216858
2018-10-15T21:40:55.401764Z,0.65033,0.092285,0.205017
2018-10-15T21:40:55.447764Z,1.071167,-0.024597,-1.406189
2018-10-15T21:40:55.626764Z,0.30365,0.116577,0.9232790000000001
2018-10-15T21:40:55.829764Z,0.743347,0.410156,1.204956
2018-10-15T21:40:56.026764Z,0.792358,0.014465,-0.262756
2018-10-15T21:40:56.227764Z,1.513428,0.070801,-0.258728
2018-10-15T21:40:56.426764Z,0.562012,0.122742,-0.798401
2018-10-15T21:40:56.625764Z,1.427124,0.389771,1.718811
2018-10-15T21:40:56.827764Z,1.5338129999999999,1.405151,-0.401855
2018-10-15T21:40:57.024764Z,-0.010131999999999999,2.119568,0.112976
2018-10-15T21:40:57.225764Z,0.167236,0.667664,-1.150574
2018-10-15T21:40:57.457764Z,-0.42504899999999995,2.1821900000000003,-1.7556150000000001
2018-10-15T21:40:57.627764Z,0.046143,2.362549,-0.443787
2018-10-15T21:40:57.828764Z,0.608765,1.576782,-0.667603
2018-10-15T21:40:58.029764Z,1.33728,1.513367,-2.7585450000000002
2018-10-15T21:40:58.225764Z,-0.425598,2.332825,1.499084
2018-10-15T21:40:58.422764Z,-0.382812,-0.211853,-0.835693
2018-10-15T21:40:58.626764Z,0.37243699999999996,1.3389280000000001,-0.9473879999999999
2018-10-15T21:40:58.826764Z,1.1921389999999998,1.5660399999999999,-1.5097049999999999
2018-10-15T21:40:59.030764Z,-0.228516,0.616089,1.7940060000000002
2018-10-15T21:40:59.226764Z,0.114624,1.614502,-0.635925
2018-10-15T21:40:59.428764Z,-0.46661400000000003,0.184387,-0.36615
2018-10-15T21:40:59.634764Z,-0.6841430000000001,1.044556,-1.8388669999999998
2018-10-15T21:40:59.828764Z,-0.804932,1.067993,-0.540222
2018-10-15T21:41:00.041764Z,-0.191162,0.775513,-1.491455
2018-10-15T21:41:00.231764Z,-0.755798,-0.14874300000000001,0.042358
2018-10-15T21:41:00.426764Z,-0.5348510000000001,0.796204,0.083557
2018-10-15T21:41:00.625764Z,0.073242,0.244141,1.472595
2018-10-15T21:41:01.025764Z,-0.9519040000000001,-1.707397,-0.752502
2018-10-15T21:41:01.225764Z,-0.411499,-0.276978,-0.144958
2018-10-15T21:41:01.425764Z,-0.68335,0.698792,-1.304993
2018-10-15T21:41:01.626764Z,-1.767334,-0.770752,1.537048
2018-10-15T21:41:01.831764Z,-1.17218,-0.107849,0.396973
2018-10-15T21:41:02.032764Z,-2.015381,0.337891,0.12048299999999999
2018-10-15T21:41:02.231764Z,-2.962158,-0.314697,-1.15564
2018-10-15T21:41:02.426764Z,-1.411011,-0.086548,0.281616
2018-10-15T21:41:02.628764Z,-1.492615,0.16351300000000002,0.697693
2018-10-15T21:41:02.827764Z,-0.797546,0.14294400000000002,0.740051
2018-10-15T21:41:03.025764Z,-1.32605,0.9517209999999999,-1.206787
2018-10-15T21:41:03.227764Z,-3.219055,0.147583,-1.902161
2018-10-15T21:41:03.426764Z,-2.381226,1.556458,-1.799561
2018-10-15T21:41:03.628764Z,-1.360107,1.074036,0.24267600000000003
2018-10-15T21:41:03.825764Z,-0.549866,-0.342529,2.7247310000000002
2018-10-15T21:41:04.027764Z,-0.484192,0.202209,-1.024353
2018-10-15T21:41:04.222764Z,-1.2963870000000002,0.921753,1.3059690000000002
2018-10-15T21:41:04.431764Z,-1.4598389999999999,-1.087585,0.10491900000000001
2018-10-15T21:41:04.627764Z,-1.432983,0.5391239999999999,-0.31262199999999996
2018-10-15T21:41:04.825764Z,-1.340454,0.9672850000000001,-0.11071800000000001
2018-10-15T21:41:05.025764Z,-0.7183229999999999,0.22424299999999997,-1.060242
2018-10-15T21:41:05.222764Z,-0.378601,0.632812,0.000732
2018-10-15T21:41:05.425764Z,-0.754333,0.368652,1.251709
2018-10-15T21:41:05.626764Z,-0.502625,-0.396362,-0.631714
2018-10-15T21:41:05.827764Z,-1.5477290000000001,0.5702510000000001,-0.670898
2018-10-15T21:41:06.026764Z,-0.789917,0.720947,-0.042297
2018-10-15T21:41:06.232764Z,-0.792297,0.08728,-1.98468
2018-10-15T21:41:06.431764Z,-0.195435,-0.488708,-1.9970700000000001
2018-10-15T21:41:06.626764Z,-0.10540799999999999,-0.445557,1.2584229999999998
2018-10-15T21:41:06.826764Z,0.134888,-0.264099,-0.532166
2018-10-15T21:41:07.016764Z,-0.30127,-0.60437,-0.648621
2018-10-15T21:41:07.225764Z,0.649048,-1.484375,0.67865
2018-10-15T21:41:07.425764Z,0.820068,-0.08197,0.9324950000000001
2018-10-15T21:41:07.626764Z,0.57428,0.098511,-0.277039
2018-10-15T21:41:07.825764Z,0.658081,0.599854,-0.372925
2018-10-15T21:41:08.031764Z,0.046508999999999995,0.729797,1.0546879999999998
2018-10-15T21:41:08.232764Z,-0.588562,0.7971189999999999,0.7051390000000001
2018-10-15T21:41:08.435764Z,-0.24823,1.1790770000000002,-0.47168000000000004
2018-10-15T21:41:08.625764Z,-0.18042,1.506104,0.6426390000000001
2018-10-15T21:41:08.825764Z,0.245178,0.132324,-0.416199
2018-10-15T21:41:09.043764Z,0.7153930000000001,0.579956,-0.43335
2018-10-15T21:41:09.227764Z,0.28930700000000004,1.090881,0.350891
2018-10-15T21:41:09.432764Z,-0.528687,-0.634644,-0.13708499999999998
2018-10-15T21:41:09.632764Z,-0.092468,0.074524,-1.025513
2018-10-15T21:41:09.827764Z,-0.7096560000000001,0.989685,-0.08630399999999999
2018-10-15T21:41:10.026764Z,-0.41931199999999996,0.42126499999999995,-0.192139
2018-10-15T21:41:10.228764Z,-0.100708,0.9611209999999999,-1.328918
2018-10-15T21:41:10.427764Z,-0.071228,1.299683,-0.041016000000000004
2018-10-15T21:41:10.626764Z,0.15564,1.397217,-0.41107200000000005
2018-10-15T21:41:10.826764Z,-0.552002,-1.503967,-0.030823000000000003
2018-10-15T21:41:11.025764Z,-1.326965,0.249756,-0.936401
2018-10-15T21:41:11.232764Z,0.179504,0.596619,-0.630188
2018-10-15T21:41:11.425764Z,0.21636999999999998,-0.754944,1.3950200000000001
2018-10-15T21:41:11.636764Z,0.59375,-0.15423599999999998,-0.533447
2018-10-15T21:41:11.873764Z,0.086365,0.523315,0.015381
2018-10-15T21:41:12.041764Z,-0.45410200000000006,-0.993042,1.979126
2018-10-15T21:41:12.231764Z,0.752991,-0.77356,1.3703610000000002
2018-10-15T21:41:12.432764Z,-0.438721,-0.965698,1.284851
2018-10-15T21:41:12.625764Z,-0.622253,-0.443115,0.145081
2018-10-15T21:41:12.827764Z,1.28125,0.029541,-1.901184
2018-10-15T21:41:13.025764Z,0.6073,1.630127,-0.587158
2018-10-15T21:41:13.427764Z,0.445374,1.302429,-0.555847
2018-10-15T21:41:13.623764Z,-0.676392,0.267761,0.269104
2018-10-15T21:41:13.830764Z,-0.396362,-0.201965,-0.706665
2018-10-15T21:41:14.031764Z,-0.136597,0.024902,-0.536682
2018-10-15T21:41:14.232764Z,0.13183599999999998,-0.546875,4.062622
2018-10-15T21:41:14.421764Z,0.068909,-0.388733,-1.9736330000000002
2018-10-15T21:41:14.625764Z,0.17108199999999998,0.140076,-0.20538299999999998
2018-10-15T21:41:14.825764Z,-0.625305,-2.126648,1.465698
2018-10-15T21:41:15.025764Z,-1.457092,-1.281311,0.422729
2018-10-15T21:41:15.222764Z,-0.7901,-0.749939,-0.116882
2018-10-15T21:41:15.431764Z,-1.059814,-0.719971,0.614441
2018-10-15T21:41:15.631764Z,-0.898193,-0.10229500000000001,0.199463
2018-10-15T21:41:15.829764Z,-0.579041,0.639709,-0.428101
2018-10-15T21:41:16.026764Z,-0.601929,1.212708,-0.042358
2018-10-15T21:41:16.226764Z,-0.42419399999999996,1.1460569999999999,-0.792358
2018-10-15T21:41:16.426764Z,-0.9672850000000001,1.454041,0.368042
2018-10-15T21:41:16.627764Z,-1.1395870000000001,-0.637939,0.694153
2018-10-15T21:41:16.841764Z,-0.638977,-0.055603,-0.140869
2018-10-15T21:41:17.029764Z,-1.170776,0.244141,-0.104126
2018-10-15T21:41:17.230764Z,-0.893799,0.24963400000000002,-0.924133
2018-10-15T21:41:17.439764Z,-0.082764,-0.081055,1.1653440000000002
2018-10-15T21:41:17.640764Z,-0.111877,-0.3573,-0.039245999999999996
2018-10-15T21:41:17.831764Z,-0.806702,-0.216858,-0.747437
2018-10-15T21:41:18.026764Z,-0.596497,-0.279541,-0.326599
2018-10-15T21:41:18.225764Z,-0.488403,-0.331543,-0.11480699999999999
2018-10-15T21:41:18.439764Z,-0.40307600000000005,-0.29577600000000004,0.753418
2018-10-15T21:41:18.625764Z,0.145874,0.119202,0.001709
2018-10-15T21:41:18.816764Z,0.354431,0.6038819999999999,-0.0031739999999999997
2018-10-15T21:41:19.026764Z,0.243286,0.9301149999999999,-0.264038
2018-10-15T21:41:19.231764Z,0.358093,0.991943,0.626953
2018-10-15T21:41:19.432764Z,-0.09033200000000001,-0.153137,0.782227
2018-10-15T21:41:19.627764Z,-1.03302,-1.306519,-0.730286
2018-10-15T21:41:19.826764Z,-0.568481,-0.49578900000000004,-0.21844499999999997
2018-10-15T21:41:20.026764Z,-0.622559,-0.165222,0.007324
2018-10-15T21:41:20.224764Z,-0.192932,-0.4151,-0.008362
2018-10-15T21:41:20.427764Z,0.70105,-0.428467,-0.779968
2018-10-15T21:41:20.629764Z,-0.677917,0.5316770000000001,1.167542
2018-10-15T21:41:20.831764Z,-2.176086,-0.9724729999999999,-1.007507
2018-10-15T21:41:21.025764Z,-2.094604,-1.467957,-0.025146
2018-10-15T21:41:21.227764Z,-0.924011,-0.9301149999999999,0.7339479999999999
2018-10-15T21:41:21.425764Z,-1.091248,0.230896,0.055480999999999996
2018-10-15T21:41:21.634764Z,-2.189331,1.118958,-1.003845
2018-10-15T21:41:21.825764Z,-0.790466,0.723267,0.17486600000000002
2018-10-15T21:41:22.026764Z,-0.688416,0.576782,0.051758000000000005
2018-10-15T21:41:22.231764Z,-0.132935,0.270752,-0.612183
2018-10-15T21:41:22.431764Z,-2.132263,-0.087036,-0.346375
2018-10-15T21:41:22.632764Z,0.20916700000000002,-0.7242430000000001,-1.182434
2018-10-15T21:41:22.899764Z,-0.487915,-0.829895,0.772583
2018-10-15T21:41:23.031764Z,0.026427999999999997,-1.51178,1.792114
2018-10-15T21:41:23.239764Z,0.8297120000000001,-0.097839,-0.490784
2018-10-15T21:41:23.427764Z,0.990417,-0.383789,-0.8208620000000001
2018-10-15T21:41:23.626764Z,0.412476,0.638184,-0.338806
2018-10-15T21:41:24.028764Z,0.259949,1.156433,0.458801
2018-10-15T21:41:24.226764Z,-0.189331,1.296082,0.5625
2018-10-15T21:41:24.426764Z,-1.225586,-0.812012,0.9549559999999999
2018-10-15T21:41:24.625764Z,-0.6714479999999999,-0.269226,-1.239075
2018-10-15T21:41:24.828764Z,0.272888,0.305542,0.858826
2018-10-15T21:41:25.030764Z,0.132874,-0.506165,-0.319885
2018-10-15T21:41:25.244764Z,0.454346,0.443237,-0.513367
2018-10-15T21:41:25.423764Z,-0.38855,0.652771,1.578247
2018-10-15T21:41:25.633764Z,-0.027161,-1.855957,0.979065
2018-10-15T21:41:25.826764Z,0.8162229999999999,-0.990662,-0.182617
2018-10-15T21:41:26.025764Z,0.8007810000000001,-0.137146,-1.3302
2018-10-15T21:41:26.226764Z,1.4918209999999998,-0.44104,0.404785
2018-10-15T21:41:26.447764Z,2.408936,0.88208,1.498779
2018-10-15T21:41:26.626764Z,-0.203979,0.05835,1.8026119999999999
2018-10-15T21:41:26.825764Z,-1.64325,-0.059326,-0.468384
2018-10-15T21:41:27.025764Z,0.866821,-0.368652,1.22644
2018-10-15T21:41:27.225764Z,1.130798,-0.7028810000000001,1.2998049999999999
2018-10-15T21:41:27.426764Z,0.151306,1.148193,-0.770935
2018-10-15T21:41:27.626764Z,0.373108,-0.778625,2.2386470000000003
2018-10-15T21:41:27.826764Z,-1.067688,-0.91748,-0.37182600000000005
2018-10-15T21:41:28.026764Z,-0.41973900000000003,-0.237427,0.03656
2018-10-15T21:41:28.228764Z,-0.085449,0.21337899999999999,0.25616500000000003
2018-10-15T21:41:28.425764Z,-0.133972,-0.043518,-0.22033699999999998
2018-10-15T21:41:28.622764Z,0.277588,0.032837,0.5212399999999999
2018-10-15T21:41:28.825764Z,-0.19433599999999998,0.450378,-0.206116
2018-10-15T21:41:29.025764Z,0.34875500000000004,0.26507600000000003,-0.265381
2018-10-15T21:41:29.226764Z,-0.407715,0.488098,0.071716
2018-10-15T21:41:29.425764Z,-0.335083,1.137207,-0.24536100000000002
2018-10-15T21:41:29.632764Z,-0.6129760000000001,1.2783200000000001,0.21417199999999997
2018-10-15T21:41:29.825764Z,0.462646,-0.847717,1.30719
2018-10-15T21:41:30.031764Z,1.056152,-0.201294,-0.595154
2018-10-15T21:41:30.253764Z,1.17334,1.220032,0.356873
2018-10-15T21:41:30.434764Z,-1.182434,-0.436096,0.667603
2018-10-15T21:41:30.627764Z,-0.5542600000000001,-0.49749799999999994,-0.460876
2018-10-15T21:41:30.828764Z,-0.251648,-0.014832,0.130798
2018-10-15T21:41:31.028764Z,0.527039,-1.3526,3.9984129999999998
2018-10-15T21:41:31.235764Z,0.376892,-0.9801639999999999,-0.9260860000000001
2018-10-15T21:41:31.426764Z,0.434875,-0.5173949999999999,0.041076999999999995
2018-10-15T21:41:31.626764Z,-0.07733200000000001,-0.949463,0.295715
2018-10-15T21:41:31.825764Z,-0.339233,0.353699,-0.405518
2018-10-15T21:41:32.016764Z,-0.633667,0.66925,0.202209
2018-10-15T21:41:32.226764Z,0.494324,0.605591,-0.122742
2018-10-15T21:41:32.430764Z,0.016663,-0.777405,0.634338
2018-10-15T21:41:32.631764Z,-0.166199,0.004822,-0.328491
2018-10-15T21:41:32.826764Z,-0.284607,-0.649048,1.74646
2018-10-15T21:41:33.025764Z,-0.36047399999999996,-1.67041,1.692322
2018-10-15T21:41:33.227764Z,-0.6290279999999999,-0.063965,-0.649841
2018-10-15T21:41:33.426764Z,-1.154419,-0.645142,2.6809689999999997
2018-10-15T21:41:33.622764Z,-0.899597,-1.259766,-0.734375
2018-10-15T21:41:33.826764Z,-1.539856,-0.12646500000000002,1.8480830000000001
2018-10-15T21:41:34.025764Z,-0.08001699999999999,-2.959473,0.265137
2018-10-15T21:41:34.226764Z,-1.1704709999999998,-1.3432620000000002,0.45977799999999996
2018-10-15T21:41:34.426764Z,-0.9488530000000001,0.14440899999999998,-0.233948
2018-10-15T21:41:34.627764Z,-1.0825200000000001,0.109497,0.530029
2018-10-15T21:41:34.824764Z,-0.590271,0.014709,0.43115200000000004
2018-10-15T21:41:35.027764Z,-0.385071,0.044677999999999995,-0.10308800000000001
2018-10-15T21:41:35.227764Z,-0.38116500000000003,-0.8061520000000001,-1.443604
2018-10-15T21:41:35.435764Z,-0.9671629999999999,0.700623,1.541809
2018-10-15T21:41:35.628764Z,-1.419983,-1.187378,-1.33136
2018-10-15T21:41:35.826764Z,-2.349548,1.676941,1.938293
2018-10-15T21:41:36.026764Z,-0.50354,-0.603333,-1.855103
2018-10-15T21:41:36.225764Z,-2.0178830000000003,0.775208,0.057616999999999995
2018-10-15T21:41:36.425764Z,-0.365051,-0.618103,1.6159059999999998
2018-10-15T21:41:36.625764Z,-3.0756229999999998,-0.36791999999999997,-1.9101560000000002
2018-10-15T21:41:36.833764Z,-1.169189,0.065491,-0.059753
2018-10-15T21:41:37.031764Z,-1.6544189999999999,0.549438,-1.0853270000000002
2018-10-15T21:41:37.426764Z,-2.2822880000000003,1.365356,3.082214
2018-10-15T21:41:37.626764Z,-1.956421,-1.709717,6.260254
2018-10-15T21:41:37.826764Z,-0.32250999999999996,-0.668945,0.230713
2018-10-15T21:41:38.026764Z,-0.754272,0.515137,-3.8678589999999997
2018-10-15T21:41:38.227764Z,-2.243774,1.479431,3.075012
2018-10-15T21:41:38.425764Z,-1.95575,2.001648,-0.074036
2018-10-15T21:41:38.625764Z,-0.818176,1.285034,0.407043
2018-10-15T21:41:38.826764Z,-2.502441,-0.085022,-1.46167
2018-10-15T21:41:39.025764Z,-1.7374880000000001,1.013611,0.8711549999999999
2018-10-15T21:41:39.225764Z,-1.903503,0.758789,-0.223633
2018-10-15T21:41:39.431764Z,-1.744751,0.333862,-1.519287
2018-10-15T21:41:39.625764Z,-1.137573,1.009216,-0.813904
2018-10-15T21:41:39.826764Z,-1.512268,0.405518,1.9179689999999998
2018-10-15T21:41:40.027764Z,-1.7025150000000002,0.424133,0.795471
2018-10-15T21:41:40.226764Z,-1.57605,-0.045288,-0.597168
2018-10-15T21:41:40.426764Z,-1.425659,1.11554,-0.9245
2018-10-15T21:41:40.623764Z,-0.9769899999999999,0.606689,-0.264404
2018-10-15T21:41:40.825764Z,-0.8214110000000001,0.693054,-0.504822
2018-10-15T21:41:41.026764Z,-0.9268799999999999,0.661621,-0.644104
2018-10-15T21:41:41.236764Z,-0.9862059999999999,0.748596,-1.413635
2018-10-15T21:41:41.426764Z,-0.6625979999999999,1.185974,1.105713
2018-10-15T21:41:41.626764Z,-0.06072999999999999,-0.836182,2.97937
2018-10-15T21:41:41.827764Z,0.347168,-0.202576,-1.134827
2018-10-15T21:41:42.026764Z,-0.155151,1.009277,0.617676
2018-10-15T21:41:42.225764Z,-1.085144,-0.871948,3.485474
2018-10-15T21:41:42.426764Z,-0.326538,-0.10394300000000001,-0.601074
2018-10-15T21:41:42.625764Z,-0.645935,-0.3974,0.803162
2018-10-15T21:41:42.825764Z,-0.358093,-0.42211899999999997,-0.330261
2018-10-15T21:41:43.026764Z,-0.29443400000000003,-0.515991,-0.22906500000000002
2018-10-15T21:41:43.225764Z,-0.47546400000000005,-0.527954,-1.476257
2018-10-15T21:41:43.425764Z,1.9906009999999998,-0.12109400000000001,0.975891
2018-10-15T21:41:43.622764Z,0.031616000000000005,-0.896057,0.062134
2018-10-15T21:41:43.825764Z,0.833801,-0.47546400000000005,-0.09668
2018-10-15T21:41:44.026764Z,-0.431641,-0.220886,-0.058533
2018-10-15T21:41:44.254764Z,-0.07666,-0.494568,0.865662
2018-10-15T21:41:44.433764Z,-0.130737,0.068298,-0.05365
2018-10-15T21:41:44.633764Z,0.260925,-0.253296,-0.242432
2018-10-15T21:41:44.832764Z,-0.372803,-0.148804,-0.2677
2018-10-15T21:41:45.027764Z,-0.342957,0.07482899999999999,0.348694
2018-10-15T21:41:45.228764Z,0.15771500000000002,0.028687,0.488525
2018-10-15T21:41:45.425764Z,-0.033752,0.20929,-0.069885
2018-10-15T21:41:45.625764Z,-0.072754,0.030212,-0.322388
2018-10-15T21:41:45.829764Z,-0.383911,0.014038,-0.211182
2018-10-15T21:41:46.029764Z,-0.526123,0.052612,0.308228
2018-10-15T21:41:46.229764Z,1.199707,-0.569153,0.738159
2018-10-15T21:41:46.433764Z,0.832458,-0.277893,0.091003
2018-10-15T21:41:46.616764Z,1.231934,-1.197815,-0.22784400000000002
2018-10-15T21:41:46.825764Z,-0.47766099999999995,-1.06134,0.378357
2018-10-15T21:41:47.026764Z,0.10497999999999999,0.530457,1.71521
2018-10-15T21:41:47.225764Z,-1.018677,0.775513,0.950867
2018-10-15T21:41:47.425764Z,-2.873413,-0.515625,-0.32250999999999996
2018-10-15T21:41:47.626764Z,2.055054,-0.6598510000000001,-1.637329
2018-10-15T21:41:47.825764Z,1.2547,1.080566,-0.007568000000000001
2018-10-15T21:41:48.026764Z,0.794128,0.388,1.091309
2018-10-15T21:41:48.226764Z,-0.607544,1.324707,-1.139648
2018-10-15T21:41:48.425764Z,0.216736,1.067261,-1.552185
2018-10-15T21:41:48.626764Z,0.23284899999999997,0.7086180000000001,-0.151306
2018-10-15T21:41:48.825764Z,0.20929,0.34436,0.073059
2018-10-15T21:41:49.026764Z,0.375427,0.251282,0.447754
2018-10-15T21:41:49.258764Z,0.10022,0.347595,0.72821
2018-10-15T21:41:49.435764Z,0.002441,0.27301,0.217651
2018-10-15T21:41:49.650764Z,-0.205566,0.148254,-0.172058
2018-10-15T21:41:49.827764Z,0.056029999999999996,0.059082,0.259766
2018-10-15T21:41:50.027764Z,0.148376,0.21423299999999998,0.276611
2018-10-15T21:41:50.226764Z,2.369812,-0.517029,0.687012
2018-10-15T21:41:50.426764Z,2.776672,1.122986,0.314575
2018-10-15T21:41:50.626764Z,0.9436040000000001,0.635925,-0.279053
2018-10-15T21:41:50.826764Z,-1.149902,0.8464969999999999,-0.48944099999999996
2018-10-15T21:41:51.027764Z,-1.913391,0.781189,-0.080139
2018-10-15T21:41:51.232764Z,-0.6793819999999999,0.461304,-1.473999
2018-10-15T21:41:51.429764Z,-0.944275,2.163147,1.333984
2018-10-15T21:41:51.629764Z,1.229797,0.11084000000000001,-1.136292
2018-10-15T21:41:51.827764Z,-0.100891,1.4129639999999999,-2.288879
2018-10-15T21:41:52.026764Z,-0.058655,1.743164,-1.4391479999999999
2018-10-15T21:41:52.225764Z,-0.868591,0.441345,0.41851800000000006
2018-10-15T21:41:52.625764Z,-0.735718,0.389343,-0.751526
2018-10-15T21:41:52.825764Z,0.277161,0.130981,-0.8425290000000001
2018-10-15T21:41:53.025764Z,1.123657,0.09753400000000001,-0.429321
2018-10-15T21:41:53.226764Z,0.014282,0.28595,1.103027
2018-10-15T21:41:53.425764Z,0.717468,1.14447,-0.453125
2018-10-15T21:41:53.626764Z,-1.365967,1.719177,-0.49938999999999995
2018-10-15T21:41:53.830764Z,2.259216,-1.225525,0.87146
2018-10-15T21:41:54.025764Z,1.029236,-0.386353,-0.652405
2018-10-15T21:41:54.226764Z,0.5488890000000001,-0.181152,0.420288
2018-10-15T21:41:54.453764Z,-0.476624,0.096863,-3.9624019999999995
2018-10-15T21:41:54.631764Z,0.453125,0.32568400000000003,-0.110046
2018-10-15T21:41:54.825764Z,0.8619379999999999,1.1860959999999998,0.38623
2018-10-15T21:41:55.045764Z,0.560791,1.353638,0.072144
2018-10-15T21:41:55.226764Z,1.282959,1.359375,-1.147034
2018-10-15T21:41:55.427764Z,-0.016479,1.5108030000000001,-0.225952
2018-10-15T21:41:55.626764Z,-0.352173,0.962952,-0.12854000000000002
2018-10-15T21:41:55.832764Z,-1.753296,-0.53894,0.28875700000000004
2018-10-15T21:41:56.035764Z,-1.7708130000000002,1.8153080000000001,-1.339783
2018-10-15T21:41:56.226764Z,0.421875,1.6555790000000001,1.14209
2018-10-15T21:41:56.431764Z,1.2769780000000002,0.221191,-1.436401
2018-10-15T21:41:56.631764Z,-0.625549,0.878052,-1.2933350000000001
2018-10-15T21:41:56.832764Z,-1.352966,0.9927370000000001,0.769043
2018-10-15T21:41:57.025764Z,-0.09552000000000001,-2.056213,0.5546260000000001
2018-10-15T21:41:57.225764Z,0.877441,-0.580505,-0.833191
2018-10-15T21:41:57.425764Z,-0.048645,1.014832,0.288635
2018-10-15T21:41:57.630764Z,0.268494,0.337891,0.360718
2018-10-15T21:41:57.829764Z,-0.576721,0.8671260000000001,0.045226999999999996
2018-10-15T21:41:58.031764Z,-1.238281,0.594482,-0.200439
2018-10-15T21:41:58.233764Z,-1.127625,0.7868649999999999,-0.47106899999999996
2018-10-15T21:41:58.426764Z,-0.265381,0.174438,0.097839
2018-10-15T21:41:58.633764Z,-0.668396,0.06897,1.255737
2018-10-15T21:41:58.832764Z,0.271484,0.654602,0.090576
2018-10-15T21:41:59.026764Z,-0.127625,0.258423,0.309875
2018-10-15T21:41:59.225764Z,-0.228516,-1.514038,-0.18365499999999998
2018-10-15T21:41:59.426764Z,-0.6777340000000001,-0.474243,0.049866
2018-10-15T21:41:59.625764Z,-0.228638,-0.182068,0.6483760000000001
2018-10-15T21:41:59.832764Z,0.013184,-0.846741,-0.829773
2018-10-15T21:42:00.025764Z,0.40136700000000003,-0.9776,0.213196
2018-10-15T21:42:00.226764Z,0.370605,-1.329407,1.2879639999999999
2018-10-15T21:42:00.426764Z,-0.301697,-0.971252,0.280334
2018-10-15T21:42:00.625764Z,-5.898987,1.6868900000000002,-0.605896
2018-10-15T21:42:00.825764Z,1.391602,-1.409546,0.562561
2018-10-15T21:42:01.031764Z,0.21716300000000002,-0.610413,-0.302856
2018-10-15T21:42:01.227764Z,0.62793,-0.94635,-0.284058
2018-10-15T21:42:01.425764Z,-2.071716,0.455078,0.989075
2018-10-15T21:42:01.625764Z,-0.907349,0.047913,-0.427795
2018-10-15T21:42:01.825764Z,-0.49108900000000005,-0.016846,-0.000305
2018-10-15T21:42:02.025764Z,-0.44244399999999995,0.026123,-0.010376
2018-10-15T21:42:02.230764Z,-0.551208,-0.034546,0.21447800000000003
2018-10-15T21:42:02.426764Z,-1.728271,0.46533199999999997,-0.934998
2018-10-15T21:42:02.617764Z,-0.02478,-0.322998,-0.22521999999999998
2018-10-15T21:42:02.831764Z,0.110596,-0.450317,-0.221802
2018-10-15T21:42:03.025764Z,-0.765564,-0.021362,-0.021057
2018-10-15T21:42:03.226764Z,0.07281499999999999,-0.19934100000000002,-0.275879
2018-10-15T21:42:03.422764Z,-0.023254,0.237488,-0.322388
2018-10-15T21:42:03.622764Z,-1.2745360000000001,0.8909299999999999,0.095581
2018-10-15T21:42:03.826764Z,0.023804,0.84967,0.029113999999999998
2018-10-15T21:42:04.025764Z,0.48748800000000003,0.609924,1.185303
2018-10-15T21:42:04.225764Z,1.190796,-0.8032229999999999,-0.0177
2018-10-15T21:42:04.425764Z,-0.076294,0.43444799999999995,-1.582458
2018-10-15T21:42:04.627764Z,0.26855500000000004,0.7554930000000001,0.390015
2018-10-15T21:42:04.842764Z,1.1292719999999998,-1.317017,1.19696
2018-10-15T21:42:05.033764Z,-1.004456,-1.241272,0.14679
2018-10-15T21:42:05.227764Z,0.024841,-0.890259,-0.74353
2018-10-15T21:42:05.426764Z,0.06897,-0.7013550000000001,-0.436829
2018-10-15T21:42:05.626764Z,-0.048157,-0.9709469999999999,1.109497
2018-10-15T21:42:05.826764Z,-0.20764200000000002,-0.9411010000000001,0.009337999999999999
2018-10-15T21:42:06.025764Z,-0.104431,-0.060851999999999996,0.29797399999999996
2018-10-15T21:42:06.222764Z,0.383606,-1.12616,-0.220581
2018-10-15T21:42:06.432764Z,-0.335144,-0.9276120000000001,0.147827
2018-10-15T21:42:06.633764Z,-1.1298219999999999,-0.392822,-0.18023699999999998
2018-10-15T21:42:06.831764Z,-0.40509,-0.5193479999999999,-0.07739299999999999
2018-10-15T21:42:07.025764Z,-0.28137199999999996,-0.47106899999999996,-0.429382
2018-10-15T21:42:07.226764Z,-1.0953979999999999,0.275024,-0.123901
2018-10-15T21:42:07.425764Z,-0.424072,0.04541,0.046814
2018-10-15T21:42:07.626764Z,-0.185974,-0.21142600000000003,-0.254333
2018-10-15T21:42:07.825764Z,-0.435669,0.005188,-0.568665
2018-10-15T21:42:08.025764Z,0.107483,-0.20544400000000002,-0.16534400000000002
2018-10-15T21:42:08.226764Z,-0.078613,-0.32800300000000004,0.43218999999999996
2018-10-15T21:42:08.638764Z,-0.7434689999999999,-0.235046,-0.408936
2018-10-15T21:42:08.827764Z,-2.082764,0.70282,-0.23596199999999998
2018-10-15T21:42:09.025764Z,-0.930481,0.009521,0.33075
2018-10-15T21:42:09.226764Z,-0.36688200000000004,-1.29126,2.600708
2018-10-15T21:42:09.426764Z,0.139709,-0.635559,-0.29541
2018-10-15T21:42:09.627764Z,-0.124146,-0.24725300000000003,-0.534668
2018-10-15T21:42:09.825764Z,-0.530945,0.352173,-0.796082
2018-10-15T21:42:10.026764Z,-0.378052,0.398499,0.132935
2018-10-15T21:42:10.225764Z,-0.58075,-0.9436040000000001,0.34991500000000003
2018-10-15T21:42:10.431764Z,-1.1572879999999999,-0.9417110000000001,-1.021301
2018-10-15T21:42:10.635764Z,-1.391907,-0.722595,0.9390870000000001
2018-10-15T21:42:10.837764Z,-0.604248,0.487854,-0.299194
2018-10-15T21:42:11.023764Z,-0.8555299999999999,0.176453,0.429993
2018-10-15T21:42:11.226764Z,0.286072,-0.664246,0.24578899999999998
2018-10-15T21:42:11.427764Z,0.284729,-0.44458000000000003,-0.167175
2018-10-15T21:42:11.625764Z,0.293274,0.067566,-0.956299
2018-10-15T21:42:11.826764Z,0.430054,0.208252,-0.076843
2018-10-15T21:42:12.029764Z,0.445251,0.020996,-0.067688
2018-10-15T21:42:12.261764Z,0.945312,-0.8805540000000001,0.685181
2018-10-15T21:42:12.431764Z,0.36938499999999996,-1.0170290000000002,-0.9996950000000001
2018-10-15T21:42:12.633764Z,0.457275,-0.54657,-0.137207
2018-10-15T21:42:12.832764Z,0.148499,-0.6640010000000001,-0.458374
2018-10-15T21:42:13.025764Z,0.751648,-0.507935,3.351257
2018-10-15T21:42:13.227764Z,1.478149,0.993591,1.579895
2018-10-15T21:42:13.425764Z,1.186523,0.89502,-0.031432999999999996
2018-10-15T21:42:13.625764Z,0.658752,-0.23168899999999998,1.1051030000000002
2018-10-15T21:42:13.825764Z,-0.381226,-0.31756599999999996,-1.011169
2018-10-15T21:42:14.025764Z,-0.14386,0.919617,-0.638
2018-10-15T21:42:14.231764Z,0.002625,1.055603,-0.815186
2018-10-15T21:42:14.431764Z,0.7852779999999999,0.600464,-0.5212399999999999
2018-10-15T21:42:14.656764Z,0.396484,0.042969,0.539856
2018-10-15T21:42:14.830764Z,-0.34484899999999996,0.7730100000000001,0.171631
2018-10-15T21:42:15.026764Z,-0.030151,0.433228,0.732788
2018-10-15T21:42:15.226764Z,-0.512451,-1.4852290000000001,0.135986
2018-10-15T21:42:15.442764Z,-0.38000500000000004,-0.354004,-0.158081
2018-10-15T21:42:15.626764Z,-0.173157,0.217102,-0.260803
2018-10-15T21:42:15.832764Z,-0.592712,0.32409699999999997,0.706604
2018-10-15T21:42:16.017764Z,-0.35992399999999997,-1.304626,1.8574830000000002
2018-10-15T21:42:16.227764Z,0.678772,-0.816772,0.7750239999999999
2018-10-15T21:42:16.425764Z,0.166443,0.382019,-0.157959
2018-10-15T21:42:16.624764Z,-0.393005,0.664246,0.190369
2018-10-15T21:42:16.827764Z,-1.243408,-0.39074699999999996,-1.75708
2018-10-15T21:42:17.023764Z,-1.058289,-0.056763,-0.8950809999999999
2018-10-15T21:42:17.229764Z,-0.511414,-0.26550300000000004,1.107178
2018-10-15T21:42:17.425764Z,0.41107200000000005,-1.504944,0.999207
2018-10-15T21:42:17.625764Z,-0.049255,-0.579102,-0.963623
2018-10-15T21:42:17.822764Z,-0.158752,-0.73938,0.160217
2018-10-15T21:42:18.026764Z,-0.669678,-0.23290999999999998,-0.718689
2018-10-15T21:42:18.226764Z,-0.971924,-0.26818800000000004,0.074646
2018-10-15T21:42:18.425764Z,-0.856201,-1.9074099999999998,0.288025
2018-10-15T21:42:18.626764Z,0.487915,-0.788025,-0.36230500000000004
2018-10-15T21:42:18.825764Z,-0.8482059999999999,-0.41278100000000006,-0.34057600000000005
2018-10-15T21:42:19.025764Z,-1.279236,-0.06018099999999999,-0.750916
2018-10-15T21:42:19.226764Z,-0.682068,0.103333,-0.44403100000000006
2018-10-15T21:42:19.424764Z,0.000183,-0.877441,1.594177
2018-10-15T21:42:19.625764Z,-1.077515,0.031188999999999998,-0.199402
2018-10-15T21:42:19.833764Z,-1.52179,0.053894000000000004,-0.415955
2018-10-15T21:42:20.035764Z,-0.732178,-0.025024,0.306091
2018-10-15T21:42:20.226764Z,-0.618286,0.068298,-0.266785
2018-10-15T21:42:20.426764Z,0.22412100000000001,-0.982239,0.202515
2018-10-15T21:42:20.636764Z,0.506653,-0.773987,-0.12078900000000001
2018-10-15T21:42:20.825764Z,0.452942,0.227173,0.21820100000000003
2018-10-15T21:42:21.025764Z,-0.065613,0.289062,0.24029499999999998
2018-10-15T21:42:21.225764Z,0.29388400000000003,-0.741394,-0.735657
2018-10-15T21:42:21.426764Z,0.030639999999999997,-1.150879,-0.5046390000000001
2018-10-15T21:42:21.631764Z,-0.669006,-0.48645,-0.628418
2018-10-15T21:42:21.831764Z,-0.7932739999999999,-0.100098,0.439514
2018-10-15T21:42:22.027764Z,0.344238,-1.149109,0.33013899999999996
2018-10-15T21:42:22.229764Z,0.48309300000000005,-0.6130979999999999,-0.24585
2018-10-15T21:42:22.630764Z,0.7221069999999999,0.22888200000000003,0.29657
2018-10-15T21:42:22.832764Z,0.358887,0.45178199999999996,-0.187317
2018-10-15T21:42:23.025764Z,0.532166,0.86731,1.142883
2018-10-15T21:42:23.225764Z,0.9774780000000001,-0.706665,0.365784
2018-10-15T21:42:23.426764Z,-0.797607,-0.498169,-0.8197629999999999
2018-10-15T21:42:23.622764Z,-0.02417,-0.01709,-1.009644
2018-10-15T21:42:23.830764Z,0.15155,-0.319275,1.4129639999999999
2018-10-15T21:42:24.030764Z,0.235229,-0.341125,-0.634705
2018-10-15T21:42:24.223764Z,0.5451050000000001,-0.276001,-0.595581
2018-10-15T21:42:24.433764Z,1.125732,0.370178,0.380859
2018-10-15T21:42:24.636764Z,0.724854,0.502563,-0.43963599999999997
2018-10-15T21:42:24.830764Z,-0.227478,0.30175799999999997,1.043518
2018-10-15T21:42:25.032764Z,0.761047,-0.770569,-0.773254
2018-10-15T21:42:25.226764Z,0.568787,-0.272888,-0.13830599999999998
2018-10-15T21:42:25.427764Z,0.47192399999999995,0.23168899999999998,-0.151672
2018-10-15T21:42:25.634764Z,0.17260699999999998,0.533142,-0.6599729999999999
2018-10-15T21:42:25.827764Z,0.978088,0.128296,0.529297
2018-10-15T21:42:26.026764Z,0.9976200000000001,0.666809,0.479858
2018-10-15T21:42:26.226764Z,0.227417,1.600098,-0.244995
2018-10-15T21:42:26.426764Z,0.24212600000000004,0.7757569999999999,0.270813
2018-10-15T21:42:26.626764Z,-0.24267600000000003,-0.676331,-0.394531
2018-10-15T21:42:26.836764Z,-0.369446,0.330505,-0.273376
2018-10-15T21:42:27.043764Z,-0.43688999999999995,0.805664,1.1784059999999998
2018-10-15T21:42:27.231764Z,0.06286599999999999,0.264771,-0.219788
2018-10-15T21:42:27.430764Z,0.49310299999999996,-0.223572,0.162476
2018-10-15T21:42:27.628764Z,-0.138489,0.313232,0.282837
2018-10-15T21:42:27.825764Z,-0.649475,-0.7307739999999999,0.993347
2018-10-15T21:42:28.015764Z,-0.514771,-0.360229,-0.928528
2018-10-15T21:42:28.225764Z,-0.235352,0.24145500000000003,-0.01178
2018-10-15T21:42:28.427764Z,-0.229431,0.282654,-0.007506999999999999
2018-10-15T21:42:28.626764Z,-0.17028800000000002,0.30249000000000004,-0.013611000000000002
2018-10-15T21:42:28.825764Z,-0.02002,-0.13684100000000002,-0.226929
2018-10-15T21:42:29.031764Z,-0.27929699999999996,0.39373800000000003,-0.549805
2018-10-15T21:42:29.232764Z,-0.43493699999999996,0.174438,-0.18591300000000002
2018-10-15T21:42:29.433764Z,-0.12341300000000001,0.21875,0.10199
2018-10-15T21:42:29.626764Z,-0.288635,-0.066467,0.133911
2018-10-15T21:42:29.835764Z,-0.212036,0.11108399999999999,-0.290527
2018-10-15T21:42:30.027764Z,0.5490109999999999,-0.010742,-0.833923
2018-10-15T21:42:30.226764Z,-0.351746,0.673584,-0.439514
2018-10-15T21:42:30.428764Z,-0.075134,0.2229,-0.095703
2018-10-15T21:42:30.627764Z,-0.06066900000000001,0.037842,0.20282
2018-10-15T21:42:30.825764Z,0.051330999999999995,0.24084499999999998,-0.228394
2018-10-15T21:42:31.025764Z,-0.474731,1.118225,-1.11438
2018-10-15T21:42:31.225764Z,-0.608032,0.984924,-0.168518
2018-10-15T21:42:31.426764Z,-0.45184300000000005,-0.354004,1.859009
2018-10-15T21:42:31.626764Z,0.043274,-0.873108,0.16381800000000002
2018-10-15T21:42:31.825764Z,0.836609,0.047363,0.15423599999999998
2018-10-15T21:42:32.025764Z,-0.534363,-1.055847,1.1766969999999999
2018-10-15T21:42:32.228764Z,-0.789185,-1.593384,-1.438477
2018-10-15T21:42:32.427764Z,-0.020812999999999998,-0.140259,-0.092896
2018-10-15T21:42:32.625764Z,0.178833,-1.7118529999999998,3.4146120000000004
2018-10-15T21:42:32.827764Z,0.033569,-0.922119,-0.605835
2018-10-15T21:42:33.113764Z,-1.015015,-0.975281,1.689819
2018-10-15T21:42:33.224764Z,-0.091248,-1.9212040000000001,0.06805399999999999
2018-10-15T21:42:33.432764Z,-1.3402100000000001,-1.7430419999999998,0.634888
2018-10-15T21:42:33.621764Z,-2.0620119999999997,-0.478271,-0.150513
2018-10-15T21:42:33.825764Z,-1.010315,-0.269775,0.021912
2018-10-15T21:42:34.026764Z,-0.763672,-0.271057,-0.843567
2018-10-15T21:42:34.226764Z,-0.556702,-0.333862,0.034485
2018-10-15T21:42:34.425764Z,-0.201233,-1.439453,1.550537
2018-10-15T21:42:34.625764Z,0.306824,-1.518494,0.10919200000000001
2018-10-15T21:42:34.831764Z,0.126709,-1.238953,0.090027
2018-10-15T21:42:35.027764Z,0.21704099999999998,-0.305359,-0.42858900000000005
2018-10-15T21:42:35.233764Z,-1.236084,0.060608,-0.897278
2018-10-15T21:42:35.626764Z,-1.072815,0.112976,-0.585693
2018-10-15T21:42:35.826764Z,-0.636353,0.062805,-0.183167
2018-10-15T21:42:36.027764Z,-0.717102,0.167908,-0.020630000000000003
2018-10-15T21:42:36.226764Z,-0.11853,-0.355835,0.35022
2018-10-15T21:42:36.426764Z,-0.34179699999999996,-0.053101,-0.179871
2018-10-15T21:42:36.627764Z,-0.016479,-0.390991,0.07421900000000001
2018-10-15T21:42:36.826764Z,0.6952510000000001,-0.149963,0.32922399999999996
2018-10-15T21:42:37.025764Z,1.213257,-1.159058,0.15087899999999999
2018-10-15T21:42:37.225764Z,1.0170290000000002,-0.998352,-0.140076
2018-10-15T21:42:37.428764Z,-0.03009,-1.071228,0.904114
2018-10-15T21:42:37.625764Z,-0.752319,-1.763184,1.429749
2018-10-15T21:42:37.824764Z,-1.1121219999999998,-0.876343,0.032593000000000004
2018-10-15T21:42:38.024764Z,0.050903,-1.7912599999999999,-0.768433
2018-10-15T21:42:38.225764Z,-0.475891,-0.9273680000000001,1.758362
2018-10-15T21:42:38.424764Z,-1.148621,0.48944099999999996,1.271484
2018-10-15T21:42:38.625764Z,-1.791077,0.7712399999999999,-0.439758
2018-10-15T21:42:38.826764Z,0.047729,0.430054,-0.664612
2018-10-15T21:42:39.027764Z,0.327393,0.851929,-0.514587
2018-10-15T21:42:39.227764Z,0.100037,1.052002,-0.302063
2018-10-15T21:42:39.425764Z,-0.015259,0.632324,-0.27655
2018-10-15T21:42:39.625764Z,0.419128,0.21533200000000002,-0.035156
2018-10-15T21:42:39.825764Z,0.776917,0.119629,-0.369873
2018-10-15T21:42:40.027764Z,-0.052917,0.545471,-0.704224
2018-10-15T21:42:40.227764Z,-0.42401099999999997,0.417786,-0.266846
2018-10-15T21:42:40.424764Z,-0.10681199999999999,0.306702,0.657776
2018-10-15T21:42:40.631764Z,0.272583,0.06957999999999999,-0.614929
2018-10-15T21:42:40.825764Z,0.07220499999999999,0.303589,-0.653076
2018-10-15T21:42:41.029764Z,0.357605,0.36181599999999997,-0.395569
2018-10-15T21:42:41.226764Z,0.235535,0.35553,-0.412292
2018-10-15T21:42:41.421764Z,0.09729,0.092041,-0.23669400000000002
2018-10-15T21:42:41.639764Z,0.09185800000000001,0.14135699999999998,-0.272278
2018-10-15T21:42:41.838764Z,-0.427734,-0.032166,0.277039
2018-10-15T21:42:42.025764Z,-0.041321,0.396423,-0.203125
2018-10-15T21:42:42.224764Z,-0.202148,0.292236,-0.633057
2018-10-15T21:42:42.422764Z,-0.611633,0.246277,0.36236599999999997
2018-10-15T21:42:42.641764Z,-0.117798,0.05365,-0.067078
2018-10-15T21:42:42.831764Z,-0.201721,0.537415,-0.21099899999999996
2018-10-15T21:42:43.027764Z,0.282654,1.34375,-0.24145500000000003
2018-10-15T21:42:43.226764Z,0.088318,1.579956,-0.294373
2018-10-15T21:42:43.425764Z,0.122925,1.35437,0.29180900000000004
2018-10-15T21:42:43.615764Z,-0.60614,-1.6797490000000002,1.1392209999999998
2018-10-15T21:42:43.830764Z,-0.950073,-0.805725,-1.152588
2018-10-15T21:42:44.022764Z,-0.197327,0.274048,-0.680847
2018-10-15T21:42:44.231764Z,0.388245,-1.9577639999999998,3.037659
2018-10-15T21:42:44.426764Z,0.103333,-0.867432,-2.064087
2018-10-15T21:42:44.626764Z,1.13324,-0.815613,0.9252319999999999
2018-10-15T21:42:44.825764Z,-1.740662,-0.449219,1.014526
2018-10-15T21:42:45.026764Z,-1.309998,-1.026367,0.645325
2018-10-15T21:42:45.225764Z,-0.42303500000000005,-0.28131100000000003,-0.324219
2018-10-15T21:42:45.425764Z,-0.455139,0.553894,0.5394899999999999
2018-10-15T21:42:45.625764Z,0.13989300000000002,0.166138,-1.5223389999999999
2018-10-15T21:42:45.837764Z,-0.181152,-0.550049,0.830139
2018-10-15T21:42:46.022764Z,-0.218689,0.891174,0.826843
2018-10-15T21:42:46.231764Z,-1.427429,0.08996599999999999,0.975769
2018-10-15T21:42:46.432764Z,-0.664795,-2.5178220000000002,1.740234
2018-10-15T21:42:46.633764Z,-0.311462,-0.051940999999999994,-1.043213
2018-10-15T21:42:46.826764Z,-0.7093510000000001,0.13903800000000002,1.372131
2018-10-15T21:42:47.026764Z,-0.776245,-0.676819,-0.019775
2018-10-15T21:42:47.226764Z,-0.686157,0.647644,0.259277
2018-10-15T21:42:47.425764Z,-1.108154,-0.154419,0.22528099999999998
2018-10-15T21:42:47.625764Z,-0.850952,-0.628784,-2.032715
2018-10-15T21:42:47.825764Z,-0.803284,0.42077600000000004,-0.258972
2018-10-15T21:42:48.025764Z,-0.094604,-0.899719,-1.1315309999999998
2018-10-15T21:42:48.228764Z,-1.5552979999999998,-0.482178,-0.10888699999999998
2018-10-15T21:42:48.426764Z,-1.9005130000000001,-0.606689,0.42333999999999994
2018-10-15T21:42:48.641764Z,-3.9487300000000003,-2.3059689999999997,0.280029
2018-10-15T21:42:49.026764Z,-2.3328860000000002,-0.524109,0.21142600000000003
2018-10-15T21:42:49.226764Z,-0.695923,-0.87384,2.917725
2018-10-15T21:42:49.428764Z,-1.606384,0.046326,-1.791504
2018-10-15T21:42:49.628764Z,-2.5322880000000003,0.6037600000000001,1.013916
2018-10-15T21:42:49.825764Z,-2.682983,-0.204895,-1.7577509999999998
2018-10-15T21:42:50.025764Z,-2.2633669999999997,0.388367,-1.551941
2018-10-15T21:42:50.226764Z,-2.0990599999999997,1.845276,-0.105957
2018-10-15T21:42:50.427764Z,-2.703979,0.8428959999999999,-1.238953
2018-10-15T21:42:50.642764Z,-2.030945,1.231873,-0.9605100000000001
2018-10-15T21:42:50.828764Z,-1.8286740000000001,1.5961299999999998,-0.427856
2018-10-15T21:42:51.027764Z,-2.2994380000000003,0.705383,-0.671265
2018-10-15T21:42:51.231764Z,-1.0603639999999999,0.930725,-1.435913
2018-10-15T21:42:51.431764Z,-0.767212,1.7276,0.151917
2018-10-15T21:42:51.625764Z,-0.228149,0.971985,-1.213257
2018-10-15T21:42:51.825764Z,-0.2323,2.488953,-1.150635
2018-10-15T21:42:52.026764Z,-1.215576,3.146545,0.6332399999999999
2018-10-15T21:42:52.227764Z,-1.176941,2.317749,-1.635742
2018-10-15T21:42:52.429764Z,-1.134644,1.065186,-1.343323
2018-10-15T21:42:52.626764Z,-1.165405,1.8267209999999998,-0.700928
2018-10-15T21:42:52.831764Z,-0.659119,1.4615479999999998,-0.219177
2018-10-15T21:42:53.034764Z,-0.783447,1.607666,-1.427551
2018-10-15T21:42:53.225764Z,-0.296875,0.8204959999999999,-1.443848
2018-10-15T21:42:53.428764Z,-0.306946,1.418518,-1.103271
2018-10-15T21:42:53.622764Z,0.38049299999999997,0.231506,3.088257
2018-10-15T21:42:53.826764Z,-1.31427,1.7514040000000002,-1.683411
2018-10-15T21:42:54.027764Z,-0.927002,1.387634,0.829041
2018-10-15T21:42:54.225764Z,-0.536987,1.306885,-0.443665
2018-10-15T21:42:54.425764Z,0.341675,1.824097,-0.613953
2018-10-15T21:42:54.625764Z,-0.260681,0.121643,0.5291140000000001
2018-10-15T21:42:54.825764Z,-0.17181400000000002,1.354187,-0.596069
2018-10-15T21:42:55.059764Z,0.498962,0.46106,0.29577600000000004
2018-10-15T21:42:55.243764Z,-0.27124000000000004,0.76947,0.182068
2018-10-15T21:42:55.446764Z,0.24829099999999998,0.6369020000000001,-0.510315
2018-10-15T21:42:55.625764Z,0.05859400000000001,0.21911599999999998,-1.06781
2018-10-15T21:42:55.829764Z,0.389648,0.6000979999999999,-1.1370850000000001
2018-10-15T21:42:56.026764Z,0.298035,0.403442,0.511475
2018-10-15T21:42:56.231764Z,0.388916,0.190125,0.551331
2018-10-15T21:42:56.416764Z,0.42681899999999995,0.972656,-0.032166
2018-10-15T21:42:56.626764Z,0.47131300000000004,1.0083010000000001,-0.312683
2018-10-15T21:42:56.825764Z,0.013489,1.244507,-0.25177
2018-10-15T21:42:57.027764Z,-0.813843,-0.156128,0.525085
2018-10-15T21:42:57.227764Z,-0.8208620000000001,0.9165040000000001,-1.3101200000000002
2018-10-15T21:42:57.426764Z,-0.43707299999999993,0.885925,0.08606
2018-10-15T21:42:57.624764Z,0.449219,0.274902,-3.2536009999999997
2018-10-15T21:42:57.825764Z,0.160461,0.210144,-1.527954
2018-10-15T21:42:58.025764Z,-0.366333,0.46606400000000003,0.905273
2018-10-15T21:42:58.231764Z,-1.369446,-0.514709,-2.402405
2018-10-15T21:42:58.434764Z,-0.690308,0.009155,-1.572449
2018-10-15T21:42:58.646764Z,0.013062,0.662292,-1.155518
2018-10-15T21:42:58.840764Z,-0.639343,-0.776367,0.840515
2018-10-15T21:42:59.036764Z,-0.932068,0.032349,-0.856506
2018-10-15T21:42:59.237764Z,-2.172119,-0.42669700000000005,-1.271301
2018-10-15T21:42:59.438764Z,-1.192627,-0.099976,0.643555
2018-10-15T21:42:59.636764Z,-0.8823850000000001,0.012329000000000001,0.948242
2018-10-15T21:42:59.835764Z,-0.191833,-1.540771,3.3788449999999997
2018-10-15T21:43:00.047764Z,-0.303284,-0.747314,-0.8930049999999999
2018-10-15T21:43:00.236764Z,-0.873352,0.201599,0.595825
2018-10-15T21:43:00.441764Z,-0.715759,-0.395203,-0.38818400000000003
2018-10-15T21:43:00.641764Z,-1.196777,-0.6113890000000001,0.166748
2018-10-15T21:43:00.836764Z,-0.9916379999999999,0.596375,-0.166077
2018-10-15T21:43:01.042764Z,-1.903809,0.659302,0.060974
2018-10-15T21:43:01.235764Z,-1.563416,-0.9682620000000001,0.979187
2018-10-15T21:43:01.445764Z,-0.858276,-0.5512699999999999,-1.412598
2018-10-15T21:43:01.640764Z,-1.151123,-0.382812,0.031006
2018-10-15T21:43:01.835764Z,-1.302063,-0.191162,0.361084
2018-10-15T21:43:02.232764Z,-0.810547,-0.428101,-0.32074
2018-10-15T21:43:02.435764Z,-0.633362,-0.112427,-0.26416
2018-10-15T21:43:02.636764Z,-0.6111449999999999,0.384216,-0.081116
2018-10-15T21:43:02.839764Z,-1.4765620000000002,1.395508,-1.480286
2018-10-15T21:43:03.037764Z,-0.5976560000000001,0.515808,-0.8924559999999999
2018-10-15T21:43:03.235764Z,-0.570435,0.309448,-0.1297
2018-10-15T21:43:03.512764Z,-0.504761,0.29138200000000003,0.184021
2018-10-15T21:43:03.632764Z,-0.150452,0.145447,-0.36438000000000004
2018-10-15T21:43:03.836764Z,-0.358887,0.28436300000000003,-0.272156
2018-10-15T21:43:04.037764Z,-0.34991500000000003,0.298279,-0.611572
2018-10-15T21:43:04.235764Z,-0.426208,0.14569100000000001,-0.632812
2018-10-15T21:43:04.435764Z,-1.44165,1.6411740000000001,0.16656500000000002
2018-10-15T21:43:04.635764Z,-0.381409,0.9324950000000001,-0.11383099999999999
2018-10-15T21:43:04.834764Z,-0.392944,0.43927,-0.259338
2018-10-15T21:43:05.044764Z,-0.06518600000000001,-0.271179,-1.930969
2018-10-15T21:43:05.236764Z,0.150757,0.016418000000000002,-0.402588
2018-10-15T21:43:05.435764Z,-0.09033200000000001,0.55957,0.327881
2018-10-15T21:43:05.634764Z,-0.9336549999999999,-1.044678,1.640686
2018-10-15T21:43:05.835764Z,-0.5603640000000001,-0.45526099999999997,-0.707581
2018-10-15T21:43:06.093764Z,-0.521423,0.9142459999999999,-0.31256100000000003
2018-10-15T21:43:06.235764Z,-0.393433,0.01355,0.066589
2018-10-15T21:43:06.437764Z,0.277405,-0.300476,-0.42504899999999995
2018-10-15T21:43:06.640764Z,-0.637634,0.542542,-0.8826290000000001
2018-10-15T21:43:06.839764Z,-0.881958,-1.126892,0.714417
2018-10-15T21:43:07.057764Z,-0.33844,0.156799,-1.304626
2018-10-15T21:43:07.241764Z,-0.38324,0.558716,-0.26361100000000004
2018-10-15T21:43:07.451764Z,1.658325,-1.7052,-0.730591
2018-10-15T21:43:07.637764Z,-1.075317,1.259216,-1.2661129999999998
2018-10-15T21:43:07.835764Z,0.062012,0.06329299999999999,0.834045
2018-10-15T21:43:08.038764Z,0.276062,-1.453125,0.6877439999999999
2018-10-15T21:43:08.240764Z,0.049377,-0.430542,-0.753296
2018-10-15T21:43:08.443764Z,0.368164,0.112793,0.368225
2018-10-15T21:43:08.636764Z,0.957275,-0.190308,-2.017944
2018-10-15T21:43:08.835764Z,0.709534,0.192688,-0.738708
2018-10-15T21:43:09.035764Z,0.65625,0.346069,0.577942
2018-10-15T21:43:09.235764Z,0.7358399999999999,-0.84845,0.612915
2018-10-15T21:43:09.437764Z,0.317871,-0.9464110000000001,-0.158691
2018-10-15T21:43:09.638764Z,-0.385315,-0.508972,-0.369568
2018-10-15T21:43:09.836764Z,-0.888367,0.558289,-1.9872439999999998
2018-10-15T21:43:10.036764Z,1.863953,-0.774414,0.060425
2018-10-15T21:43:10.276764Z,1.336914,-1.15094,0.171875
2018-10-15T21:43:10.440764Z,-0.760681,-0.205078,1.9978029999999998
2018-10-15T21:43:10.641764Z,-0.332886,0.8568120000000001,-0.428284
2018-10-15T21:43:10.836764Z,0.038025,0.200195,-0.201477
2018-10-15T21:43:11.035764Z,0.527466,0.29199200000000003,-0.425537
2018-10-15T21:43:11.235764Z,0.288391,0.374817,-0.066345
2018-10-15T21:43:11.436764Z,0.029907,0.447144,-0.599487
2018-10-15T21:43:11.635764Z,0.8024899999999999,-0.372864,0.223572
2018-10-15T21:43:11.837764Z,0.416199,-0.19574,-0.291565
2018-10-15T21:43:12.025764Z,0.193176,0.183411,-0.33813499999999996
2018-10-15T21:43:12.234764Z,0.0802,0.136292,-0.398071
2018-10-15T21:43:12.434764Z,0.082397,0.302612,-0.649963
2018-10-15T21:43:12.632764Z,0.124329,0.6312260000000001,-0.29504400000000003
2018-10-15T21:43:12.837764Z,0.334167,0.46929899999999997,-0.744751
2018-10-15T21:43:13.035764Z,0.44018599999999997,0.863892,0.07147200000000001
2018-10-15T21:43:13.235764Z,-0.021179,1.191101,0.747925
2018-10-15T21:43:13.435764Z,-0.959778,-0.39831500000000003,0.94342
2018-10-15T21:43:13.644764Z,0.186157,-0.22515900000000003,-1.098267
2018-10-15T21:43:13.835764Z,0.021606,0.352173,0.207947
2018-10-15T21:43:14.046764Z,1.7312009999999998,-0.607849,-2.914368
2018-10-15T21:43:14.233764Z,0.572388,0.177979,-0.515564
2018-10-15T21:43:14.435764Z,0.38769499999999996,0.12176500000000001,1.321289
2018-10-15T21:43:14.644764Z,-0.810547,-0.774475,-1.8680419999999998
2018-10-15T21:43:14.835764Z,0.033813,-0.036926,-0.155823
2018-10-15T21:43:15.036764Z,1.083679,-0.010681,0.384644
2018-10-15T21:43:15.236764Z,1.107544,-0.847168,0.562317
2018-10-15T21:43:15.435764Z,0.464783,0.885376,-0.014282
2018-10-15T21:43:15.636764Z,0.378296,-1.206116,2.476685
2018-10-15T21:43:15.837764Z,0.729919,-0.22405999999999998,-2.263733
2018-10-15T21:43:16.034764Z,0.5093989999999999,-0.035461,0.6035159999999999
2018-10-15T21:43:16.235764Z,1.857117,-0.9274899999999999,-0.553345
2018-10-15T21:43:16.437764Z,0.812988,0.22796599999999997,0.050171
2018-10-15T21:43:16.683764Z,1.109192,0.653992,0.869324
2018-10-15T21:43:16.837764Z,0.5354,-0.710571,0.812683
2018-10-15T21:43:17.042764Z,1.1522219999999999,-0.28613299999999997,-0.48407
2018-10-15T21:43:17.243764Z,0.881531,0.223694,-0.482422
2018-10-15T21:43:17.638764Z,0.8762209999999999,0.038818,2.697632
2018-10-15T21:43:17.836764Z,0.8327030000000001,1.518433,-0.306946
2018-10-15T21:43:18.038764Z,0.646912,0.39056399999999997,-0.712036
2018-10-15T21:43:18.236764Z,-0.379272,0.419861,-1.677002
2018-10-15T21:43:18.435764Z,0.158386,0.7721560000000001,-0.170105
2018-10-15T21:43:18.645764Z,0.904602,0.532898,-0.6990970000000001
2018-10-15T21:43:18.849764Z,0.503845,0.26965300000000003,0.283936
2018-10-15T21:43:19.035764Z,0.686584,0.5386350000000001,1.1324459999999998
2018-10-15T21:43:19.234764Z,0.768311,1.25061,-0.21209699999999998
2018-10-15T21:43:19.452764Z,0.855713,-0.40631100000000003,-2.031006
2018-10-15T21:43:19.636764Z,0.322693,0.517456,-1.7324830000000002
2018-10-15T21:43:19.843764Z,0.263489,0.600769,-0.17749
2018-10-15T21:43:20.035764Z,-0.448608,1.338623,-1.088745
2018-10-15T21:43:20.237764Z,1.277893,-0.074158,1.197449
2018-10-15T21:43:20.436764Z,1.167786,1.1597899999999999,-0.133423
2018-10-15T21:43:20.636764Z,0.516541,1.822998,-0.201477
2018-10-15T21:43:20.836764Z,0.407898,1.528748,0.002075
2018-10-15T21:43:21.039764Z,-0.329407,-0.420654,-1.875732
2018-10-15T21:43:21.236764Z,0.485779,0.5952149999999999,-1.71875
2018-10-15T21:43:21.435764Z,0.183105,0.8758540000000001,-0.396973
2018-10-15T21:43:21.635764Z,0.9788209999999999,-0.8422850000000001,0.094788
2018-10-15T21:43:21.837764Z,0.917725,0.43273900000000004,-0.47546400000000005
2018-10-15T21:43:22.060764Z,0.232971,0.48498500000000005,0.939636
2018-10-15T21:43:22.238764Z,0.960938,-0.831299,0.727112
2018-10-15T21:43:22.440764Z,1.7274169999999998,-0.742676,0.9396969999999999
2018-10-15T21:43:22.643764Z,1.3640139999999998,-0.351196,0.807556
2018-10-15T21:43:22.836764Z,2.195923,0.222229,-0.72821
2018-10-15T21:43:23.037764Z,2.043396,1.115356,-1.562134
2018-10-15T21:43:23.235764Z,0.619019,1.723755,0.023865
2018-10-15T21:43:23.436764Z,0.229309,1.5479129999999999,-0.59967
2018-10-15T21:43:23.635764Z,-0.36425799999999997,0.19531199999999999,-0.012938999999999999
2018-10-15T21:43:23.841764Z,-0.314209,1.4456790000000002,-0.5661619999999999
2018-10-15T21:43:24.048764Z,0.269531,1.364746,-0.08001699999999999
2018-10-15T21:43:24.242764Z,0.580811,1.331116,-1.790039
2018-10-15T21:43:24.442764Z,0.365234,1.236572,-0.050232
2018-10-15T21:43:24.637764Z,0.44592299999999996,1.587524,0.288513
2018-10-15T21:43:24.836764Z,-0.11358599999999999,0.130554,0.391602
2018-10-15T21:43:25.046764Z,0.37561,1.34552,-1.6949459999999998
2018-10-15T21:43:25.247764Z,0.17938199999999999,1.395142,0.038147
2018-10-15T21:43:25.435764Z,0.18866,0.055786,1.9136349999999998
2018-10-15T21:43:25.636764Z,1.131775,0.832642,-1.324463
2018-10-15T21:43:25.835764Z,0.054626,1.309021,-0.582947
2018-10-15T21:43:26.042764Z,-0.910645,-0.20654299999999998,1.460815
2018-10-15T21:43:26.243764Z,0.363159,0.6060180000000001,-1.737366
2018-10-15T21:43:26.442764Z,-0.647705,0.889465,-0.22314499999999998
2018-10-15T21:43:26.636764Z,-0.297852,-0.567383,2.887451
2018-10-15T21:43:26.835764Z,0.9653930000000001,0.043762,-1.648926
2018-10-15T21:43:27.033764Z,0.3302,0.091187,1.072144
2018-10-15T21:43:27.236764Z,0.404358,-0.248108,0.970642
2018-10-15T21:43:27.435764Z,-0.025452000000000002,-0.312317,0.6601560000000001
2018-10-15T21:43:27.638764Z,-0.375916,0.6516109999999999,0.674622
2018-10-15T21:43:27.826764Z,0.199768,0.16687000000000002,-0.122803
2018-10-15T21:43:28.047764Z,-0.285034,0.40118400000000004,-0.21020500000000003
2018-10-15T21:43:28.239764Z,0.163391,0.400146,-0.44470200000000004
2018-10-15T21:43:28.436764Z,-0.17511,0.407593,-0.18823199999999998
2018-10-15T21:43:28.635764Z,0.610474,-0.151794,-0.991028
2018-10-15T21:43:28.836764Z,-0.767944,1.366333,0.241394
2018-10-15T21:43:29.037764Z,-0.28656,1.013855,-0.563599
2018-10-15T21:43:29.235764Z,-0.178589,0.916748,-0.540039
2018-10-15T21:43:29.435764Z,-0.735718,0.47522,0.801453
2018-10-15T21:43:29.635764Z,0.920349,-0.44085699999999994,-0.501282
2018-10-15T21:43:29.840764Z,0.33874499999999996,-0.902954,-0.17627
2018-10-15T21:43:30.043764Z,0.463257,-0.242065,-0.10833699999999999
2018-10-15T21:43:30.242764Z,0.095215,0.528076,0.544922
2018-10-15T21:43:30.436764Z,0.072693,0.606812,-0.170837
2018-10-15T21:43:30.641764Z,0.236389,0.872742,-0.436462
2018-10-15T21:43:30.837764Z,-0.12884500000000002,0.548035,-0.18896500000000002
2018-10-15T21:43:31.042764Z,-0.09668,-1.047241,1.317078
2018-10-15T21:43:31.236764Z,-1.0405879999999998,-0.22100799999999998,-0.886658
2018-10-15T21:43:31.437764Z,-1.233398,-0.6799930000000001,0.650818
2018-10-15T21:43:31.637764Z,-1.012573,-0.312256,-0.45343
2018-10-15T21:43:31.835764Z,-0.682129,-0.8482059999999999,2.63092
2018-10-15T21:43:32.059764Z,-0.064026,-0.5706180000000001,0.5136109999999999
2018-10-15T21:43:32.236764Z,0.167908,0.29388400000000003,0.588562
2018-10-15T21:43:32.435764Z,-0.47522,0.241333,-0.030639999999999997
2018-10-15T21:43:32.658764Z,-0.197205,-1.37323,0.022765999999999998
2018-10-15T21:43:33.035764Z,-0.081055,-0.969727,-0.676086
2018-10-15T21:43:33.243764Z,-0.262207,-0.331726,0.069031
2018-10-15T21:43:33.435764Z,0.026062000000000002,-1.32312,-0.314697
2018-10-15T21:43:33.632764Z,-0.020325,-0.9562379999999999,-1.226807
2018-10-15T21:43:33.835764Z,-0.625061,0.68811,-0.563477
2018-10-15T21:43:34.035764Z,-0.897156,0.301025,-0.573547
2018-10-15T21:43:34.236764Z,0.061523,-0.345337,-0.36138899999999996
2018-10-15T21:43:34.452764Z,-0.618835,0.733582,-4.099304
2018-10-15T21:43:34.642764Z,0.5587770000000001,-0.134338,-0.185791
2018-10-15T21:43:34.842764Z,0.008301000000000001,-0.054564999999999995,-0.001465
2018-10-15T21:43:35.042764Z,-0.112061,0.178955,0.080505
2018-10-15T21:43:35.246764Z,0.30249000000000004,-0.171326,-0.462585
2018-10-15T21:43:35.441764Z,-0.213013,-0.41723599999999994,-0.62793
2018-10-15T21:43:35.643764Z,0.0035399999999999997,-0.151672,-0.366577
2018-10-15T21:43:35.835764Z,-0.312744,0.288208,-0.352112
2018-10-15T21:43:36.036764Z,-0.339661,0.33215300000000003,-0.201599
2018-10-15T21:43:36.235764Z,-0.530151,0.463318,-0.30950900000000003
2018-10-15T21:43:36.435764Z,-0.429138,0.6879270000000001,-0.24090599999999998
2018-10-15T21:43:36.642764Z,-0.582825,0.10180700000000001,-0.363525
2018-10-15T21:43:36.836764Z,0.086914,-1.011169,1.803711
2018-10-15T21:43:37.036764Z,0.444458,-0.089478,-0.853333
2018-10-15T21:43:37.237764Z,0.153625,0.719299,-0.583435
2018-10-15T21:43:37.437764Z,-0.7329100000000001,0.397522,0.079529
2018-10-15T21:43:37.635764Z,-1.125,-1.6662599999999999,-0.766296
2018-10-15T21:43:37.836764Z,-0.461975,-0.13147,-0.353699
2018-10-15T21:43:38.032764Z,-0.734314,-0.656616,0.984253
2018-10-15T21:43:38.231764Z,-0.657837,-0.636292,-0.332947
2018-10-15T21:43:38.438764Z,-0.972778,-0.4646,-0.8545530000000001
2018-10-15T21:43:38.640764Z,-1.1171879999999998,-0.235596,0.264099
2018-10-15T21:43:38.837764Z,-1.297302,-1.518921,0.106201
2018-10-15T21:43:39.036764Z,-1.2632450000000002,0.041138,-0.6860350000000001
2018-10-15T21:43:39.235764Z,-1.108643,0.12322999999999999,-0.709595
2018-10-15T21:43:39.436764Z,-1.002625,0.48016400000000004,0.18896500000000002
2018-10-15T21:43:39.635764Z,-1.485474,-0.22833299999999998,-0.098633
2018-10-15T21:43:39.835764Z,-0.87323,-1.0151370000000002,0.45446800000000004
2018-10-15T21:43:40.035764Z,-1.3666989999999999,0.322937,-0.766357
2018-10-15T21:43:40.240764Z,-0.36730999999999997,0.025391,0.6076050000000001
2018-10-15T21:43:40.432764Z,-0.650146,0.365295,0.220764
2018-10-15T21:43:40.642764Z,-0.49468999999999996,-0.217529,-0.750916
2018-10-15T21:43:40.836764Z,-1.403015,-0.360596,-0.906433
2018-10-15T21:43:41.057764Z,-0.997559,-0.396423,-0.059691999999999995
2018-10-15T21:43:41.239764Z,-1.406677,-0.028748000000000003,0.032776
2018-10-15T21:43:41.436764Z,-0.538696,0.021729,-0.532654
2018-10-15T21:43:41.636764Z,-1.285828,0.47168000000000004,-0.8049930000000001
2018-10-15T21:43:41.838764Z,-0.737488,0.626648,0.009155
2018-10-15T21:43:42.035764Z,-0.728638,1.101318,-1.1809690000000002
2018-10-15T21:43:42.245764Z,-0.55011,1.130676,-0.495544
2018-10-15T21:43:42.441764Z,-0.402771,-0.266296,-1.9190060000000002
2018-10-15T21:43:42.636764Z,0.545166,-1.496582,-0.801208
2018-10-15T21:43:42.835764Z,0.719971,-0.797791,0.224548
2018-10-15T21:43:43.035764Z,0.352966,-0.144592,0.040222
2018-10-15T21:43:43.235764Z,-1.182007,0.030579000000000002,1.895874
2018-10-15T21:43:43.439764Z,-2.14624,-0.93335,-0.952881
2018-10-15T21:43:43.639764Z,-1.8995970000000002,0.490784,-0.49920699999999996
2018-10-15T21:43:43.836764Z,-0.8295290000000001,0.216858,0.026917
2018-10-15T21:43:44.042764Z,-0.23791500000000002,-0.576843,-0.24212600000000004
2018-10-15T21:43:44.236764Z,-0.095825,-0.5386350000000001,0.469116
2018-10-15T21:43:44.438764Z,-0.20587199999999997,0.0896,-0.8251950000000001
2018-10-15T21:43:44.836764Z,-0.50647,-0.064636,0.024353
2018-10-15T21:43:45.036764Z,-0.036743,-0.198914,-0.401001
2018-10-15T21:43:45.238764Z,0.366028,0.11413599999999999,-0.468445
2018-10-15T21:43:45.435764Z,-0.184753,-0.009521,-0.10998499999999999
2018-10-15T21:43:45.635764Z,-0.566711,0.201843,-0.20153800000000002
2018-10-15T21:43:45.835764Z,-0.16375699999999999,-0.22168000000000002,0.314819
2018-10-15T21:43:46.042764Z,-0.112793,-0.007690000000000001,0.36791999999999997
2018-10-15T21:43:46.235764Z,-0.037292,0.11682100000000001,0.073486
2018-10-15T21:43:46.436764Z,0.025757,0.072144,-0.384094
2018-10-15T21:43:46.635764Z,-0.126282,0.063599,-0.381775
2018-10-15T21:43:46.835764Z,0.355164,0.13189700000000001,0.8909299999999999
2018-10-15T21:43:47.038764Z,0.064819,-0.137329,-0.335327
2018-10-15T21:43:47.238764Z,-0.368958,-0.17572000000000002,0.087646
2018-10-15T21:43:47.445764Z,-0.46173100000000006,0.148804,-0.610596
2018-10-15T21:43:47.640764Z,0.193787,0.057739,-0.12371800000000001
2018-10-15T21:43:47.835764Z,1.005371,0.204285,0.217102
2018-10-15T21:43:48.035764Z,1.0354,0.500977,0.083374
2018-10-15T21:43:48.245764Z,0.421204,0.49102799999999996,-0.437866
2018-10-15T21:43:48.435764Z,0.339966,0.226685,0.284119
2018-10-15T21:43:48.635764Z,0.005005,-0.421204,1.066101
2018-10-15T21:43:48.835764Z,-1.234192,-1.8908080000000003,-0.208679
2018-10-15T21:43:49.035764Z,-1.027466,-0.33844,-0.388
2018-10-15T21:43:49.235764Z,-0.48480200000000007,0.79895,-0.327759
2018-10-15T21:43:49.435764Z,-1.0027469999999998,0.813477,0.202881
2018-10-15T21:43:49.634764Z,-1.9736939999999998,-0.9829709999999999,1.647888
2018-10-15T21:43:49.834764Z,-2.006653,-1.7430419999999998,-0.608215
2018-10-15T21:43:50.034764Z,-1.732666,-1.7298580000000001,2.646301
2018-10-15T21:43:50.234764Z,-1.243408,-1.209229,2.409973
2018-10-15T21:43:50.435764Z,-1.8418580000000002,0.837708,-1.0239260000000001
2018-10-15T21:43:50.664764Z,-1.832947,0.47198500000000004,-0.411926
2018-10-15T21:43:50.836764Z,-0.5672,0.935974,-1.9800419999999999
2018-10-15T21:43:51.037764Z,-0.979614,0.9858399999999999,-1.1881709999999999
2018-10-15T21:43:51.244764Z,-0.0014039999999999999,0.25824,-0.567261
2018-10-15T21:43:51.436764Z,-1.1168209999999998,0.5687260000000001,0.22466999999999998
2018-10-15T21:43:51.636764Z,-1.7864380000000002,-1.02417,0.039734
2018-10-15T21:43:51.835764Z,-2.68689,0.602966,-0.212952
2018-10-15T21:43:52.035764Z,-1.663086,0.772522,-0.17926
2018-10-15T21:43:52.236764Z,-0.928162,-0.19635,0.49511700000000003
2018-10-15T21:43:52.437764Z,-0.18395999999999998,-1.409973,-1.152161
2018-10-15T21:43:52.642764Z,-0.22662399999999996,-0.462158,-1.247681
2018-10-15T21:43:52.843764Z,-0.051636,0.14569100000000001,-0.15094000000000002
2018-10-15T21:43:53.036764Z,-0.783752,0.54303,0.067078
2018-10-15T21:43:53.261764Z,-0.640442,-2.324707,1.163391
2018-10-15T21:43:53.435764Z,-2.031616,0.052368,-0.6480100000000001
2018-10-15T21:43:53.632764Z,-0.499512,-0.492554,0.086487
2018-10-15T21:43:53.835764Z,-0.671387,-0.224548,0.785767
2018-10-15T21:43:54.036764Z,-1.090393,-1.342224,-0.951843
2018-10-15T21:43:54.236764Z,-0.901184,-1.205627,-0.395203
2018-10-15T21:43:54.437764Z,-0.29425,-0.814148,-0.171631
2018-10-15T21:43:54.636764Z,0.184753,-1.090454,0.8193969999999999
2018-10-15T21:43:54.835764Z,-0.496216,-0.7032470000000001,0.09149199999999999
2018-10-15T21:43:55.049764Z,-1.146179,-0.293274,0.14502
2018-10-15T21:43:55.246764Z,-0.755676,-0.176208,-0.211792
2018-10-15T21:43:55.437764Z,-0.504211,-0.165588,-0.445007
2018-10-15T21:43:55.637764Z,-0.69989,0.055298,-0.525574
2018-10-15T21:43:55.852764Z,-0.568604,0.12799100000000002,-0.159119
2018-10-15T21:43:56.037764Z,-0.542175,0.003967,-0.007141
2018-10-15T21:43:56.251764Z,-0.44854700000000003,0.07623300000000001,-0.202515
2018-10-15T21:43:56.434764Z,-0.37188699999999997,0.141296,-0.51062
2018-10-15T21:43:56.635764Z,-0.48919700000000005,-0.010437,-0.399109
2018-10-15T21:43:56.836764Z,-0.307983,-0.037537,-0.029236
2018-10-15T21:43:57.035764Z,-0.110474,-0.041992,0.184814
2018-10-15T21:43:57.235764Z,-0.890625,0.25054899999999997,-0.24212600000000004
2018-10-15T21:43:57.436764Z,-1.053467,0.021301,0.286377
2018-10-15T21:43:57.639764Z,-1.040039,0.135681,-0.218323
2018-10-15T21:43:57.835764Z,-0.566956,-0.072144,0.675659
2018-10-15T21:43:58.045764Z,0.379333,-1.011536,-0.226929
2018-10-15T21:43:58.235764Z,0.843201,-0.674194,-1.205017
2018-10-15T21:43:58.437764Z,-0.000488,0.768677,-0.30896
2018-10-15T21:43:58.636764Z,-0.302002,-0.459106,0.034424
2018-10-15T21:43:58.837764Z,-0.9899290000000001,-2.0443729999999998,0.39172399999999996
2018-10-15T21:43:59.036764Z,0.262329,-1.050354,-0.343262
2018-10-15T21:43:59.310764Z,-0.24273699999999998,-0.138794,0.394165
2018-10-15T21:43:59.450764Z,-0.138977,-1.403259,1.302063
2018-10-15T21:43:59.636764Z,0.596191,-0.8809809999999999,0.911011
2018-10-15T21:43:59.842764Z,0.819153,-0.506836,0.6426390000000001
2018-10-15T21:44:00.042764Z,0.447083,-0.098816,-0.5836180000000001
2018-10-15T21:44:00.436764Z,0.205139,-0.263428,0.314148
2018-10-15T21:44:00.637764Z,0.34729,0.08404500000000001,-0.17968800000000001
2018-10-15T21:44:00.835764Z,0.248169,-0.169495,-0.602173
2018-10-15T21:44:01.036764Z,0.16833499999999998,0.33813499999999996,0.18103
2018-10-15T21:44:01.238764Z,1.1902469999999998,0.063721,0.096924
2018-10-15T21:44:01.442764Z,0.9093629999999999,0.539185,-0.498413
2018-10-15T21:44:01.644764Z,0.677185,0.92511,-0.374817
2018-10-15T21:44:01.836764Z,0.7964479999999999,0.748779,0.674927
2018-10-15T21:44:02.038764Z,0.365234,-0.991455,0.11108399999999999
2018-10-15T21:44:02.244764Z,-0.684448,-0.586731,0.17981
2018-10-15T21:44:02.434764Z,-0.677124,0.323425,-1.062561
2018-10-15T21:44:02.636764Z,-0.160278,0.654602,-0.14325
2018-10-15T21:44:02.835764Z,0.531433,-1.072754,-0.8756709999999999
2018-10-15T21:44:03.124764Z,0.543457,-0.30956999999999996,-0.47106899999999996
2018-10-15T21:44:03.234764Z,0.74115,0.662292,0.031982
2018-10-15T21:44:03.437764Z,0.308167,0.657898,-0.135071
2018-10-15T21:44:03.633764Z,-0.974915,-1.3978270000000002,-2.3276369999999997
2018-10-15T21:44:03.835764Z,-0.35199,-1.431396,-0.867798
2018-10-15T21:44:04.035764Z,-0.33758499999999997,-0.317932,-0.03363
2018-10-15T21:44:04.236764Z,-1.549316,-0.072021,-0.96283
2018-10-15T21:44:04.436764Z,-0.939636,0.064209,-0.351746
2018-10-15T21:44:04.636764Z,-0.787415,0.033447000000000005,-0.06488
2018-10-15T21:44:04.836764Z,-0.43615699999999996,-0.806396,-0.141602
2018-10-15T21:44:05.055764Z,-0.39172399999999996,-0.609924,-0.5495
2018-10-15T21:44:05.236764Z,-0.285522,0.7456050000000001,0.171753
2018-10-15T21:44:05.452764Z,-0.854736,0.42114300000000005,-0.18756099999999998
2018-10-15T21:44:05.641764Z,-2.2396849999999997,-1.855225,-0.873108
2018-10-15T21:44:05.835764Z,-1.6474,-0.09314,-0.6232300000000001
2018-10-15T21:44:06.036764Z,-0.75238,0.243225,0.9100950000000001
2018-10-15T21:44:06.237764Z,-0.863892,-1.100342,-3.880615
2018-10-15T21:44:06.435764Z,-0.802124,-0.2323,-2.0466919999999997
2018-10-15T21:44:06.655764Z,-0.8330690000000001,0.347046,0.922974
2018-10-15T21:44:06.843764Z,-0.964966,-1.25708,0.713562
2018-10-15T21:44:07.042764Z,-0.181396,-1.151917,-0.433533
2018-10-15T21:44:07.242764Z,0.172729,-0.716553,-0.364197
2018-10-15T21:44:07.440764Z,0.26263400000000003,-1.383606,-1.388184
2018-10-15T21:44:07.636764Z,0.926636,-0.9684450000000001,-1.3588870000000002
2018-10-15T21:44:07.836764Z,0.833435,0.0053100000000000005,0.560547
2018-10-15T21:44:08.036764Z,0.174072,1.026306,-0.216248
2018-10-15T21:44:08.238764Z,0.357666,-0.852295,-1.0067139999999999
2018-10-15T21:44:08.440764Z,0.305542,0.726562,-1.20166
2018-10-15T21:44:08.636764Z,0.266418,1.389404,-0.358948
2018-10-15T21:44:08.841764Z,1.246399,-1.037109,0.470398
2018-10-15T21:44:09.042764Z,1.678711,0.251404,-3.10498
2018-10-15T21:44:09.249764Z,0.8480219999999999,1.380493,-0.609192
2018-10-15T21:44:09.435764Z,0.497192,-0.786255,1.2768549999999999
2018-10-15T21:44:09.635764Z,0.391785,-1.0759889999999999,0.748169
2018-10-15T21:44:09.835764Z,0.625,-0.340393,0.40936300000000003
2018-10-15T21:44:10.036764Z,0.29980500000000004,0.317322,0.034851
2018-10-15T21:44:10.232764Z,0.5278930000000001,-0.440796,0.6854859999999999
2018-10-15T21:44:10.441764Z,1.601868,0.120056,0.70929
2018-10-15T21:44:10.626764Z,1.6395259999999998,1.01416,0.173096
2018-10-15T21:44:10.837764Z,1.0715940000000002,1.536987,-0.632446
2018-10-15T21:44:11.035764Z,1.0778809999999999,1.475647,-0.009399
2018-10-15T21:44:11.236764Z,0.388306,0.6719970000000001,0.287659
2018-10-15T21:44:11.437764Z,-0.042725,-0.549194,-0.6596069999999999
2018-10-15T21:44:11.636764Z,-0.086914,1.0740969999999999,-1.3391110000000002
2018-10-15T21:44:11.836764Z,-0.11651600000000001,1.7199099999999998,-0.48480200000000007
2018-10-15T21:44:12.053764Z,0.439148,-0.604065,1.990234
2018-10-15T21:44:12.237764Z,1.38562,-0.323425,0.951843
2018-10-15T21:44:12.450764Z,-0.07733200000000001,1.0778809999999999,-0.057678
2018-10-15T21:44:12.640764Z,0.682922,1.628296,-0.272156
2018-10-15T21:44:12.836764Z,0.093933,-0.089233,1.388916
2018-10-15T21:44:13.040764Z,-0.19708299999999998,-0.9732059999999999,-0.29718
2018-10-15T21:44:13.236764Z,0.29388400000000003,0.046814,-1.052551
2018-10-15T21:44:13.435764Z,-0.124146,1.08197,-0.05499299999999999
2018-10-15T21:44:13.636764Z,0.236938,-0.46453900000000004,1.955811
2018-10-15T21:44:13.835764Z,0.449524,-0.850708,1.02063
2018-10-15T21:44:14.039764Z,-0.050842,-0.43640100000000004,0.825623
2018-10-15T21:44:14.442764Z,0.183777,0.266357,-0.047607
2018-10-15T21:44:14.635764Z,0.7546390000000001,0.645386,-0.042602999999999995
2018-10-15T21:44:14.836764Z,0.9046629999999999,-0.212891,1.4677120000000001
2018-10-15T21:44:15.038764Z,-0.067322,-1.09259,-0.019348
2018-10-15T21:44:15.237764Z,0.013977000000000002,-0.61615,-0.393005
2018-10-15T21:44:15.436764Z,-0.2323,-0.421387,0.245544
2018-10-15T21:44:15.656764Z,-0.138916,0.139465,0.821594
2018-10-15T21:44:15.836764Z,-0.154968,0.006775,0.9277340000000001
2018-10-15T21:44:16.059764Z,-0.286987,0.17388900000000002,-0.49145500000000003
2018-10-15T21:44:16.242764Z,-0.113647,0.724182,-0.517212
2018-10-15T21:44:16.436764Z,-0.158813,1.172485,-0.9512940000000001
2018-10-15T21:44:16.635764Z,-0.186157,1.506897,0.061646000000000006
2018-10-15T21:44:16.835764Z,0.253784,-0.205566,-0.037537
2018-10-15T21:44:17.035764Z,0.8341059999999999,-0.891907,0.557434
2018-10-15T21:44:17.238764Z,0.14288299999999998,1.1710209999999999,0.544983
2018-10-15T21:44:17.436764Z,-1.115051,0.368408,0.369019
2018-10-15T21:44:17.636764Z,-1.211365,-1.66333,-0.330017
2018-10-15T21:44:17.845764Z,-0.049132999999999996,-0.462891,-0.030333999999999996
2018-10-15T21:44:18.044764Z,0.23101799999999997,-0.34613,0.078613
2018-10-15T21:44:18.253764Z,-0.376343,-1.747009,0.853699
2018-10-15T21:44:18.447764Z,-1.48584,-1.269043,0.433655
2018-10-15T21:44:18.636764Z,-1.2877809999999998,-2.256592,1.175598
2018-10-15T21:44:18.835764Z,-1.623901,-0.655579,-1.078857
2018-10-15T21:44:19.033764Z,-1.233826,0.101074,-0.388428
2018-10-15T21:44:19.235764Z,-0.29870599999999997,0.727905,0.127197
2018-10-15T21:44:19.436764Z,-1.138916,-0.792419,-0.34137
2018-10-15T21:44:19.636764Z,-0.907532,-0.223206,-0.848083
2018-10-15T21:44:19.840764Z,-1.024414,1.085815,0.081604
2018-10-15T21:44:20.041764Z,-0.756897,0.8129270000000001,0.5858760000000001
2018-10-15T21:44:20.241764Z,-2.817993,-1.27063,-1.038269
2018-10-15T21:44:20.447764Z,-2.2767939999999998,0.404724,-0.518066
2018-10-15T21:44:20.634764Z,-1.549316,0.852844,-0.632812
2018-10-15T21:44:20.835764Z,-1.168762,0.025879000000000003,1.4910889999999999
2018-10-15T21:44:21.035764Z,-1.277893,-1.1548459999999998,-0.236267
2018-10-15T21:44:21.234764Z,-1.551331,-0.253601,-0.35553
2018-10-15T21:44:21.436764Z,-1.0714110000000001,0.159729,-0.168701
2018-10-15T21:44:21.635764Z,-0.680908,0.547241,-1.3199459999999998
2018-10-15T21:44:21.835764Z,-1.371338,0.614685,0.352661
2018-10-15T21:44:22.035764Z,-1.273743,0.342834,0.30499299999999996
2018-10-15T21:44:22.246764Z,-0.654053,0.147766,-0.383301
2018-10-15T21:44:22.440764Z,-0.9494020000000001,0.347595,-0.45184300000000005
2018-10-15T21:44:22.637764Z,-0.9882200000000001,0.5706180000000001,-0.080872
2018-10-15T21:44:22.829764Z,-0.476868,0.296082,-0.28613299999999997
2018-10-15T21:44:23.037764Z,-0.920105,0.661621,-0.819458
2018-10-15T21:44:23.258764Z,-1.408691,0.701843,-0.147827
2018-10-15T21:44:23.437764Z,-1.4945680000000001,0.826233,-0.568237
2018-10-15T21:44:23.631764Z,-1.574402,0.63269,0.261536
2018-10-15T21:44:23.836764Z,-0.40618899999999997,-2.582703,1.065796
2018-10-15T21:44:24.036764Z,-0.145752,-0.45526099999999997,-0.347412
2018-10-15T21:44:24.235764Z,0.17218,0.295227,-0.10675
2018-10-15T21:44:24.445764Z,-2.0424189999999998,-0.81488,-0.331848
2018-10-15T21:44:24.641764Z,-0.706543,-0.8878780000000001,-0.089172
2018-10-15T21:44:24.842764Z,-1.621887,-0.7791140000000001,0.958801
2018-10-15T21:44:25.035764Z,-1.4240110000000001,-0.336609,0.034668
2018-10-15T21:44:25.236764Z,-2.209717,0.383606,-0.6342770000000001
2018-10-15T21:44:25.436764Z,-1.008667,0.552063,0.043579
2018-10-15T21:44:25.637764Z,0.738708,-1.30481,3.1286009999999997
2018-10-15T21:44:25.837764Z,0.82605,-0.346008,-1.354797
2018-10-15T21:44:26.036764Z,-0.12445099999999999,0.264038,0.484314
2018-10-15T21:44:26.236764Z,-0.273865,-2.091064,3.316956
2018-10-15T21:44:26.442764Z,0.692261,-1.754761,-0.625854
2018-10-15T21:44:26.642764Z,1.036316,-1.798889,0.640442
2018-10-15T21:44:27.035764Z,-0.716187,-0.837158,0.182068
2018-10-15T21:44:27.236764Z,-0.267273,-0.491516,-0.45202600000000004
2018-10-15T21:44:27.436764Z,0.9278559999999999,-0.436646,-0.36645500000000003
2018-10-15T21:44:27.636764Z,0.5160520000000001,0.056763,0.610535
2018-10-15T21:44:27.835764Z,-0.195679,-0.091125,0.372803
2018-10-15T21:44:28.035764Z,-0.628784,-0.009276999999999999,-0.10839800000000001
2018-10-15T21:44:28.236764Z,0.235779,0.20776399999999998,1.020203
2018-10-15T21:44:28.433764Z,0.8395389999999999,0.154175,0.770813
2018-10-15T21:44:28.637764Z,1.513611,0.003357,-0.314392
2018-10-15T21:44:28.836764Z,1.268738,0.330811,-0.268005
2018-10-15T21:44:29.036764Z,-2.334839,-0.592163,-0.895752
2018-10-15T21:44:29.236764Z,-0.329468,-0.588623,-1.783508
2018-10-15T21:44:29.435764Z,0.402649,-0.102539,-1.203064
2018-10-15T21:44:29.636764Z,0.102905,0.875549,-0.909058
2018-10-15T21:44:29.843764Z,0.324646,0.7890010000000001,0.129578
2018-10-15T21:44:30.036764Z,0.130188,0.15246600000000002,-0.070312
2018-10-15T21:44:30.236764Z,0.290649,0.438416,-0.607483
2018-10-15T21:44:30.435764Z,-0.034424,0.325439,-0.391479
2018-10-15T21:44:30.636764Z,0.45697,0.45556599999999997,-0.8227540000000001
2018-10-15T21:44:30.835764Z,1.137634,0.364197,0.8162229999999999
2018-10-15T21:44:31.035764Z,1.393677,0.5604859999999999,-0.266846
2018-10-15T21:44:31.241764Z,0.305298,1.018433,-0.225708
2018-10-15T21:44:31.435764Z,0.09930399999999999,1.2647709999999999,-0.9420780000000001
2018-10-15T21:44:31.635764Z,-1.470703,-0.798218,-0.7929689999999999
2018-10-15T21:44:31.841764Z,-0.42981,-0.061035,-1.458496
2018-10-15T21:44:32.062764Z,-0.44488500000000003,1.047302,-1.6661380000000001
2018-10-15T21:44:32.241764Z,-0.752258,-0.713196,3.258728
2018-10-15T21:44:32.441764Z,-0.43884300000000004,-0.164734,-1.545166
2018-10-15T21:44:32.642764Z,-0.639038,-0.287781,0.254578
2018-10-15T21:44:32.835764Z,-3.0534060000000003,-2.527161,0.630737
2018-10-15T21:44:33.037764Z,-3.800415,-0.743408,-1.2704469999999999
2018-10-15T21:44:33.236764Z,-1.6853639999999999,0.435974,1.946716
2018-10-15T21:44:33.437764Z,-1.828064,-0.5374760000000001,1.670593
2018-10-15T21:44:33.637764Z,-0.318298,-0.30438200000000004,0.18524200000000002
2018-10-15T21:44:33.868764Z,-1.187683,1.058838,0.882019
2018-10-15T21:44:34.046764Z,-1.889038,0.7502439999999999,-1.425293
2018-10-15T21:44:34.235764Z,-2.259216,0.26861599999999997,-0.043091000000000004
2018-10-15T21:44:34.437764Z,-1.458374,1.534302,0.589966
2018-10-15T21:44:34.635764Z,-0.766174,-0.10131799999999999,1.543701
2018-10-15T21:44:34.836764Z,-0.675293,0.067688,-0.31561300000000003
2018-10-15T21:44:35.035764Z,-1.3348389999999999,1.156372,0.8912959999999999
2018-10-15T21:44:35.253764Z,-1.077576,0.141724,-2.132202
2018-10-15T21:44:35.442764Z,-0.543945,-0.565247,-1.1694950000000002
2018-10-15T21:44:35.647764Z,-0.9389040000000001,-0.168152,-0.954773
2018-10-15T21:44:35.832764Z,0.000183,-0.9008790000000001,-0.099426
2018-10-15T21:44:36.037764Z,1.2211299999999998,-0.26306199999999996,-1.930969
2018-10-15T21:44:36.236764Z,0.014953999999999999,0.365112,-1.242126
2018-10-15T21:44:36.436764Z,0.27923600000000004,0.510437,-0.151855
2018-10-15T21:44:36.636764Z,-1.5783690000000001,-0.661926,-0.861084
2018-10-15T21:44:36.837764Z,-1.203003,0.291138,-1.194885
2018-10-15T21:44:37.036764Z,0.067688,-0.132202,0.712646
2018-10-15T21:44:37.237764Z,0.966309,-1.1608889999999998,-0.306091
2018-10-15T21:44:37.432764Z,1.241028,-0.361023,0.34075900000000003
2018-10-15T21:44:37.649764Z,0.9436040000000001,-0.122375,0.401917
2018-10-15T21:44:37.836764Z,0.677612,-0.665466,-1.894348
2018-10-15T21:44:38.041764Z,0.341675,-0.273254,0.73938
2018-10-15T21:44:38.245764Z,-0.006104,0.23486300000000002,-0.323547
2018-10-15T21:44:38.642764Z,0.773193,1.0305790000000001,-1.357666
2018-10-15T21:44:38.836764Z,1.187805,0.53717,0.736267
2018-10-15T21:44:39.036764Z,0.306763,1.949036,0.734558
2018-10-15T21:44:39.237764Z,-0.765259,0.459412,1.722046
2018-10-15T21:44:39.436764Z,0.856934,0.596619,-1.035339
2018-10-15T21:44:39.636764Z,0.04071,1.4716799999999999,-0.809509
2018-10-15T21:44:39.836764Z,0.787903,1.244751,-0.27618400000000004
2018-10-15T21:44:40.036764Z,0.499084,0.6660159999999999,0.229675
2018-10-15T21:44:40.262764Z,0.023681999999999998,1.277832,0.192444
2018-10-15T21:44:40.439764Z,0.88385,1.11792,1.044922
2018-10-15T21:44:40.640764Z,0.36999499999999996,-0.910278,0.815002
2018-10-15T21:44:40.840764Z,0.060851999999999996,0.780884,-0.588989
2018-10-15T21:44:41.036764Z,0.785522,1.408691,0.096924
2018-10-15T21:44:41.245764Z,0.603699,0.190063,0.7051390000000001
2018-10-15T21:44:41.435764Z,0.174622,1.153625,-1.900696
2018-10-15T21:44:41.636764Z,-0.701599,0.890869,0.612061
2018-10-15T21:44:41.859764Z,-0.151428,0.253784,-2.365479
2018-10-15T21:44:42.041764Z,0.215271,0.505127,-0.889648
2018-10-15T21:44:42.241764Z,0.6733399999999999,1.1297,0.105103
2018-10-15T21:44:42.443764Z,0.7700199999999999,0.05719,2.650574
2018-10-15T21:44:42.636764Z,1.623474,1.249207,-1.8951419999999999
2018-10-15T21:44:42.836764Z,-0.050414999999999995,1.703064,-0.423706
2018-10-15T21:44:43.036764Z,0.00592,-0.40075700000000003,1.422791
2018-10-15T21:44:43.318764Z,0.511292,0.478699,-1.381836
2018-10-15T21:44:43.433764Z,0.565247,0.9058229999999999,0.684509
2018-10-15T21:44:43.635764Z,0.377869,-0.044006,-2.09198
2018-10-15T21:44:43.844764Z,-0.6094970000000001,-0.208008,-2.339661
2018-10-15T21:44:44.034764Z,-0.936401,-0.124573,-0.50647
2018-10-15T21:44:44.240764Z,-1.3724370000000001,-0.478943,-1.925598
2018-10-15T21:44:44.435764Z,-1.023987,-0.032288,-0.254272
2018-10-15T21:44:44.635764Z,0.22479200000000002,0.7724,0.36254899999999995
2018-10-15T21:44:44.835764Z,-0.399292,0.41119399999999995,0.7108760000000001
2018-10-15T21:44:45.035764Z,-0.067017,-0.354126,-0.063416
2018-10-15T21:44:45.242764Z,-0.2854,0.865784,0.490295
2018-10-15T21:44:45.441764Z,-1.148621,-0.462524,-2.358032
2018-10-15T21:44:45.641764Z,-1.8245240000000003,-0.298462,0.49517799999999995
2018-10-15T21:44:45.842764Z,-1.120667,-0.446716,0.05139199999999999
2018-10-15T21:44:46.035764Z,-0.21887199999999998,-0.88855,1.911377
2018-10-15T21:44:46.236764Z,-0.786194,-0.413818,-0.120117
2018-10-15T21:44:46.501764Z,-1.2920530000000001,-1.042725,1.8118900000000002
2018-10-15T21:44:46.641764Z,-0.8557739999999999,-0.8594360000000001,-0.20965599999999998
2018-10-15T21:44:46.844764Z,-0.9025270000000001,0.12402300000000001,0.130859
2018-10-15T21:44:47.043764Z,-1.4605709999999998,0.369568,-0.180481
2018-10-15T21:44:47.236764Z,-1.418457,0.8475950000000001,-0.452454
2018-10-15T21:44:47.437764Z,-1.459534,1.055603,-0.271484
2018-10-15T21:44:47.635764Z,-0.5377810000000001,0.603088,-1.68335
2018-10-15T21:44:47.836764Z,-0.289429,-0.534668,2.914978
2018-10-15T21:44:48.035764Z,-0.597839,0.340088,1.49884
2018-10-15T21:44:48.260764Z,-0.52533,0.41314700000000004,0.214783
2018-10-15T21:44:48.442764Z,-0.789246,-1.11438,-1.569763
2018-10-15T21:44:48.644764Z,-1.163635,-0.293518,0.1828
2018-10-15T21:44:48.866764Z,-0.943298,0.727051,0.148376
2018-10-15T21:44:49.035764Z,-1.367615,0.8562620000000001,-0.455505
2018-10-15T21:44:49.237764Z,-0.701294,1.4560549999999999,-0.49408
2018-10-15T21:44:49.437764Z,-0.091736,0.060425,1.681396
2018-10-15T21:44:49.635764Z,-0.181274,-2.146301,3.334778
2018-10-15T21:44:49.836764Z,-0.366272,-1.095337,1.006897
2018-10-15T21:44:50.036764Z,-0.492371,-0.116882,1.031311
2018-10-15T21:44:50.226764Z,0.381104,-1.28595,-1.416382
2018-10-15T21:44:50.447764Z,0.381348,-0.588562,-0.125366
2018-10-15T21:44:50.667764Z,-0.22479200000000002,-0.540833,-0.5219729999999999
2018-10-15T21:44:51.041764Z,0.392395,0.057922,-0.187256
2018-10-15T21:44:51.243764Z,1.378845,0.13385,-0.211731
2018-10-15T21:44:51.435764Z,1.09314,0.677673,-0.125366
2018-10-15T21:44:51.635764Z,0.478516,1.166138,-0.515564
2018-10-15T21:44:51.835764Z,0.6328739999999999,1.271973,0.146973
2018-10-15T21:44:52.035764Z,-0.66217,-0.809082,1.788818
2018-10-15T21:44:52.235764Z,-0.403442,-0.295593,-0.586548
2018-10-15T21:44:52.433764Z,-0.189575,0.43115200000000004,-0.26947
2018-10-15T21:44:52.641764Z,-0.193787,0.508301,0.166748
2018-10-15T21:44:52.840764Z,-0.8423459999999999,-0.794556,1.649109
2018-10-15T21:44:53.084764Z,-1.270569,0.33972199999999997,-2.3097529999999997
2018-10-15T21:44:53.245764Z,-1.449951,-1.216064,1.01062
2018-10-15T21:44:53.452764Z,-2.65033,-1.687012,-1.281372
2018-10-15T21:44:53.632764Z,-1.7254029999999998,-0.613831,-0.414734
2018-10-15T21:44:53.836764Z,-0.44043000000000004,0.46173100000000006,0.6968989999999999
2018-10-15T21:44:54.035764Z,-0.795349,-0.29284699999999997,-1.302246
2018-10-15T21:44:54.236764Z,-0.6500239999999999,0.673096,-0.250916
2018-10-15T21:44:54.435764Z,-0.615784,0.39550799999999997,0.7380979999999999
2018-10-15T21:44:54.652764Z,-1.050598,-0.8015140000000001,-2.021484
2018-10-15T21:44:54.841764Z,-1.175537,-0.621155,-0.482544
2018-10-15T21:44:55.066764Z,-0.49316400000000005,0.272827,-0.433411
2018-10-15T21:44:55.236764Z,0.790466,-2.121948,2.371216
2018-10-15T21:44:55.434764Z,0.8656010000000001,-0.8494870000000001,0.11151099999999999
2018-10-15T21:44:55.633764Z,0.13555899999999999,0.14209000000000002,-0.021422999999999998
2018-10-15T21:44:55.834764Z,0.310425,0.5734859999999999,-0.062988
2018-10-15T21:44:56.036764Z,0.314575,-0.9552,-0.451538
2018-10-15T21:44:56.236764Z,-0.403381,-0.20788600000000002,-1.868164
2018-10-15T21:44:56.439764Z,-0.059265,1.003418,-0.0224
2018-10-15T21:44:56.646764Z,0.902588,0.764221,-0.883484
2018-10-15T21:44:56.840764Z,0.71344,-0.8621219999999999,2.2608639999999998
2018-10-15T21:44:57.042764Z,1.079285,0.47729499999999997,0.29718
2018-10-15T21:44:57.240764Z,0.527954,-0.46173100000000006,2.3565669999999996
2018-10-15T21:44:57.436764Z,1.085876,-0.984741,1.46875
2018-10-15T21:44:57.643764Z,1.213501,0.038147,0.608276
2018-10-15T21:44:57.835764Z,1.808655,-0.100952,-0.463257
2018-10-15T21:44:58.036764Z,1.5409549999999999,-0.157227,0.910278
2018-10-15T21:44:58.236764Z,1.162109,1.794128,0.776428
2018-10-15T21:44:58.436764Z,0.07788099999999999,2.131897,-0.895691
2018-10-15T21:44:58.635764Z,-1.324829,0.340698,0.829224
2018-10-15T21:44:58.835764Z,0.200378,1.374695,-1.559448
2018-10-15T21:44:59.032764Z,0.1073,2.761719,0.33868400000000004
2018-10-15T21:44:59.233764Z,-0.173828,2.2582400000000002,-1.090515
2018-10-15T21:44:59.436764Z,0.372314,0.643127,0.11828599999999999
2018-10-15T21:44:59.636764Z,-0.167175,1.768188,-0.246216
2018-10-15T21:44:59.838764Z,0.349304,2.841919,0.051330999999999995
2018-10-15T21:45:00.036764Z,0.930969,-0.352173,2.227539
2018-10-15T21:45:00.236764Z,1.184814,-0.049377,-0.9788209999999999
2018-10-15T21:45:00.435764Z,-0.590759,1.722107,-1.446777
2018-10-15T21:45:00.635764Z,0.14416500000000002,1.546265,1.232056
2018-10-15T21:45:00.848764Z,-0.305176,0.396179,-0.799438
2018-10-15T21:45:01.034764Z,-0.351196,0.633484,-0.682373
2018-10-15T21:45:01.235764Z,-0.081177,1.341736,0.445557
2018-10-15T21:45:01.435764Z,0.072632,-0.209412,-0.257629
2018-10-15T21:45:01.634764Z,-0.756287,0.49127200000000004,-1.483154
2018-10-15T21:45:01.835764Z,0.471008,0.6525270000000001,-0.8575440000000001
2018-10-15T21:45:02.036764Z,-0.369873,1.2189940000000001,-0.9632569999999999
2018-10-15T21:45:02.435764Z,-0.860657,1.2360229999999999,-0.004822
2018-10-15T21:45:02.635764Z,-0.06189,-0.887817,2.469055
2018-10-15T21:45:02.836764Z,1.277466,-0.663025,-1.604431
2018-10-15T21:45:03.052764Z,0.580688,0.8497309999999999,-0.038208
2018-10-15T21:45:03.241764Z,0.29199200000000003,0.932434,1.423096
2018-10-15T21:45:03.442764Z,-0.28064,-2.2704470000000003,3.7135010000000004
2018-10-15T21:45:03.635764Z,0.12793,-0.880127,-0.42163100000000003
2018-10-15T21:45:03.911764Z,-0.328613,-0.173035,0.7712399999999999
2018-10-15T21:45:04.038764Z,-0.112549,0.098938,-0.609985
2018-10-15T21:45:04.248764Z,-1.215088,-1.003418,1.293579
2018-10-15T21:45:04.441764Z,-1.487366,-0.725586,0.782837
2018-10-15T21:45:04.636764Z,-1.02356,-1.606567,1.2958370000000001
2018-10-15T21:45:04.846764Z,-1.9491580000000002,-0.752258,0.8617549999999999
2018-10-15T21:45:05.035764Z,-1.935425,-0.019897,0.149231
2018-10-15T21:45:05.238764Z,-1.174988,0.82135,-0.855042
2018-10-15T21:45:05.436764Z,-1.0444950000000002,0.885986,0.410095
2018-10-15T21:45:05.635764Z,-0.201172,0.565125,-2.734802
2018-10-15T21:45:05.840764Z,-0.146179,0.962341,-1.063232
2018-10-15T21:45:06.041764Z,-1.33313,1.6148069999999999,-0.08843999999999999
2018-10-15T21:45:06.241764Z,-0.981567,-0.820984,0.371094
2018-10-15T21:45:06.433764Z,-0.655701,0.135498,-1.2259520000000002
2018-10-15T21:45:06.652764Z,-1.401245,1.148376,-0.271973
2018-10-15T21:45:06.836764Z,-0.11035199999999999,0.418335,-1.407532
2018-10-15T21:45:07.037764Z,0.370178,-1.748291,0.672546
2018-10-15T21:45:07.237764Z,-0.40313699999999997,-0.963684,1.328857
2018-10-15T21:45:07.435764Z,-0.0035399999999999997,1.1708370000000001,0.075012
2018-10-15T21:45:07.635764Z,-2.334473,-1.194336,1.3114620000000001
2018-10-15T21:45:07.835764Z,-1.940186,0.9183959999999999,-0.087036
2018-10-15T21:45:08.038764Z,-2.153809,1.123535,-1.199524
2018-10-15T21:45:08.235764Z,-1.65271,0.8455809999999999,-1.167175
2018-10-15T21:45:08.435764Z,-2.6945799999999998,-0.117249,1.415039
2018-10-15T21:45:08.641764Z,-1.659607,0.394897,0.768066
2018-10-15T21:45:08.837764Z,-1.9456790000000002,0.561584,-0.35968
2018-10-15T21:45:09.037764Z,-1.439575,-0.51947,-0.483154
2018-10-15T21:45:09.236764Z,-0.360596,0.9512940000000001,-0.347595
2018-10-15T21:45:09.436764Z,-0.573853,0.33905,-1.981628
2018-10-15T21:45:09.634764Z,-1.4223629999999998,1.164368,-0.332458
2018-10-15T21:45:09.837764Z,-2.198425,0.732544,-1.737732
2018-10-15T21:45:10.040764Z,-1.6737669999999998,0.522461,-1.478394
2018-10-15T21:45:10.243764Z,-0.98175,1.011841,0.133179
2018-10-15T21:45:10.435764Z,-0.188049,0.724731,-1.318665
2018-10-15T21:45:10.637764Z,-1.226013,1.062622,-0.816772
2018-10-15T21:45:10.835764Z,-2.466675,0.015686000000000002,3.30481
2018-10-15T21:45:11.032764Z,-1.383667,-0.154114,-2.090759
2018-10-15T21:45:11.236764Z,-1.3011469999999998,0.8395389999999999,-1.2227780000000001
2018-10-15T21:45:11.449764Z,-0.9276120000000001,-0.440247,-0.2901
2018-10-15T21:45:11.634764Z,-1.123657,0.53595,-0.604065
2018-10-15T21:45:11.843764Z,-3.167175,1.29187,-4.643982
2018-10-15T21:45:12.035764Z,-1.433777,0.87616,-0.982239
2018-10-15T21:45:12.241764Z,-1.4956049999999999,1.212891,0.103271
2018-10-15T21:45:12.442764Z,-0.374756,-0.7077640000000001,-0.697449
2018-10-15T21:45:12.635764Z,-1.595459,1.959961,-1.826538
2018-10-15T21:45:12.835764Z,-2.437866,-1.8846439999999998,4.119568
2018-10-15T21:45:13.035764Z,-1.0889280000000001,-0.05072,-1.472107
2018-10-15T21:45:13.236764Z,-1.2658690000000001,-0.477783,1.5271
2018-10-15T21:45:13.435764Z,-1.071655,-1.142151,3.545349
2018-10-15T21:45:13.636764Z,-1.915344,-0.629883,-0.6235350000000001
2018-10-15T21:45:13.835764Z,-1.259766,0.020081,-0.091614
2018-10-15T21:45:14.040764Z,-1.1538700000000002,-0.25506599999999996,-0.672424
2018-10-15T21:45:14.241764Z,-1.2090450000000001,0.093323,-0.797729
2018-10-15T21:45:14.452764Z,-1.186523,0.204224,-0.81366
2018-10-15T21:45:14.644764Z,-1.076904,0.5591430000000001,-0.42840600000000006
2018-10-15T21:45:14.833764Z,-0.812439,0.6011350000000001,-0.156616
2018-10-15T21:45:15.033764Z,-0.385681,0.6370239999999999,-0.280457
2018-10-15T21:45:15.233764Z,-0.958435,0.603333,-0.261475
2018-10-15T21:45:15.439764Z,-0.766479,0.17419400000000002,-1.0443120000000001
2018-10-15T21:45:15.841764Z,-0.690002,0.888916,-0.8628540000000001
2018-10-15T21:45:16.032764Z,-0.538696,1.295105,-0.943787
2018-10-15T21:45:16.232764Z,0.101013,0.79364,0.40448
2018-10-15T21:45:16.440764Z,0.139404,-0.83905,0.0068969999999999995
2018-10-15T21:45:16.636764Z,0.112854,0.38269000000000003,-0.349609
2018-10-15T21:45:16.836764Z,-0.462769,0.403198,0.471497
2018-10-15T21:45:17.035764Z,-1.006042,-1.626587,-2.955444
2018-10-15T21:45:17.248764Z,-0.6525880000000001,-0.6784060000000001,-0.461243
2018-10-15T21:45:17.451764Z,0.070435,-0.807434,0.19927999999999998
2018-10-15T21:45:17.652764Z,-1.242432,-2.412659,2.130798
2018-10-15T21:45:17.855764Z,-2.5047610000000002,-1.7181400000000002,0.673584
2018-10-15T21:45:18.046764Z,-3.03009,-0.9165040000000001,-2.4503169999999996
2018-10-15T21:45:18.246764Z,-1.473816,0.18365499999999998,0.6172489999999999
2018-10-15T21:45:18.446764Z,-0.735168,1.252441,0.8922120000000001
2018-10-15T21:45:18.645764Z,-1.24823,-0.683411,-3.1071779999999998
2018-10-15T21:45:18.846764Z,-1.3553469999999999,0.180115,-1.581909
2018-10-15T21:45:19.045764Z,-1.414307,1.0196530000000001,0.656433
2018-10-15T21:45:19.245764Z,-1.967041,-1.7755740000000002,2.8452759999999997
2018-10-15T21:45:19.531764Z,-1.657837,-1.5264280000000001,-0.34191900000000003
2018-10-15T21:45:19.641764Z,-2.055237,-0.415405,-0.243896
2018-10-15T21:45:19.846764Z,-1.756836,0.13562000000000002,-0.23846399999999998
2018-10-15T21:45:20.050764Z,-2.4967650000000003,0.5610350000000001,-0.93042
2018-10-15T21:45:20.246764Z,-2.959045,1.27063,-0.806824
2018-10-15T21:45:20.446764Z,-2.340271,0.912415,-0.668823
2018-10-15T21:45:20.646764Z,-1.7182009999999999,1.032532,0.799683
2018-10-15T21:45:20.846764Z,-0.724548,0.810608,-1.727966
2018-10-15T21:45:21.045764Z,-0.992676,1.002625,-1.2543950000000001
2018-10-15T21:45:21.246764Z,-0.723267,1.894409,-0.402832
2018-10-15T21:45:21.447764Z,-0.8061520000000001,1.9403689999999998,0.036377
2018-10-15T21:45:21.646764Z,-1.212708,0.542603,-1.546753
2018-10-15T21:45:21.905764Z,-0.903015,1.2901,0.005188
2018-10-15T21:45:22.042764Z,-0.274048,1.7099,0.163391
2018-10-15T21:45:22.245764Z,-0.612549,0.148865,-0.6834720000000001
2018-10-15T21:45:22.445764Z,-1.445007,1.570618,-0.384216
2018-10-15T21:45:22.645764Z,-1.591309,1.869629,-1.243408
2018-10-15T21:45:22.845764Z,-1.225647,0.21228000000000002,1.401367
2018-10-15T21:45:23.046764Z,-0.807373,1.8610229999999999,-1.76709
2018-10-15T21:45:23.245764Z,-0.153137,0.247986,1.9162599999999999
2018-10-15T21:45:23.446764Z,-0.65564,1.236877,-2.514465
2018-10-15T21:45:23.654764Z,-1.017517,0.844543,0.5448
2018-10-15T21:45:23.844764Z,-1.016357,0.560669,-0.510498
2018-10-15T21:45:24.049764Z,-0.492554,-0.395996,-1.137146
2018-10-15T21:45:24.250764Z,-0.594543,-0.715759,-0.9162600000000001
2018-10-15T21:45:24.446764Z,-0.756104,-1.04364,-0.347534
2018-10-15T21:45:24.645764Z,0.993835,-0.53479,-0.098083
2018-10-15T21:45:24.848764Z,1.349426,-1.873291,0.728333
2018-10-15T21:45:25.046764Z,-0.159363,0.175232,-0.477051
2018-10-15T21:45:25.246764Z,-1.094971,-1.0371700000000001,1.6137700000000001
2018-10-15T21:45:25.445764Z,-1.56073,0.55835,-0.252075
2018-10-15T21:45:25.645764Z,-0.667419,1.185425,-1.178711
2018-10-15T21:45:25.858764Z,1.319336,0.194458,-2.480408
2018-10-15T21:45:26.052764Z,0.093811,0.623901,-1.959412
2018-10-15T21:45:26.251764Z,-1.413147,1.270203,-1.0238040000000002
2018-10-15T21:45:26.445764Z,-0.236511,-0.037354000000000005,0.548523
2018-10-15T21:45:26.645764Z,0.244202,1.131836,1.119141
2018-10-15T21:45:26.848764Z,1.4760739999999999,-0.48126199999999997,-0.768372
2018-10-15T21:45:27.046764Z,-0.49139399999999994,1.002991,-0.647034
2018-10-15T21:45:27.249764Z,-0.912537,-0.045654,0.6018680000000001
2018-10-15T21:45:27.447764Z,-0.617004,-0.20654299999999998,-0.789185
2018-10-15T21:45:27.647764Z,-0.8566280000000001,-0.547852,-0.134399
2018-10-15T21:45:27.860764Z,0.424622,-0.404785,-1.207336
2018-10-15T21:45:28.049764Z,-0.046387,-0.276917,-0.401001
2018-10-15T21:45:28.247764Z,0.19751,-0.695801,0.509949
2018-10-15T21:45:28.453764Z,-0.322571,0.075073,-0.095459
2018-10-15T21:45:28.654764Z,-1.719543,0.702759,-0.47338900000000006
2018-10-15T21:45:28.845764Z,-1.510864,0.657104,-0.563416
2018-10-15T21:45:29.046764Z,-1.223999,0.7252810000000001,0.91095
2018-10-15T21:45:29.245764Z,0.25750700000000004,-0.795593,0.952942
2018-10-15T21:45:29.445764Z,0.9036870000000001,-0.28479,0.020569
2018-10-15T21:45:29.679764Z,-0.110046,-0.032043,0.630371
2018-10-15T21:45:29.842764Z,-0.9614870000000001,-0.9423219999999999,0.553772
2018-10-15T21:45:30.050764Z,-0.6838380000000001,-0.232483,-1.537292
2018-10-15T21:45:30.251764Z,-0.920105,0.721375,0.409119
2018-10-15T21:45:30.445764Z,-0.024597,-1.162109,3.775085
2018-10-15T21:45:30.646764Z,-0.22033699999999998,-0.333801,-1.518799
2018-10-15T21:45:30.865764Z,-0.7718510000000001,0.568481,-3.417297
2018-10-15T21:45:31.046764Z,-0.314819,-1.7092900000000002,0.029541
2018-10-15T21:45:31.258764Z,-0.352051,-0.41125500000000004,-1.360962
2018-10-15T21:45:31.457764Z,-0.256836,-0.11639400000000001,0.337708
2018-10-15T21:45:31.655764Z,0.007996,-0.583008,-0.669006
2018-10-15T21:45:31.846764Z,-0.032104,0.041565,0.31451399999999996
2018-10-15T21:45:32.046764Z,-0.112549,0.007873999999999999,1.407227
2018-10-15T21:45:32.245764Z,-0.038452,-1.8690189999999998,0.837463
2018-10-15T21:45:32.445764Z,-0.41888400000000003,0.051514,-0.725586
2018-10-15T21:45:32.646764Z,-0.106873,0.34631300000000004,-0.085876
2018-10-15T21:45:32.863764Z,-0.8981319999999999,-1.194336,-0.573547
2018-10-15T21:45:33.050764Z,-1.3882450000000002,-1.219055,0.45800799999999997
2018-10-15T21:45:33.252764Z,-1.240723,-0.142761,-0.779907
2018-10-15T21:45:33.452764Z,-2.025757,-1.708191,1.2734379999999998
2018-10-15T21:45:33.650764Z,-1.7460330000000002,-0.731506,-0.154053
2018-10-15T21:45:34.115764Z,-1.358826,-0.44628900000000005,0.6745
2018-10-15T21:45:34.246764Z,-1.3442379999999998,0.067383,-0.263855
2018-10-15T21:45:34.456764Z,-1.0336299999999998,0.23986799999999997,0.06439199999999999
2018-10-15T21:45:34.651764Z,-1.1117549999999998,0.172974,-0.11383099999999999
2018-10-15T21:45:34.856764Z,-2.829712,1.16571,-2.010742
2018-10-15T21:45:35.049764Z,-2.316345,1.5652469999999998,-1.28772
2018-10-15T21:45:35.245764Z,-1.792847,2.121887,0.73938
2018-10-15T21:45:35.445764Z,-0.662292,-0.432129,2.398682
2018-10-15T21:45:35.647764Z,-0.74884,0.146301,-1.108398
2018-10-15T21:45:35.845764Z,-1.1235959999999998,0.9088129999999999,-0.3125
2018-10-15T21:45:36.050764Z,-2.351868,-0.08142100000000001,-0.41845699999999997
2018-10-15T21:45:36.251764Z,-1.9920650000000002,-0.024231,-0.403564
2018-10-15T21:45:36.451764Z,-2.298828,0.42572,-0.033081
2018-10-15T21:45:36.654764Z,-2.437439,1.029663,0.413757
2018-10-15T21:45:36.841764Z,-0.792297,0.24706999999999998,2.891235
2018-10-15T21:45:37.056764Z,0.29425,-0.346985,-0.12176500000000001
2018-10-15T21:45:37.247764Z,-0.358215,0.377747,-0.576599
2018-10-15T21:45:37.446764Z,-1.27301,1.3899540000000001,-1.034729
2018-10-15T21:45:37.646764Z,-1.433533,1.160706,-0.829285
2018-10-15T21:45:37.856764Z,-1.284302,0.8790889999999999,0.144836
2018-10-15T21:45:38.046764Z,-1.047485,1.1831049999999999,-0.090515
2018-10-15T21:45:38.247764Z,-0.9950559999999999,0.671204,0.25201399999999996
2018-10-15T21:45:38.447764Z,-0.8235469999999999,0.713501,0.073608
2018-10-15T21:45:38.650764Z,-0.503479,0.5820310000000001,-0.08520499999999999
2018-10-15T21:45:38.849764Z,-0.297791,0.3974,-0.529663
2018-10-15T21:45:39.050764Z,-0.363037,0.430176,-0.132751
2018-10-15T21:45:39.252764Z,-0.47106899999999996,0.309143,0.107971
2018-10-15T21:45:39.445764Z,-0.300293,0.167542,0.016479
2018-10-15T21:45:39.645764Z,-0.251709,0.19049100000000002,-0.11260999999999999
2018-10-15T21:45:39.845764Z,-0.552185,0.360229,0.315369
2018-10-15T21:45:40.068764Z,-0.41680900000000004,0.21936,-0.068359
2018-10-15T21:45:40.252764Z,-0.718933,0.611633,-0.342285
2018-10-15T21:45:40.445764Z,0.301636,0.611938,0.253601
2018-10-15T21:45:40.646764Z,-0.15173299999999998,1.234253,0.2948
2018-10-15T21:45:40.845764Z,-0.193848,0.778015,0.49279799999999996
2018-10-15T21:45:41.046764Z,-0.799988,-0.7775270000000001,-2.3112790000000003
2018-10-15T21:45:41.246764Z,-0.706421,0.261658,-0.551453
2018-10-15T21:45:41.445764Z,-0.011353,0.767273,-0.390808
2018-10-15T21:45:41.647764Z,-0.495972,-1.099609,2.069153
2018-10-15T21:45:41.886764Z,0.354736,-0.29882800000000004,2.2457279999999997
2018-10-15T21:45:42.052764Z,-0.400879,0.617737,0.456421
2018-10-15T21:45:42.255764Z,-1.413757,-0.7099,-1.191345
2018-10-15T21:45:42.453764Z,-1.627014,-0.037292,-0.175476
2018-10-15T21:45:42.648764Z,-1.519958,0.156067,-0.53479
2018-10-15T21:45:42.846764Z,-0.46173100000000006,-0.085815,-1.197632
2018-10-15T21:45:43.045764Z,-0.509033,0.269165,-1.551636
2018-10-15T21:45:43.245764Z,-0.47522,-0.600037,2.368713
2018-10-15T21:45:43.445764Z,0.921631,-0.311523,0.986816
2018-10-15T21:45:43.641764Z,-0.010131999999999999,-0.249939,1.7780759999999998
2018-10-15T21:45:43.848764Z,-0.14593499999999998,-2.441284,-0.6137699999999999
2018-10-15T21:45:44.052764Z,-0.9762569999999999,-1.4232790000000002,-1.4104
2018-10-15T21:45:44.252764Z,-0.908752,-0.365662,0.670776
2018-10-15T21:45:44.506764Z,-0.705627,0.22656199999999999,1.9108889999999998
2018-10-15T21:45:44.648764Z,0.179321,0.200623,0.14935299999999999
2018-10-15T21:45:44.857764Z,-0.27416999999999997,0.738892,0.300964
2018-10-15T21:45:45.052764Z,-0.457092,0.098694,-0.49658199999999997
2018-10-15T21:45:45.248764Z,-2.1519169999999996,-0.5075069999999999,-3.616028
2018-10-15T21:45:45.451764Z,-0.8695069999999999,-0.091797,-0.9963989999999999
2018-10-15T21:45:45.645764Z,0.115723,-0.067932,0.679443
2018-10-15T21:45:45.845764Z,-0.8353879999999999,-1.137268,0.36377
2018-10-15T21:45:46.045764Z,-0.270264,-0.8753049999999999,0.868835
2018-10-15T21:45:46.325764Z,-0.452087,0.150391,-0.642151
2018-10-15T21:45:46.450764Z,-1.481201,-0.526367,-1.7363279999999999
2018-10-15T21:45:46.653764Z,-0.7692260000000001,-0.685425,-0.41503900000000005
2018-10-15T21:45:47.047764Z,0.074585,-0.65918,0.261169
2018-10-15T21:45:47.245764Z,0.9013059999999999,-0.030333999999999996,-1.135376
2018-10-15T21:45:47.447764Z,1.189941,-0.634705,-0.169373
2018-10-15T21:45:47.646764Z,1.425232,-0.039307,-0.187134
2018-10-15T21:45:47.846764Z,-1.4273069999999999,-1.045654,1.86084
2018-10-15T21:45:48.046764Z,-1.313965,-0.288208,0.618103
2018-10-15T21:45:48.248764Z,-0.40679899999999997,-0.15771500000000002,-0.871338
2018-10-15T21:45:48.451764Z,0.139648,0.224731,-0.153809
2018-10-15T21:45:48.651764Z,0.629333,-0.028076,0.573059
2018-10-15T21:45:48.846764Z,-0.089417,-1.604919,-0.8466799999999999
2018-10-15T21:45:49.047764Z,-0.133179,-0.620483,-0.6577149999999999
2018-10-15T21:45:49.248764Z,0.46417200000000003,0.324585,-0.21411100000000002
2018-10-15T21:45:49.446764Z,0.65271,0.647522,0.863892
2018-10-15T21:45:49.650764Z,1.854675,0.248901,0.83844
2018-10-15T21:45:49.845764Z,1.30426,0.759155,-0.049744
2018-10-15T21:45:50.044764Z,0.015319999999999999,0.5825199999999999,0.40918000000000004
2018-10-15T21:45:50.251764Z,-0.106262,-0.09320099999999999,0.308289
2018-10-15T21:45:50.446764Z,-0.48468,0.104431,-0.40881300000000004
2018-10-15T21:45:50.649764Z,-1.112488,1.203308,-0.254822
2018-10-15T21:45:50.846764Z,-0.602112,1.7523799999999998,0.733643
2018-10-15T21:45:51.046764Z,0.7750239999999999,-0.364929,1.7319950000000002
2018-10-15T21:45:51.249764Z,1.0821530000000001,0.38208000000000003,-2.107361
2018-10-15T21:45:51.442764Z,0.878906,0.971558,-1.892151
2018-10-15T21:45:51.645764Z,-0.33728,0.15393099999999998,0.369812
2018-10-15T21:45:51.845764Z,0.225769,-0.8726200000000001,2.074707
2018-10-15T21:45:52.073764Z,-0.893494,0.099121,1.364502
2018-10-15T21:45:52.260764Z,-0.072876,0.410156,0.170776
2018-10-15T21:45:52.451764Z,0.9696040000000001,0.62915,-1.7127689999999998
2018-10-15T21:45:52.652764Z,0.37683099999999997,1.9580080000000002,-0.21539299999999997
2018-10-15T21:45:52.845764Z,-1.058044,2.805664,1.125
2018-10-15T21:45:53.046764Z,-0.42419399999999996,-1.067261,-1.222595
2018-10-15T21:45:53.246764Z,0.074646,-0.00293,-2.0786130000000003
2018-10-15T21:45:53.446764Z,-0.14288299999999998,0.73938,-0.027405000000000002
2018-10-15T21:45:53.643764Z,0.349731,-0.552612,0.864075
2018-10-15T21:45:53.848764Z,0.875977,0.622192,-1.224304
2018-10-15T21:45:54.054764Z,0.40063499999999996,1.12384,-0.18951400000000002
2018-10-15T21:45:54.252764Z,0.9639280000000001,1.534424,-0.275696
2018-10-15T21:45:54.445764Z,0.805847,3.7684940000000005,3.181641
2018-10-15T21:45:54.646764Z,-1.208313,-1.148987,1.586731
2018-10-15T21:45:54.846764Z,-0.5700069999999999,-0.885193,1.103882
2018-10-15T21:45:55.056764Z,-0.38208000000000003,-0.20587199999999997,-0.48132299999999995
2018-10-15T21:45:55.247764Z,-0.085327,0.158081,0.297729
2018-10-15T21:45:55.444764Z,-0.511658,0.5448,-0.720093
2018-10-15T21:45:55.680764Z,-1.290527,1.465271,-0.546082
2018-10-15T21:45:55.852764Z,-0.8457030000000001,1.015503,-0.519043
2018-10-15T21:45:56.052764Z,-0.452454,0.281921,-0.740051
2018-10-15T21:45:56.245764Z,-1.05072,0.323975,-0.642822
2018-10-15T21:45:56.445764Z,-0.048096,0.789856,0.19104000000000002
2018-10-15T21:45:56.660764Z,-0.240601,1.340576,0.33105500000000004
2018-10-15T21:45:56.845764Z,-0.784241,-0.973877,1.748718
2018-10-15T21:45:57.045764Z,-0.7832640000000001,-1.2139280000000001,-0.080566
2018-10-15T21:45:57.245764Z,-1.0751950000000001,0.9306639999999999,-0.536499
2018-10-15T21:45:57.445764Z,-0.689697,0.45440699999999995,-0.47509799999999996
2018-10-15T21:45:57.646764Z,-1.009827,-0.549377,0.811096
2018-10-15T21:45:58.049764Z,-0.8746950000000001,0.809448,-2.288513
2018-10-15T21:45:58.246764Z,-0.786926,1.069275,0.482666
2018-10-15T21:45:58.446764Z,-0.9821780000000001,-2.14447,2.908203
2018-10-15T21:45:58.678764Z,-0.460632,-0.598206,-0.66687
2018-10-15T21:45:58.855764Z,-1.0023799999999998,0.274231,-1.7155150000000001
2018-10-15T21:45:59.051764Z,-1.204285,0.610901,-0.547485
2018-10-15T21:45:59.254764Z,-0.523438,-0.21411100000000002,-0.5973510000000001
2018-10-15T21:45:59.452764Z,-0.242798,0.397278,0.267151
2018-10-15T21:45:59.657764Z,-0.190857,1.053772,0.361145
2018-10-15T21:45:59.846764Z,-1.110596,-0.676819,1.6856080000000002
2018-10-15T21:46:00.049764Z,-0.983215,-1.194092,1.356934
2018-10-15T21:46:00.242764Z,-0.9724729999999999,0.145264,-0.341064
2018-10-15T21:46:00.452764Z,-0.934204,0.13525399999999999,0.133606
2018-10-15T21:46:00.645764Z,-0.866028,-0.41046099999999996,-1.181091
2018-10-15T21:46:00.855764Z,-0.596619,0.11029100000000001,-1.114441
2018-10-15T21:46:01.055764Z,-1.140686,1.050293,0.321838
2018-10-15T21:46:01.251764Z,-0.9656370000000001,0.375427,-0.8788450000000001
2018-10-15T21:46:01.452764Z,-2.5130619999999997,-1.7223509999999997,-1.337524
2018-10-15T21:46:01.652764Z,-2.114014,-0.5047,-0.12219200000000001
2018-10-15T21:46:01.846764Z,-1.825623,0.20916700000000002,-0.586304
2018-10-15T21:46:02.048764Z,-2.244812,0.645752,-0.615051
2018-10-15T21:46:02.245764Z,-0.121399,0.58429,-0.31189
2018-10-15T21:46:02.447764Z,0.23529099999999997,0.532349,-1.499817
2018-10-15T21:46:02.646764Z,-0.652283,0.911011,-1.8064580000000001
2018-10-15T21:46:02.845764Z,-0.7011109999999999,0.987793,0.5817260000000001
2018-10-15T21:46:03.051764Z,-0.6130369999999999,-0.6137699999999999,1.599854
2018-10-15T21:46:03.251764Z,-0.942139,0.078247,-2.001648
2018-10-15T21:46:03.450764Z,-0.5033569999999999,-0.14746099999999998,-0.82373
2018-10-15T21:46:03.645764Z,-1.630798,-0.328857,-1.382996
2018-10-15T21:46:03.842764Z,0.6427,-1.207825,0.738464
2018-10-15T21:46:04.045764Z,-0.162903,-0.23211700000000002,0.43463100000000005
2018-10-15T21:46:04.245764Z,-0.03418,0.602722,-1.170288
2018-10-15T21:46:04.445764Z,-1.1334229999999998,-0.848511,1.932739
2018-10-15T21:46:04.646764Z,-0.8336180000000001,-0.069336,-0.500793
2018-10-15T21:46:04.897764Z,-0.275391,0.32959,0.014038
2018-10-15T21:46:05.055764Z,-0.397339,0.202026,-0.395874
2018-10-15T21:46:05.247764Z,0.043213,0.245117,-0.470337
2018-10-15T21:46:05.450764Z,0.468872,0.744202,1.998535
2018-10-15T21:46:05.668764Z,-0.187378,1.6121219999999998,-1.388916
2018-10-15T21:46:05.847764Z,-0.0354,3.3807980000000004,2.0980830000000004
2018-10-15T21:46:06.047764Z,-0.822876,-1.4898069999999999,1.2426760000000001
2018-10-15T21:46:06.245764Z,-1.292786,-1.279541,-0.13159200000000001
2018-10-15T21:46:06.454764Z,-0.9611209999999999,0.787354,-0.7067260000000001
2018-10-15T21:46:06.651764Z,0.100464,0.305115,-0.225708
2018-10-15T21:46:06.858764Z,0.903076,-0.145813,-3.852295
2018-10-15T21:46:07.051764Z,-0.271973,0.33825700000000003,-0.125427
2018-10-15T21:46:07.251764Z,-1.438599,0.03949,-1.363586
2018-10-15T21:46:07.445764Z,0.604004,-0.769409,0.90686
2018-10-15T21:46:07.646764Z,0.021606,-0.539673,-1.059265
2018-10-15T21:46:07.843764Z,0.399353,0.143127,-0.8270870000000001
2018-10-15T21:46:08.049764Z,0.8396610000000001,0.334778,-1.320496
2018-10-15T21:46:08.245764Z,1.282349,1.373718,-1.7266240000000002
2018-10-15T21:46:08.449764Z,1.609924,2.145325,1.395691
2018-10-15T21:46:08.645764Z,0.219421,-1.082886,0.9266969999999999
2018-10-15T21:46:08.846764Z,-2.018738,0.224304,1.020935
2018-10-15T21:46:09.045764Z,0.323547,1.8574220000000001,-4.050232
2018-10-15T21:46:09.245764Z,0.482788,1.734863,-0.007324
2018-10-15T21:46:09.650764Z,-0.9946290000000001,-2.4617310000000003,0.8295899999999999
2018-10-15T21:46:09.841764Z,-0.590271,0.122742,-1.568726
2018-10-15T21:46:10.046764Z,-1.317017,1.476013,-0.890015
2018-10-15T21:46:10.247764Z,-1.3979489999999999,0.788879,-1.079712
2018-10-15T21:46:10.453764Z,-1.061523,0.976074,0.740967
2018-10-15T21:46:10.645764Z,-0.337952,0.688416,-0.8579709999999999
2018-10-15T21:46:10.846764Z,0.522949,0.943542,-1.7460330000000002
2018-10-15T21:46:11.050764Z,-0.034789999999999995,1.550964,-0.37683099999999997
2018-10-15T21:46:11.251764Z,-0.219727,1.862061,0.332886
2018-10-15T21:46:11.453764Z,-0.43273900000000004,-0.8967290000000001,0.237183
2018-10-15T21:46:11.646764Z,-0.35675,0.427856,-1.422424
2018-10-15T21:46:11.855764Z,-0.89502,1.1165770000000002,0.395935
2018-10-15T21:46:12.053764Z,0.161926,-0.864075,-0.133301
2018-10-15T21:46:12.283764Z,-0.249756,0.538696,0.170776
2018-10-15T21:46:12.451764Z,0.45526099999999997,1.251892,0.327087
2018-10-15T21:46:12.645764Z,-0.760803,-0.561218,3.062927
2018-10-15T21:46:12.852764Z,-1.013916,-1.1323239999999999,0.021912
2018-10-15T21:46:13.044764Z,-0.8694459999999999,-0.523254,0.625305
2018-10-15T21:46:13.246764Z,-1.0504149999999999,0.355225,-0.43896499999999994
2018-10-15T21:46:13.445764Z,-0.375183,-0.306519,-0.855713
2018-10-15T21:46:13.645764Z,-0.396545,-0.9353030000000001,-0.9838870000000001
2018-10-15T21:46:13.846764Z,-0.804688,0.47747799999999996,1.0385739999999999
2018-10-15T21:46:14.046764Z,0.037903,0.16284200000000001,-0.631836
2018-10-15T21:46:14.248764Z,-0.259949,0.7816770000000001,-1.0247190000000002
2018-10-15T21:46:14.445764Z,0.477112,0.557373,-0.302246
2018-10-15T21:46:14.645764Z,-0.23162800000000003,2.463867,1.344055
2018-10-15T21:46:14.844764Z,-0.488037,-0.014221000000000001,-1.292419
2018-10-15T21:46:15.046764Z,-1.9442139999999999,-2.271423,-2.1698
2018-10-15T21:46:15.247764Z,-1.367004,-0.7463989999999999,-0.06219500000000001
2018-10-15T21:46:15.447764Z,-0.9653930000000001,0.762695,-0.473999
2018-10-15T21:46:15.645764Z,-0.9558719999999999,-0.44573999999999997,-1.274841
2018-10-15T21:46:15.846764Z,-1.3027950000000001,-0.055115,-0.409485
2018-10-15T21:46:16.043764Z,-0.586853,0.22876,-0.052673000000000005
2018-10-15T21:46:16.245764Z,-0.317932,0.291565,-0.101074
2018-10-15T21:46:16.451764Z,-0.707825,0.256042,-0.406555
2018-10-15T21:46:16.652764Z,-0.782837,0.31665,-0.7033689999999999
2018-10-15T21:46:16.845764Z,-1.016968,0.390808,0.021362
2018-10-15T21:46:17.045764Z,-1.7906490000000002,0.18866,-0.8538819999999999
2018-10-15T21:46:17.246764Z,-0.520508,0.643494,-0.267517
2018-10-15T21:46:17.446764Z,0.41900600000000005,-1.461975,1.8878169999999999
2018-10-15T21:46:17.645764Z,0.860352,-0.417725,-0.659485
2018-10-15T21:46:17.847764Z,-0.16076700000000002,0.728271,0.21936
2018-10-15T21:46:18.046764Z,-1.262939,-0.310242,0.579834
2018-10-15T21:46:18.252764Z,-0.799072,-2.102112,1.536743
2018-10-15T21:46:18.453764Z,-0.5820310000000001,-0.308777,-0.13739
2018-10-15T21:46:18.662764Z,-0.421509,-0.289856,0.028748000000000003
2018-10-15T21:46:18.846764Z,0.441528,-1.63739,0.855225
2018-10-15T21:46:19.083764Z,1.055115,-1.364441,0.21283000000000002
2018-10-15T21:46:19.253764Z,0.940796,-1.0460209999999999,-0.123474
2018-10-15T21:46:19.451764Z,1.998413,-0.7246090000000001,-0.303162
2018-10-15T21:46:19.658764Z,0.8276979999999999,-0.340515,0.684814
2018-10-15T21:46:19.849764Z,-1.208191,-0.6325069999999999,-0.440979
2018-10-15T21:46:20.053764Z,-0.352478,-0.769897,-1.098999
2018-10-15T21:46:20.245764Z,-0.770081,0.195435,-0.423401
2018-10-15T21:46:20.445764Z,-1.018311,0.6987300000000001,-0.727539
2018-10-15T21:46:20.645764Z,-0.326721,0.9489139999999999,-0.28894000000000003
2018-10-15T21:46:20.845764Z,0.698975,-0.6060180000000001,2.596924
2018-10-15T21:46:21.048764Z,1.533752,0.085022,0.878662
2018-10-15T21:46:21.245764Z,1.4857790000000002,0.514221,0.26416
2018-10-15T21:46:21.446764Z,1.1085209999999999,1.471375,-0.581909
