Datetime,accx,accy,accz
2018-10-25T20:56:07.524140Z,0.0,0.0,0.0
2018-10-25T20:56:07.723140Z,-0.036426,0.03025,-0.060522
2018-10-25T20:56:07.924140Z,0.027326999999999997,-0.866941,0.592906
2018-10-25T20:56:08.125140Z,0.49258900000000005,-1.089058,0.03254
2018-10-25T20:56:08.325140Z,0.7537729999999999,-0.218369,-0.709851
2018-10-25T20:56:08.525140Z,0.6347659999999999,0.050229,0.336802
2018-10-25T20:56:08.731140Z,0.264106,-0.16423800000000002,0.751894
2018-10-25T20:56:08.924140Z,0.351968,-0.754861,-0.045602
2018-10-25T20:56:09.126140Z,0.020771,-0.42527,-0.8929309999999999
2018-10-25T20:56:09.324140Z,-1.1875950000000002,0.261756,-0.11370999999999999
2018-10-25T20:56:09.525140Z,-1.1395680000000001,-0.268753,0.633792
2018-10-25T20:56:09.728140Z,-1.332,-0.558823,-0.138102
2018-10-25T20:56:09.927140Z,-1.643861,-0.169878,-0.618776
2018-10-25T20:56:10.126140Z,-0.855773,0.466424,-0.123742
2018-10-25T20:56:10.345140Z,-0.338264,0.056461000000000004,0.941788
2018-10-25T20:56:10.525140Z,-0.181111,-1.03457,0.396665
2018-10-25T20:56:10.725140Z,0.26865900000000004,-0.301188,-0.875891
2018-10-25T20:56:10.978140Z,0.250841,0.412861,-0.175784
2018-10-25T20:56:11.126140Z,0.293057,-0.12491600000000001,1.583753
2018-10-25T20:56:11.340140Z,1.120819,-0.481318,-0.306665
2018-10-25T20:56:11.526140Z,-0.378425,0.267994,-1.323353
2018-10-25T20:56:11.726140Z,-0.6441819999999999,0.616875,0.104092
2018-10-25T20:56:11.927140Z,-0.073934,-0.039269,1.331307
2018-10-25T20:56:12.127140Z,-0.568275,-0.151342,-0.27373400000000003
2018-10-25T20:56:12.327140Z,-0.33215,-0.146566,-1.064533
2018-10-25T20:56:12.527140Z,0.042808,0.057311,0.817141
2018-10-25T20:56:12.726140Z,0.194686,0.021761000000000003,0.828792
2018-10-25T20:56:12.928140Z,-0.272414,-0.318813,-0.764325
2018-10-25T20:56:13.128140Z,-0.167214,-0.01215,-0.9372450000000001
2018-10-25T20:56:13.327140Z,0.32021,0.16736099999999998,0.476871
2018-10-25T20:56:13.528140Z,1.9053810000000002,-0.41798100000000005,1.707455
2018-10-25T20:56:13.728140Z,2.236825,-0.467067,-0.294122
2018-10-25T20:56:13.929140Z,1.255041,0.747109,-1.309132
2018-10-25T20:56:14.129140Z,0.337039,1.239103,0.540183
2018-10-25T20:56:14.348140Z,0.579298,-0.47046099999999996,0.773762
2018-10-25T20:56:14.620140Z,0.814337,-0.594198,-0.5290560000000001
2018-10-25T20:56:14.728140Z,0.2245,-0.064809,-0.19876300000000002
2018-10-25T20:56:14.929140Z,0.308251,0.42235100000000003,0.427461
2018-10-25T20:56:15.107140Z,1.0579690000000002,-0.629376,1.083995
2018-10-25T20:56:15.321140Z,1.209302,-0.776127,1.0944049999999999
2018-10-25T20:56:15.506140Z,0.0,0.0,0.0
2018-10-25T20:56:15.708140Z,0.560913,0.353022,-0.153402
2018-10-25T20:56:15.908140Z,-0.513771,-0.8966930000000001,-0.10158500000000001
2018-10-25T20:56:16.109140Z,0.9354620000000001,-0.066237,-0.710841
2018-10-25T20:56:16.308140Z,-2.147615,0.255392,0.090134
2018-10-25T20:56:16.508140Z,-1.556227,-0.27569,0.33605799999999997
2018-10-25T20:56:16.708140Z,-0.5407850000000001,0.673679,-0.660512
2018-10-25T20:56:16.908140Z,0.265154,0.913334,-1.0713979999999999
2018-10-25T20:56:17.108140Z,0.606974,-0.5474760000000001,2.456938
2018-10-25T20:56:17.320140Z,-0.10166900000000001,-1.124017,1.242201
2018-10-25T20:56:17.508140Z,0.401289,-0.734761,-0.9855649999999999
2018-10-25T20:56:17.709140Z,-0.071339,-0.174717,-0.866749
2018-10-25T20:56:17.909140Z,-0.124599,1.048981,0.136534
2018-10-25T20:56:18.109140Z,0.095626,-0.199328,1.499156
2018-10-25T20:56:18.310140Z,0.173037,-0.42410600000000004,-1.275643
2018-10-25T20:56:18.510140Z,0.22736900000000002,0.25790100000000005,-0.255395
2018-10-25T20:56:18.855140Z,0.21393299999999998,-0.408147,1.287567
2018-10-25T20:56:19.069140Z,0.038055,-0.69539,-0.644237
2018-10-25T20:56:19.255140Z,-0.354087,-0.053519000000000004,-0.916108
2018-10-25T20:56:19.451140Z,-0.42136999999999997,0.758807,0.125888
2018-10-25T20:56:19.651140Z,-0.12091400000000001,-0.251273,1.978302
2018-10-25T20:56:19.851140Z,0.119815,-0.67724,-0.666222
2018-10-25T20:56:20.053140Z,-0.016449000000000002,0.22506500000000002,-0.600845
2018-10-25T20:56:20.256140Z,0.25966100000000003,0.537004,0.493176
2018-10-25T20:56:20.467140Z,-0.03488,-0.163372,0.331505
2018-10-25T20:56:20.654140Z,0.30040500000000003,-0.540694,-0.165883
2018-10-25T20:56:20.854140Z,-0.485518,-0.312822,-0.792586
2018-10-25T20:56:21.054140Z,-0.1447,0.850828,0.559022
2018-10-25T20:56:21.254140Z,-0.22748000000000002,-0.485266,1.349898
2018-10-25T20:56:21.455140Z,0.173974,-0.9318690000000001,-0.40470500000000004
2018-10-25T20:56:21.654140Z,0.32111300000000004,0.131261,-0.9193479999999999
2018-10-25T20:56:21.862140Z,-0.13661900000000002,0.8937120000000001,-0.193638
2018-10-25T20:56:22.056140Z,-0.165926,-0.09727100000000001,1.581458
2018-10-25T20:56:22.258140Z,0.48048599999999997,-0.788833,-0.297757
2018-10-25T20:56:22.454140Z,-0.25321,-0.312306,-1.132824
2018-10-25T20:56:22.657140Z,-0.207402,0.6903600000000001,-0.309145
2018-10-25T20:56:22.857140Z,0.037005,0.601953,1.470077
2018-10-25T20:56:23.056140Z,0.452363,-0.963931,0.336588
2018-10-25T20:56:23.256140Z,0.516885,-0.68915,-1.0009649999999999
2018-10-25T20:56:23.469140Z,0.360968,0.285051,-0.440999
2018-10-25T20:56:23.655140Z,0.7547560000000001,0.235404,1.351304
2018-10-25T20:56:23.713140Z,1.402085,0.204574,1.311916
2018-10-25T20:56:23.914140Z,1.788461,-1.595793,0.633825
2018-10-25T20:56:24.114140Z,1.163965,-1.711054,-0.44553100000000007
2018-10-25T20:56:24.316140Z,0.055720000000000006,-0.8779290000000001,-0.036206999999999996
2018-10-25T20:56:24.515140Z,-0.225958,-0.558339,0.8872129999999999
2018-10-25T20:56:24.717140Z,0.253932,-1.5701829999999999,0.194221
2018-10-25T20:56:24.932140Z,-0.6121449999999999,-1.330459,-0.345065
2018-10-25T20:56:25.114140Z,-1.271303,-0.729607,0.057262
2018-10-25T20:56:25.330140Z,-1.1695790000000001,-0.12291600000000001,0.310379
2018-10-25T20:56:25.515140Z,-1.7072919999999998,-1.935654,0.8278780000000001
2018-10-25T20:56:25.715140Z,-0.979374,-1.946092,0.056234000000000006
2018-10-25T20:56:25.916140Z,-0.8297899999999999,-1.419157,0.20872600000000002
2018-10-25T20:56:26.116140Z,-2.742969,-1.112966,0.108777
2018-10-25T20:56:26.317140Z,1.346914,-0.6880970000000001,0.906542
2018-10-25T20:56:26.516140Z,0.245493,-0.011451000000000001,0.195717
2018-10-25T20:56:26.733140Z,1.407298,0.079098,-0.297112
2018-10-25T20:56:26.916140Z,0.756275,0.077888,-0.391548
2018-10-25T20:56:27.279140Z,0.305332,0.075488,0.026311
2018-10-25T20:56:27.479140Z,0.453554,0.071187,0.053522
2018-10-25T20:56:27.679140Z,0.506095,-0.002559,0.015576
2018-10-25T20:56:27.880140Z,0.165599,0.05766,-0.126328
2018-10-25T20:56:28.080140Z,0.149701,0.050679,0.21066500000000002
2018-10-25T20:56:28.279140Z,0.26617399999999997,0.024376,-0.028696
2018-10-25T20:56:28.479140Z,0.29029499999999997,0.365361,-0.136876
2018-10-25T20:56:28.679140Z,0.019413999999999997,-0.18449200000000002,-0.180203
2018-10-25T20:56:28.880140Z,0.186445,-0.038014,-0.007906999999999999
2018-10-25T20:56:29.080140Z,0.059137,0.08468400000000001,-0.038116000000000004
2018-10-25T20:56:29.281140Z,0.206775,-0.021505,-0.23005100000000003
2018-10-25T20:56:29.481140Z,0.298912,-0.045063,-0.070613
2018-10-25T20:56:29.682140Z,0.168015,-0.008296,-0.115096
2018-10-25T20:56:29.884140Z,0.386305,-0.065289,0.18575999999999998
2018-10-25T20:56:30.080140Z,0.123396,-0.052049,-0.23575
2018-10-25T20:56:30.281140Z,0.205686,0.041882,0.12081700000000001
2018-10-25T20:56:30.494140Z,0.295798,-0.09833,-0.025885000000000002
2018-10-25T20:56:30.695140Z,0.231147,0.008284,-0.124984
2018-10-25T20:56:30.880140Z,0.08356,0.07283300000000001,-0.11473900000000001
2018-10-25T20:56:31.082140Z,0.24823800000000001,0.002786,-0.068196
2018-10-25T20:56:31.284140Z,0.24259899999999998,-0.070977,0.039251
2018-10-25T20:56:31.496140Z,0.157256,0.017661000000000003,-0.056714
2018-10-25T20:56:31.684140Z,0.10181,0.009967,-0.089229
2018-10-25T20:56:31.882140Z,0.241588,-0.05719199999999999,0.156594
2018-10-25T20:56:32.082140Z,0.677139,-0.166159,-0.173547
2018-10-25T20:56:32.121140Z,-2.081825,0.716861,-0.303741
2018-10-25T20:56:32.322140Z,-0.438064,0.105948,0.5592229999999999
2018-10-25T20:56:32.522140Z,0.361306,-0.060549,-0.01938
2018-10-25T20:56:32.722140Z,-0.125446,0.03923,0.360773
2018-10-25T20:56:32.923140Z,-0.30594099999999996,0.14651199999999998,0.260415
2018-10-25T20:56:33.159140Z,0.25175,0.029932,0.101131
2018-10-25T20:56:33.324140Z,0.9007290000000001,-0.348693,0.242414
2018-10-25T20:56:33.521140Z,1.600437,-0.589856,-0.219858
2018-10-25T20:56:33.721140Z,1.481119,-0.269492,0.07484600000000001
2018-10-25T20:56:33.921140Z,1.0826,-0.288736,0.302302
2018-10-25T20:56:34.161140Z,0.372884,-0.038939,-0.054049
2018-10-25T20:56:34.329140Z,-0.5830529999999999,0.31704299999999996,-0.5356850000000001
2018-10-25T20:56:34.522140Z,-0.047579,0.07927000000000001,-0.022206
2018-10-25T20:56:34.735140Z,0.151632,-0.029017,-0.018292
2018-10-25T20:56:34.922140Z,0.273877,-0.11877,0.054992
2018-10-25T20:56:35.124140Z,0.33063899999999996,-0.09797,0.011362
2018-10-25T20:56:35.322140Z,-0.015799,0.09352,-0.17654
2018-10-25T20:56:35.522140Z,-0.299525,0.15554,-0.315527
2018-10-25T20:56:35.746140Z,-0.261913,0.196473,-0.19659000000000001
2018-10-25T20:56:35.945140Z,-0.202598,0.18548299999999998,-0.089338
2018-10-25T20:56:36.149140Z,0.208531,-0.108418,0.090738
2018-10-25T20:56:36.347140Z,-0.112598,-0.012827000000000002,-0.005682
2018-10-25T20:56:36.544140Z,-0.019939,-0.023733,-0.044193
2018-10-25T20:56:36.745140Z,0.038636000000000004,0.013941,-0.03793
2018-10-25T20:56:36.947140Z,-0.027001999999999998,-0.002572,0.023296
2018-10-25T20:56:37.145140Z,-0.036929000000000003,0.019328,-0.037058999999999995
2018-10-25T20:56:37.356140Z,-0.049373,0.038110000000000005,0.010428
2018-10-25T20:56:37.546140Z,-0.115505,0.031007999999999997,-0.000637
2018-10-25T20:56:37.750140Z,-0.46438,0.189987,-0.189334
2018-10-25T20:56:37.949140Z,0.158353,0.032471,0.018233000000000003
2018-10-25T20:56:38.151140Z,0.12088299999999999,-0.24904,0.386524
2018-10-25T20:56:38.349140Z,1.3159040000000002,0.031529,-0.333939
2018-10-25T20:56:38.548140Z,0.297512,-0.192186,0.499533
2018-10-25T20:56:38.752140Z,0.96716,0.42870600000000003,0.088391
2018-10-25T20:56:38.949140Z,0.047743,-0.9520569999999999,0.8235540000000001
2018-10-25T20:56:39.151140Z,-0.325788,-0.223741,-0.961543
2018-10-25T20:56:39.351140Z,0.7941159999999999,0.033135000000000005,0.082255
2018-10-25T20:56:39.547140Z,-0.20443499999999998,-0.431947,0.51759
2018-10-25T20:56:39.751140Z,0.128694,-0.10843699999999999,-0.302144
2018-10-25T20:56:39.948140Z,0.404905,0.9687629999999999,-0.340803
2018-10-25T20:56:40.150140Z,-0.090397,-0.130211,1.156776
2018-10-25T20:56:40.349140Z,-0.522649,-1.758029,1.075224
2018-10-25T20:56:40.552140Z,-0.046311,-1.413152,-0.655867
2018-10-25T20:56:40.726140Z,-0.406145,-0.289216,-0.712209
2018-10-25T20:56:40.925140Z,-0.027937,0.7171850000000001,0.381272
2018-10-25T20:56:41.127140Z,-0.193227,-0.943693,1.409458
2018-10-25T20:56:41.326140Z,0.7658699999999999,-1.14133,-0.39611199999999996
2018-10-25T20:56:41.528140Z,-0.051358,-0.577951,-0.751689
2018-10-25T20:56:41.729140Z,-0.6733899999999999,0.444816,0.714083
2018-10-25T20:56:41.928140Z,-1.547763,-0.6560590000000001,0.786922
2018-10-25T20:56:42.128140Z,-0.660303,-1.150066,-0.6028479999999999
2018-10-25T20:56:42.328140Z,-0.200652,0.000337,-0.237206
2018-10-25T20:56:42.530140Z,0.22408499999999998,0.086394,1.224077
2018-10-25T20:56:42.729140Z,1.3223559999999999,-1.024404,0.619039
2018-10-25T20:56:42.933140Z,0.684373,-0.579711,-1.040865
2018-10-25T20:56:43.129140Z,0.268052,0.882295,-0.318923
2018-10-25T20:56:43.329140Z,-0.8914549999999999,-0.6723100000000001,1.800676
2018-10-25T20:56:43.529140Z,-0.09887699999999999,-1.386678,-0.194761
2018-10-25T20:56:43.729140Z,0.341444,-0.014815,-0.5413220000000001
2018-10-25T20:56:43.929140Z,0.242759,0.43328999999999995,0.6293340000000001
2018-10-25T20:56:44.211140Z,0.392106,-0.678814,0.69855
2018-10-25T20:56:44.411140Z,0.403721,-0.797481,-0.533801
2018-10-25T20:56:44.625140Z,0.24212399999999998,-0.018126,-0.489208
2018-10-25T20:56:44.827140Z,-0.183252,0.259175,1.225084
2018-10-25T20:56:45.012140Z,-0.28952,-0.81986,0.315269
2018-10-25T20:56:45.216140Z,0.029885000000000002,-0.158397,-1.062318
2018-10-25T20:56:45.412140Z,0.1834,0.164129,0.279452
2018-10-25T20:56:45.613140Z,-0.056412000000000004,-0.054502999999999996,1.699316
2018-10-25T20:56:45.814140Z,0.831368,-1.3554190000000002,0.059615999999999995
2018-10-25T20:56:46.015140Z,0.23151799999999997,-0.352823,-1.3680430000000001
2018-10-25T20:56:46.214140Z,-0.164049,0.40841,0.352497
2018-10-25T20:56:46.463140Z,-0.36645700000000003,-0.577431,1.6662240000000001
2018-10-25T20:56:46.613140Z,-0.512288,-0.49722799999999995,-1.005422
2018-10-25T20:56:46.823140Z,-0.909293,-0.074325,-0.9136540000000001
2018-10-25T20:56:47.012140Z,-0.184842,0.711735,0.52747
2018-10-25T20:56:47.213140Z,0.134978,-0.41210399999999997,0.952375
2018-10-25T20:56:47.430140Z,-0.483675,-0.7426729999999999,-0.212283
2018-10-25T20:56:47.614140Z,-0.413149,0.144449,-0.422254
2018-10-25T20:56:47.815140Z,0.282947,0.030185000000000003,1.621909
2018-10-25T20:56:48.093140Z,-0.124002,-1.105424,-0.301417
2018-10-25T20:56:48.214140Z,-0.153361,-0.239537,-1.166345
2018-10-25T20:56:48.415140Z,-0.058671,1.202668,-0.158115
2018-10-25T20:56:48.615140Z,0.27924,-0.201173,1.340188
2018-10-25T20:56:48.816140Z,0.140837,-0.40582399999999996,-0.654397
2018-10-25T20:56:49.016140Z,-0.290878,-0.16758699999999999,-0.634235
2018-10-25T20:56:49.216140Z,0.683429,1.234572,0.503156
2018-10-25T20:56:49.415140Z,0.680301,-0.6090800000000001,0.991717
2018-10-25T20:56:49.637140Z,0.17635699999999999,-0.87074,-0.9050290000000001
2018-10-25T20:56:49.815140Z,0.05031,0.31548000000000004,-0.400119
2018-10-25T20:56:50.015140Z,0.070653,0.76315,0.8124319999999999
2018-10-25T20:56:50.216140Z,0.616695,-0.7722439999999999,0.617792
2018-10-25T20:56:50.415140Z,0.09940299999999999,-0.346352,-1.092307
2018-10-25T20:56:50.616140Z,0.10248199999999999,0.373764,-0.130297
2018-10-25T20:56:50.817140Z,0.134425,0.21420100000000003,1.471752
2018-10-25T20:56:51.018140Z,0.103145,-0.8679629999999999,0.000322
2018-10-25T20:56:51.217140Z,-0.327816,-0.42548100000000005,-0.668312
2018-10-25T20:56:51.418140Z,-0.764608,-0.094385,0.32211100000000004
2018-10-25T20:56:51.617140Z,-0.011687999999999999,-0.33860300000000004,0.853518
2018-10-25T20:56:51.817140Z,0.66776,-0.810207,-0.070031
2018-10-25T20:56:52.017140Z,0.72344,-0.292545,-0.609349
2018-10-25T20:56:52.217140Z,0.089501,0.8022090000000001,-0.548324
2018-10-25T20:56:52.418140Z,-0.318348,0.6227189999999999,0.802389
2018-10-25T20:56:52.617140Z,-0.007882,-0.830608,0.690483
2018-10-25T20:56:52.818140Z,-0.477013,-0.14389200000000002,-1.040849
2018-10-25T20:56:53.019140Z,-0.897149,0.48792700000000006,-0.702912
2018-10-25T20:56:53.239140Z,-0.20688299999999998,1.120068,0.757925
2018-10-25T20:56:53.419140Z,0.7592939999999999,-1.253832,1.597458
2018-10-25T20:56:53.620140Z,0.106175,-0.5500079999999999,-1.5110370000000002
2018-10-25T20:56:53.819140Z,-0.380148,-0.012618,-0.5356489999999999
2018-10-25T20:56:54.020140Z,0.632698,0.523546,1.076088
2018-10-25T20:56:54.236140Z,0.206958,-1.030492,1.026007
2018-10-25T20:56:54.423140Z,0.33209299999999997,-0.665245,-1.152555
2018-10-25T20:56:54.619140Z,-1.1532440000000002,0.976663,-0.8390799999999999
2018-10-25T20:56:54.819140Z,-1.583392,0.684684,1.389987
2018-10-25T20:56:55.018140Z,-1.110703,-1.1791399999999999,-0.34875700000000004
2018-10-25T20:56:55.220140Z,-0.7973899999999999,-0.795802,-1.143057
2018-10-25T20:56:55.424140Z,0.002338,0.749074,0.33767199999999997
2018-10-25T20:56:55.622140Z,0.734496,0.05354400000000001,1.990109
2018-10-25T20:56:55.821140Z,0.54771,-1.30587,0.25452800000000003
2018-10-25T20:56:56.021140Z,1.57785,-0.6638649999999999,-0.52649
2018-10-25T20:56:56.222140Z,-0.018956,0.846292,-0.5654819999999999
2018-10-25T20:56:56.423140Z,0.13989000000000001,0.276752,0.8386950000000001
2018-10-25T20:56:56.621140Z,0.049323,-0.168416,-0.9460379999999999
2018-10-25T20:56:56.821140Z,0.038292,0.396698,-0.244914
2018-10-25T20:56:57.021140Z,0.50002,0.459855,0.891125
2018-10-25T20:56:57.261140Z,0.496965,-0.7004100000000001,-0.115191
2018-10-25T20:56:57.435140Z,0.44756899999999994,-0.153071,-1.26512
2018-10-25T20:56:57.621140Z,0.332901,0.685661,1.034625
2018-10-25T20:56:57.821140Z,1.47691,-0.475342,1.092573
2018-10-25T20:56:58.022140Z,0.8579389999999999,-0.6502399999999999,-0.667755
2018-10-25T20:56:58.223140Z,0.6127100000000001,-0.075908,-0.20725900000000003
2018-10-25T20:56:58.422140Z,-0.097582,0.8063819999999999,0.48645900000000003
2018-10-25T20:56:58.621140Z,-0.36285300000000004,-0.716458,1.188451
2018-10-25T20:56:58.823140Z,-0.040668,-1.537669,-0.435709
2018-10-25T20:56:59.024140Z,-0.607259,-0.17614200000000002,-0.66418
2018-10-25T20:56:59.238140Z,-0.011170000000000001,0.145701,1.381888
2018-10-25T20:56:59.423140Z,0.480361,-1.480743,0.8535709999999999
2018-10-25T20:56:59.634140Z,0.454635,-0.6998770000000001,-0.9805799999999999
2018-10-25T20:56:59.868140Z,0.46182399999999996,-0.113923,-0.23005100000000003
2018-10-25T20:57:00.023140Z,0.16033,0.5925819999999999,0.801818
2018-10-25T20:57:00.223140Z,-0.347073,-1.5611,1.160572
2018-10-25T20:57:00.424140Z,0.45724799999999993,-1.1395790000000001,-0.587036
2018-10-25T20:57:00.624140Z,0.502908,-0.254713,-0.10535699999999999
2018-10-25T20:57:00.842140Z,-0.7199760000000001,0.093266,0.875441
2018-10-25T20:57:01.024140Z,-0.165052,-1.312209,0.687175
2018-10-25T20:57:01.225140Z,0.03497,-1.136575,-1.527782
2018-10-25T20:57:01.425140Z,0.102255,0.056159,0.86767
2018-10-25T20:57:01.661140Z,-1.50645,-0.080974,0.803148
2018-10-25T20:57:01.866140Z,-1.660236,-1.4097,0.037397
2018-10-25T20:57:02.026140Z,0.216685,-0.256176,-1.513569
2018-10-25T20:57:02.265140Z,0.411207,-0.734956,0.8977809999999999
2018-10-25T20:57:02.425140Z,0.004569,-0.6076189999999999,1.311739
2018-10-25T20:57:02.626140Z,-0.291426,-0.944581,-0.538157
2018-10-25T20:57:02.826140Z,1.3246930000000001,-0.047649000000000004,-0.453584
2018-10-25T20:57:03.027140Z,-0.021862,0.978447,0.034558
2018-10-25T20:57:03.227140Z,-0.210184,-0.832118,2.038593
2018-10-25T20:57:03.427140Z,0.543868,-1.5244280000000001,-0.702017
2018-10-25T20:57:03.630140Z,0.836658,0.250422,-1.196733
2018-10-25T20:57:03.827140Z,-1.7811990000000002,0.964874,-0.314283
2018-10-25T20:57:04.027140Z,-0.323231,-0.5479149999999999,1.9684380000000001
2018-10-25T20:57:04.230140Z,-0.23957399999999998,-0.924054,-0.6940270000000001
2018-10-25T20:57:04.426140Z,-0.631015,0.268402,-1.469911
2018-10-25T20:57:04.627140Z,0.271524,0.8332510000000001,0.580383
2018-10-25T20:57:04.829140Z,-0.294521,-1.0635459999999999,2.291678
2018-10-25T20:57:05.029140Z,0.568728,-1.905557,-0.573254
2018-10-25T20:57:05.227140Z,1.271829,0.067281,-0.49910200000000005
2018-10-25T20:57:05.438140Z,0.275903,1.148908,0.149455
2018-10-25T20:57:05.628140Z,0.379869,-0.6494840000000001,1.6511639999999999
2018-10-25T20:57:05.828140Z,1.3354489999999999,-1.65126,-0.227692
2018-10-25T20:57:06.029140Z,0.647848,-0.090156,-0.540309
2018-10-25T20:57:06.229140Z,-1.173301,-0.792748,1.9812029999999998
2018-10-25T20:57:06.431140Z,0.528568,-2.364383,1.0484870000000002
2018-10-25T20:57:06.656140Z,0.129198,-1.453732,-1.2281739999999999
2018-10-25T20:57:06.829140Z,0.295601,0.411896,-0.118953
2018-10-25T20:57:07.028140Z,-0.929213,-0.126533,1.621841
2018-10-25T20:57:07.229140Z,-0.5204270000000001,-1.586062,-0.245061
2018-10-25T20:57:07.443140Z,0.26213600000000004,-0.6300640000000001,-0.647007
2018-10-25T20:57:07.629140Z,-0.254117,0.117593,0.559373
2018-10-25T20:57:07.831140Z,0.32309099999999996,-1.192183,2.186415
2018-10-25T20:57:08.054140Z,0.268148,-1.845806,-0.538063
2018-10-25T20:57:08.230140Z,0.093812,-0.10998699999999999,-0.7104560000000001
2018-10-25T20:57:08.431140Z,-0.408095,0.163995,0.590386
2018-10-25T20:57:08.645140Z,-0.47145699999999996,-0.8311,0.9390200000000001
2018-10-25T20:57:08.831140Z,-0.387135,-1.090816,-0.40785
2018-10-25T20:57:09.030140Z,-0.176673,-0.43921099999999996,-0.436321
2018-10-25T20:57:09.231140Z,-1.108991,1.074011,0.733891
2018-10-25T20:57:09.432140Z,0.42647700000000005,-1.768441,1.376636
2018-10-25T20:57:09.632140Z,-0.062326,-1.404867,-0.606842
2018-10-25T20:57:09.832140Z,0.263223,0.28268899999999997,-0.5803689999999999
2018-10-25T20:57:10.031140Z,0.078109,0.197105,0.88108
2018-10-25T20:57:10.232140Z,0.31158600000000003,-0.916322,1.198947
2018-10-25T20:57:10.445140Z,0.293496,-1.067508,-1.002091
2018-10-25T20:57:10.646140Z,-0.116371,0.414192,-0.6853899999999999
2018-10-25T20:57:10.847140Z,-0.48953900000000006,0.767675,0.9431579999999999
2018-10-25T20:57:11.032140Z,-0.3993,-0.785927,1.135522
2018-10-25T20:57:11.233140Z,-0.11990999999999999,-0.8888209999999999,-1.171445
2018-10-25T20:57:11.433140Z,0.071845,0.192304,-0.049837
2018-10-25T20:57:11.633140Z,-0.203306,0.816455,0.994885
2018-10-25T20:57:11.834140Z,0.339044,-1.224397,0.532151
2018-10-25T20:57:12.035140Z,0.061789,-0.511475,-1.080709
2018-10-25T20:57:12.235140Z,-0.19775299999999998,0.20919000000000001,-0.079996
2018-10-25T20:57:12.432140Z,-0.160064,0.571675,1.610467
2018-10-25T20:57:12.648140Z,-0.20136300000000001,-1.191857,-0.125117
2018-10-25T20:57:12.833140Z,-0.111543,-0.39005500000000004,-0.888748
2018-10-25T20:57:13.037140Z,-0.297077,0.845247,-0.24854400000000001
2018-10-25T20:57:13.233140Z,0.446171,0.28174899999999997,1.45098
2018-10-25T20:57:13.453140Z,0.36175,-1.1144290000000001,0.063149
2018-10-25T20:57:13.635140Z,-0.030247000000000003,0.12523499999999999,-1.276691
2018-10-25T20:57:13.834140Z,-0.152325,0.49021499999999996,0.508741
2018-10-25T20:57:14.037140Z,0.492651,-0.41238100000000005,1.9433919999999998
2018-10-25T20:57:14.234140Z,0.116898,-1.1703649999999999,-0.788234
2018-10-25T20:57:14.434140Z,0.426509,0.333504,-1.055915
2018-10-25T20:57:14.635140Z,-0.589218,0.676646,0.272135
2018-10-25T20:57:14.834140Z,-0.494588,-0.32882100000000003,1.706621
2018-10-25T20:57:15.035140Z,0.242823,-1.3202559999999999,-0.839543
2018-10-25T20:57:15.234140Z,-0.167927,0.21801700000000002,-0.9988
2018-10-25T20:57:15.436140Z,-0.14432799999999998,1.171717,1.4344700000000001
2018-10-25T20:57:15.636140Z,-0.304322,-1.112296,0.590775
2018-10-25T20:57:15.836140Z,0.551207,-0.529452,-1.180177
2018-10-25T20:57:16.035140Z,0.13252,0.514783,-0.49640100000000004
2018-10-25T20:57:16.236140Z,-0.422942,0.813657,1.253119
2018-10-25T20:57:16.436140Z,-0.009155,-1.246622,0.28829899999999997
2018-10-25T20:57:16.636140Z,0.120235,-0.296055,-1.2443
2018-10-25T20:57:16.837140Z,0.195037,0.603811,-0.262246
2018-10-25T20:57:17.038140Z,-0.084307,0.9217040000000001,1.6629639999999999
2018-10-25T20:57:17.239140Z,0.012386,-1.6022379999999998,0.262895
2018-10-25T20:57:17.439140Z,0.165542,-0.177602,-1.536022
2018-10-25T20:57:17.658140Z,-0.054402,0.048813999999999996,0.8422709999999999
2018-10-25T20:57:17.837140Z,0.061852,-0.002462,1.148902
2018-10-25T20:57:18.037140Z,-0.031387,-0.624595,-0.8695
2018-10-25T20:57:18.238140Z,0.003083,0.06046,-0.8113739999999999
2018-10-25T20:57:18.438140Z,-0.669927,0.272013,-0.29923299999999997
2018-10-25T20:57:18.638140Z,-0.5048239999999999,0.620522,1.263217
2018-10-25T20:57:18.839140Z,-0.677363,-0.936174,0.150114
2018-10-25T20:57:19.040140Z,-0.839924,-0.28988400000000003,-1.099853
2018-10-25T20:57:19.239140Z,-0.247916,0.318524,0.026217
2018-10-25T20:57:19.439140Z,0.190107,1.203501,0.8801040000000001
2018-10-25T20:57:19.640140Z,0.785115,-0.8453120000000001,0.48417899999999997
2018-10-25T20:57:19.886140Z,0.692244,-0.332039,-1.1772610000000001
2018-10-25T20:57:20.039140Z,0.065345,0.42522200000000004,-0.486964
2018-10-25T20:57:20.239140Z,0.577932,0.257849,1.900538
2018-10-25T20:57:20.439140Z,1.416965,-0.615571,-0.804057
2018-10-25T20:57:20.639140Z,1.7348720000000002,0.35585900000000004,-0.648109
2018-10-25T20:57:20.840140Z,-0.450057,1.191109,0.100548
2018-10-25T20:57:21.041140Z,-0.272214,-0.582969,1.9585830000000002
2018-10-25T20:57:21.242140Z,0.8485729999999999,-1.36885,-0.445321
2018-10-25T20:57:21.465140Z,-0.315153,-0.07609099999999999,-1.571032
2018-10-25T20:57:21.641140Z,-0.186778,0.735927,0.018403
2018-10-25T20:57:21.841140Z,-0.758524,0.317833,1.382652
2018-10-25T20:57:22.041140Z,-0.15074400000000002,-1.067117,-0.099393
2018-10-25T20:57:22.258140Z,-0.07713500000000001,-0.157049,-1.313503
2018-10-25T20:57:22.459140Z,-0.897242,0.655794,0.5055649999999999
2018-10-25T20:57:22.643140Z,0.532974,-0.444626,1.329249
2018-10-25T20:57:22.851140Z,0.7066939999999999,-0.857751,-0.66361
2018-10-25T20:57:23.045140Z,-0.267084,0.279843,-1.164045
2018-10-25T20:57:23.241140Z,-0.634139,0.993627,0.9233290000000001
2018-10-25T20:57:23.454140Z,-0.055787,-1.018887,0.8296399999999999
2018-10-25T20:57:23.642140Z,0.273306,-0.7627430000000001,-1.111
2018-10-25T20:57:23.842140Z,0.125606,0.912259,-0.369329
2018-10-25T20:57:24.044140Z,-0.48440600000000006,0.464207,1.617624
2018-10-25T20:57:24.249140Z,0.612711,-1.663301,0.369804
2018-10-25T20:57:24.442140Z,0.873801,-0.343171,-0.9687180000000001
2018-10-25T20:57:24.642140Z,0.588144,0.605669,-0.430148
2018-10-25T20:57:24.842140Z,1.043274,-1.039701,2.0788130000000002
2018-10-25T20:57:25.042140Z,1.4184709999999998,-1.668348,-0.528767
2018-10-25T20:57:25.242140Z,-0.165736,-0.9352450000000001,-0.643419
2018-10-25T20:57:25.447140Z,-0.8404739999999999,0.121575,0.841076
2018-10-25T20:57:25.645140Z,-0.31121,-0.9430430000000001,1.434346
2018-10-25T20:57:25.845140Z,0.48551300000000003,-1.5061309999999999,-0.280967
2018-10-25T20:57:26.044140Z,-0.256436,-0.34920500000000004,-0.8151430000000001
2018-10-25T20:57:26.245140Z,-0.034041,0.696843,0.9452709999999999
2018-10-25T20:57:26.443140Z,0.285467,-2.173674,1.589437
2018-10-25T20:57:26.643140Z,0.477749,-0.591331,-1.589153
2018-10-25T20:57:26.858140Z,-0.22958699999999999,-0.165838,-0.002741
2018-10-25T20:57:27.044140Z,-0.927376,0.6112569999999999,0.49414399999999997
2018-10-25T20:57:27.245140Z,-0.06352100000000001,-1.376522,1.011144
2018-10-25T20:57:27.444140Z,-0.36789499999999997,-0.7345109999999999,-0.790561
2018-10-25T20:57:27.645140Z,-0.19270299999999999,0.210883,-0.840302
2018-10-25T20:57:27.846140Z,0.22812,0.39624899999999996,1.901489
2018-10-25T20:57:28.045140Z,-0.032596,-1.305526,0.156385
2018-10-25T20:57:28.246140Z,-0.6021449999999999,-0.958908,-0.746679
2018-10-25T20:57:28.445140Z,-0.228456,-0.109627,0.331315
2018-10-25T20:57:28.647140Z,0.628162,-0.0777,1.2352049999999999
2018-10-25T20:57:28.860140Z,0.690209,-1.350583,-0.271505
2018-10-25T20:57:29.045140Z,-0.403105,-0.28889899999999996,-1.096231
2018-10-25T20:57:29.245140Z,-0.45410500000000004,0.384328,0.104111
2018-10-25T20:57:29.447140Z,-0.16877,-0.035983999999999995,1.680691
2018-10-25T20:57:29.649140Z,0.02773,-1.505701,0.10087
2018-10-25T20:57:29.848140Z,-0.1544,-0.142521,-1.1476979999999999
2018-10-25T20:57:30.047140Z,-0.210725,0.38275,0.356553
2018-10-25T20:57:30.249140Z,0.034686,-0.102354,1.190249
2018-10-25T20:57:30.525140Z,0.477529,-1.1704450000000002,-0.23293000000000003
2018-10-25T20:57:30.647140Z,-0.13561900000000002,0.023762000000000002,-1.388829
2018-10-25T20:57:30.860140Z,-0.153594,0.513247,0.71958
2018-10-25T20:57:31.046140Z,0.018803,-0.8381930000000001,1.330078
2018-10-25T20:57:31.248140Z,-0.288835,-1.056351,-0.5270779999999999
2018-10-25T20:57:31.465140Z,-0.024118,-0.003031,-0.603121
2018-10-25T20:57:31.650140Z,-0.489853,0.637537,0.525141
2018-10-25T20:57:31.850140Z,0.5759029999999999,-0.9450299999999999,1.214127
2018-10-25T20:57:32.050140Z,0.08867,-0.605585,-0.7935989999999999
2018-10-25T20:57:32.249140Z,0.107401,-0.178602,-0.45110100000000003
2018-10-25T20:57:32.456140Z,-0.104979,0.30708,0.598841
2018-10-25T20:57:32.706140Z,1.189924,-0.47842799999999996,0.954591
2018-10-25T20:57:32.850140Z,1.516118,-1.7045119999999998,-0.12328399999999999
2018-10-25T20:57:33.048140Z,1.659244,-1.2611219999999999,-0.31569
2018-10-25T20:57:33.249140Z,0.756368,0.10594200000000001,0.274863
2018-10-25T20:57:33.449140Z,-0.026366000000000004,-0.75585,1.364758
2018-10-25T20:57:33.653140Z,0.847023,-1.162714,-0.237235
2018-10-25T20:57:33.853140Z,-0.6079899999999999,-0.9366399999999999,-0.878333
2018-10-25T20:57:34.049140Z,0.020361,1.248441,0.523546
2018-10-25T20:57:34.251140Z,-0.605375,-1.041563,0.8971819999999999
2018-10-25T20:57:34.451140Z,0.11936300000000001,-1.2020469999999999,-1.110767
2018-10-25T20:57:34.651140Z,-0.04459,0.807769,0.21956399999999998
2018-10-25T20:57:34.858140Z,0.12030199999999999,-0.8330190000000001,1.124135
2018-10-25T20:57:35.051140Z,0.403935,-0.851276,-1.492053
2018-10-25T20:57:35.251140Z,-0.395805,0.0569,1.527971
2018-10-25T20:57:35.465140Z,0.109741,-1.266022,0.272907
2018-10-25T20:57:35.681140Z,0.028251,-1.0026,-1.2980120000000002
2018-10-25T20:57:35.852140Z,-0.407846,0.002843,2.349384
2018-10-25T20:57:36.052140Z,0.45551,-1.339795,-1.256787
2018-10-25T20:57:36.252140Z,-0.113594,0.075225,-0.572879
2018-10-25T20:57:36.451140Z,-0.22222199999999998,-0.797061,2.29114
2018-10-25T20:57:36.654140Z,0.297008,-1.1555010000000001,-1.835131
2018-10-25T20:57:36.852140Z,-0.023979,0.847458,0.290236
2018-10-25T20:57:37.067140Z,0.5004390000000001,-0.308882,1.446112
2018-10-25T20:57:37.268140Z,0.131693,-0.9300889999999999,-1.446401
2018-10-25T20:57:37.452140Z,-0.24173699999999998,0.532654,0.46128
2018-10-25T20:57:37.652140Z,0.040554,-0.696101,1.275136
2018-10-25T20:57:37.855140Z,0.6072890000000001,-1.029089,-1.181984
2018-10-25T20:57:38.055140Z,0.5802510000000001,0.280903,1.43585
2018-10-25T20:57:38.265140Z,0.619296,-1.230478,0.208116
2018-10-25T20:57:38.454140Z,-0.580834,-0.567398,-1.334355
2018-10-25T20:57:38.653140Z,-0.983817,0.037256,1.518024
2018-10-25T20:57:38.853140Z,-1.426743,-0.213371,-1.036445
2018-10-25T20:57:39.054140Z,-0.55152,-0.636289,0.066638
2018-10-25T20:57:39.254140Z,0.106873,-0.11030799999999999,1.6156629999999998
2018-10-25T20:57:39.453140Z,-0.46474499999999996,-0.8325899999999999,-1.048461
2018-10-25T20:57:39.654140Z,-0.277998,0.243575,-0.785705
2018-10-25T20:57:39.854140Z,-1.6195110000000001,-0.054361,2.039778
2018-10-25T20:57:40.054140Z,-0.18912400000000001,-1.064929,-0.899223
2018-10-25T20:57:40.255140Z,-0.139048,0.084661,-0.254579
2018-10-25T20:57:40.455140Z,0.821615,0.466887,1.222841
2018-10-25T20:57:40.664140Z,0.48618500000000003,-0.581967,-1.3279809999999999
2018-10-25T20:57:40.855140Z,0.568055,1.080478,-0.296591
2018-10-25T20:57:41.057140Z,0.165549,-0.268902,1.900975
2018-10-25T20:57:41.259140Z,-0.344949,-0.586266,-1.822418
2018-10-25T20:57:41.456140Z,0.5938859999999999,0.691716,0.538431
2018-10-25T20:57:41.657140Z,2.3440369999999997,-0.408328,1.3505989999999999
2018-10-25T20:57:41.857140Z,0.602971,-0.502635,-1.3741299999999999
2018-10-25T20:57:42.080140Z,-0.20085899999999998,0.292715,1.8638580000000002
2018-10-25T20:57:42.256140Z,-0.314357,-0.803774,-1.26318
2018-10-25T20:57:42.458140Z,-0.741083,0.011214,-0.501704
2018-10-25T20:57:42.657140Z,-0.58292,0.238242,1.388936
2018-10-25T20:57:42.857140Z,0.880466,-0.708566,-0.8445389999999999
2018-10-25T20:57:43.057140Z,-0.310313,0.04261,0.221975
2018-10-25T20:57:43.258140Z,-0.201308,-0.353637,1.106095
2018-10-25T20:57:43.458140Z,0.046488999999999996,-0.954119,-1.6725709999999998
2018-10-25T20:57:43.658140Z,-0.274862,1.140857,-0.42031499999999994
2018-10-25T20:57:43.879140Z,-0.811739,-0.657353,0.917385
2018-10-25T20:57:44.058140Z,-1.224652,0.063752,-0.646548
2018-10-25T20:57:44.259140Z,-1.7940369999999999,-0.197214,1.128101
2018-10-25T20:57:44.457140Z,-1.607859,0.010806,-1.3213139999999999
2018-10-25T20:57:44.658140Z,-0.152278,-0.001341,-0.194948
2018-10-25T20:57:44.860140Z,1.602325,0.090237,1.6543299999999999
2018-10-25T20:57:45.059140Z,0.708684,-0.06489299999999999,-0.901868
2018-10-25T20:57:45.275140Z,0.271884,0.464554,-0.235585
2018-10-25T20:57:45.459140Z,0.337525,-0.171004,1.173624
2018-10-25T20:57:45.659140Z,1.167545,-0.543046,-1.7461959999999999
2018-10-25T20:57:45.858140Z,0.194929,1.27181,0.553376
2018-10-25T20:57:46.059140Z,1.335575,0.444988,0.8919450000000001
2018-10-25T20:57:46.260140Z,0.497044,-0.8321729999999999,-0.819132
2018-10-25T20:57:46.461140Z,-0.070621,-0.22541399999999998,1.6388919999999998
2018-10-25T20:57:46.661140Z,-0.049124,-0.478033,-0.7600979999999999
2018-10-25T20:57:46.860140Z,-0.181802,-0.23350100000000001,-0.806843
2018-10-25T20:57:47.061140Z,0.36814,0.379682,1.678936
2018-10-25T20:57:47.260140Z,0.641958,-0.34924299999999997,-1.093513
2018-10-25T20:57:47.461140Z,-0.479232,-0.179039,-0.279937
2018-10-25T20:57:47.661140Z,-0.363282,0.036004,1.412795
2018-10-25T20:57:47.862140Z,-0.053702,-0.9412370000000001,-1.437872
2018-10-25T20:57:48.061140Z,0.743951,0.341064,1.2015069999999999
2018-10-25T20:57:48.280140Z,0.45256899999999994,-0.909107,0.698291
2018-10-25T20:57:48.462140Z,0.050319,-1.020463,-0.6806770000000001
2018-10-25T20:57:48.661140Z,-0.342942,-0.8623719999999999,1.155101
2018-10-25T20:57:48.861140Z,-0.275973,-1.556909,0.006186
2018-10-25T20:57:49.062140Z,-0.29359,-0.938456,0.216757
2018-10-25T20:57:49.262140Z,-0.561294,-0.150293,-0.076838
2018-10-25T20:57:49.464140Z,-0.399276,-0.41060399999999997,0.253214
2018-10-25T20:57:49.664140Z,-0.24445799999999998,-0.025141,-0.281058
2018-10-25T20:57:49.864140Z,0.175783,0.36494299999999996,-0.16844
2018-10-25T20:57:50.063140Z,0.547999,0.457737,0.663425
2018-10-25T20:57:50.262140Z,0.38927,-0.183647,0.6861970000000001
2018-10-25T20:57:50.462140Z,0.018451,-0.199049,-0.346093
2018-10-25T20:57:50.680140Z,-0.6514939999999999,0.253838,-0.419939
2018-10-25T20:57:50.863140Z,-1.4406379999999999,0.6146739999999999,0.340725
2018-10-25T20:57:51.064140Z,-1.2957379999999998,-0.445417,0.510568
2018-10-25T20:57:51.264140Z,0.514257,-0.698335,-0.182672
2018-10-25T20:57:51.464140Z,0.7437090000000001,-0.171106,-0.8464729999999999
2018-10-25T20:57:51.665140Z,0.204157,1.066864,-0.697451
2018-10-25T20:57:51.868140Z,0.634189,1.4802739999999999,0.09996100000000001
2018-10-25T20:57:52.064140Z,0.09853300000000001,1.156034,-0.07044
2018-10-25T20:57:52.267140Z,1.340833,-0.6390779999999999,-0.478558
2018-10-25T20:57:52.502140Z,0.049191000000000006,0.753691,-0.713907
2018-10-25T20:57:52.664140Z,-1.543524,0.60969,0.930745
2018-10-25T20:57:52.864140Z,-0.682844,0.033061,-0.9622780000000001
2018-10-25T20:57:53.064140Z,-0.5478970000000001,0.629522,0.20180399999999998
2018-10-25T20:57:53.265140Z,0.47845600000000005,-0.238763,1.121608
2018-10-25T20:57:53.465140Z,0.4617,-0.38582,-1.404362
2018-10-25T20:57:53.665140Z,-0.25643299999999997,0.536958,0.6237
2018-10-25T20:57:53.866140Z,-0.43252799999999997,-0.287675,0.617877
2018-10-25T20:57:54.065140Z,-0.703907,-0.899416,-0.916206
2018-10-25T20:57:54.265140Z,-0.551488,-0.152063,1.257125
2018-10-25T20:57:54.466140Z,-1.25845,-0.9368049999999999,0.102967
2018-10-25T20:57:54.666140Z,-1.820671,-1.003176,-0.13415
2018-10-25T20:57:54.866140Z,-0.817983,-1.1598600000000001,0.652321
2018-10-25T20:57:55.067140Z,0.14978699999999998,-0.978942,-0.31658000000000003
2018-10-25T20:57:55.265140Z,-0.210573,0.677357,0.510513
2018-10-25T20:57:55.468140Z,0.524764,-1.091577,1.3530879999999998
2018-10-25T20:57:55.666140Z,1.283906,-0.8209870000000001,-0.6209210000000001
2018-10-25T20:57:55.866140Z,-0.076414,-0.001472,-0.9620559999999999
2018-10-25T20:57:56.106140Z,-0.989376,-0.75031,1.802225
2018-10-25T20:57:56.267140Z,-0.299492,-1.74046,-0.9135979999999999
2018-10-25T20:57:56.468140Z,-0.042069,-0.105493,0.738498
2018-10-25T20:57:56.667140Z,1.484269,-0.636634,1.250333
2018-10-25T20:57:56.885140Z,0.394079,-0.7479939999999999,-0.944011
2018-10-25T20:57:57.069140Z,-0.42578299999999997,-0.317182,0.431026
2018-10-25T20:57:57.311140Z,-0.760091,-0.937684,1.0141149999999999
2018-10-25T20:57:57.468140Z,-0.8631479999999999,-1.699184,-0.723256
2018-10-25T20:57:57.668140Z,0.522516,-0.08106000000000001,0.661388
2018-10-25T20:57:57.867140Z,1.009591,-0.6675300000000001,0.5292789999999999
2018-10-25T20:57:58.069140Z,0.601318,-0.690789,-1.060062
2018-10-25T20:57:58.270140Z,0.227385,0.114631,1.287421
2018-10-25T20:57:58.469140Z,0.46097200000000005,-0.8126399999999999,0.372313
2018-10-25T20:57:58.670140Z,0.545565,-1.158239,-0.9142600000000001
2018-10-25T20:57:58.888140Z,2.256729,0.12430999999999999,1.5573549999999998
2018-10-25T20:57:59.073140Z,2.051679,-0.9840120000000001,-0.33658499999999997
2018-10-25T20:57:59.286140Z,1.398433,-0.15246300000000002,-0.466372
2018-10-25T20:57:59.472140Z,1.9528599999999998,0.063894,1.2298950000000002
2018-10-25T20:57:59.671140Z,1.256105,-0.8391719999999999,-0.832206
2018-10-25T20:57:59.887140Z,0.040465,0.18716,-0.223044
2018-10-25T20:58:00.071140Z,0.643586,0.318949,1.429676
2018-10-25T20:58:00.281140Z,0.74679,-1.52388,-0.672737
2018-10-25T20:58:00.471140Z,-0.8493139999999999,0.22410500000000003,-0.813876
2018-10-25T20:58:00.672140Z,-0.612426,0.023538999999999997,2.0339
2018-10-25T20:58:00.870140Z,1.026346,-0.5327930000000001,-1.460231
2018-10-25T20:58:01.071140Z,-0.733264,0.560855,-0.262281
2018-10-25T20:58:01.273140Z,0.28279099999999996,-0.255114,2.283891
2018-10-25T20:58:01.472140Z,-0.079057,-0.894015,-1.7343389999999999
2018-10-25T20:58:01.672140Z,-0.43313199999999996,0.46372700000000006,0.72309
2018-10-25T20:58:01.881140Z,0.380546,-0.215408,0.45866599999999996
2018-10-25T20:58:02.074140Z,-0.478867,-0.777395,-1.361588
2018-10-25T20:58:02.272140Z,-0.219744,0.42282299999999995,1.095218
2018-10-25T20:58:02.485140Z,1.792891,-0.635938,0.7075199999999999
2018-10-25T20:58:02.672140Z,0.797241,-0.085252,-1.818456
2018-10-25T20:58:02.873140Z,-0.648907,-0.257329,2.37203
2018-10-25T20:58:03.073140Z,-0.074338,-0.592204,-1.085279
2018-10-25T20:58:03.273140Z,0.143262,-0.357613,-0.514171
2018-10-25T20:58:03.502140Z,0.840669,0.251434,1.8341180000000001
2018-10-25T20:58:03.672140Z,-0.099662,-0.709866,-1.394472
2018-10-25T20:58:03.872140Z,-0.33831700000000003,0.394387,-0.5161680000000001
2018-10-25T20:58:04.073140Z,0.94339,-0.313699,1.805005
2018-10-25T20:58:04.273140Z,0.166381,-0.582952,-1.129432
2018-10-25T20:58:04.474140Z,-0.125362,0.6885439999999999,-0.12853499999999998
2018-10-25T20:58:04.675140Z,0.016011,-0.9383540000000001,1.6985009999999998
2018-10-25T20:58:04.874140Z,0.48239499999999996,-0.237499,-1.454086
2018-10-25T20:58:05.074140Z,-0.196652,0.561055,-0.10032
2018-10-25T20:58:05.275140Z,-0.846872,-0.10663099999999999,1.318625
2018-10-25T20:58:05.474140Z,-0.23628400000000002,-0.7058989999999999,-1.3346069999999999
2018-10-25T20:58:05.674140Z,-0.092624,0.21063800000000002,0.808412
2018-10-25T20:58:05.874140Z,-0.229275,-0.125643,0.52661
2018-10-25T20:58:06.115140Z,-1.381689,-0.067674,-1.525482
2018-10-25T20:58:06.274140Z,-0.022747999999999997,0.6567390000000001,1.545926
2018-10-25T20:58:06.513140Z,-0.7883020000000001,-0.142735,0.004951
2018-10-25T20:58:06.676140Z,0.133608,-0.549786,-0.761371
2018-10-25T20:58:06.877140Z,0.343659,0.099856,1.344753
2018-10-25T20:58:07.077140Z,1.164436,-0.35138800000000003,-0.264727
2018-10-25T20:58:07.315140Z,-0.46606000000000003,-0.193774,-1.5099770000000001
2018-10-25T20:58:07.476140Z,-0.479991,0.456722,1.840113
2018-10-25T20:58:07.676140Z,0.064814,-0.204439,-0.59538
2018-10-25T20:58:07.875140Z,0.071212,0.116549,-0.9860559999999999
2018-10-25T20:58:08.116140Z,1.535441,0.547177,1.598634
2018-10-25T20:58:08.277140Z,0.588971,-0.77395,-0.9916530000000001
2018-10-25T20:58:08.476140Z,0.831965,-0.7393489999999999,0.7866770000000001
2018-10-25T20:58:08.676140Z,0.035401,0.70804,0.316205
2018-10-25T20:58:08.878140Z,-1.024419,-0.5556260000000001,-1.283833
2018-10-25T20:58:09.078140Z,0.058797,0.625977,0.335438
2018-10-25T20:58:09.277140Z,0.6003930000000001,-0.688976,1.437352
2018-10-25T20:58:09.477140Z,0.650776,-0.503037,-1.422157
2018-10-25T20:58:09.679140Z,0.235279,-0.128417,0.298822
2018-10-25T20:58:09.878140Z,-0.347196,-0.23394099999999998,1.1295600000000001
2018-10-25T20:58:10.091140Z,0.179346,-0.50548,-1.3610360000000001
2018-10-25T20:58:10.279140Z,-0.473983,1.157342,-0.330067
2018-10-25T20:58:10.517140Z,-1.030533,-0.942684,2.16823
2018-10-25T20:58:10.680140Z,-1.278413,-0.374728,-1.7829700000000002
2018-10-25T20:58:10.879140Z,0.504564,0.471013,0.178031
2018-10-25T20:58:11.080140Z,0.068598,-0.708367,2.1311310000000003
2018-10-25T20:58:11.344140Z,-0.323801,-0.099746,-1.981525
2018-10-25T20:58:11.480140Z,-0.18723299999999998,-0.015763,0.323235
2018-10-25T20:58:11.678140Z,0.5611010000000001,-0.559954,1.052923
2018-10-25T20:58:11.878140Z,0.553968,-0.14913800000000002,-1.408091
2018-10-25T20:58:12.079140Z,-0.524271,0.26401199999999997,0.127079
2018-10-25T20:58:12.279140Z,-0.8656780000000001,0.48126899999999995,0.35830300000000004
2018-10-25T20:58:12.481140Z,-0.42689099999999996,-0.008151,-0.698203
2018-10-25T20:58:12.680140Z,0.9516399999999999,0.559242,0.161366
2018-10-25T20:58:12.882140Z,-0.029032,-1.014728,1.612031
2018-10-25T20:58:13.081140Z,0.46292799999999995,-0.124278,-1.6660540000000001
2018-10-25T20:58:13.282140Z,-0.137296,0.353172,0.762756
2018-10-25T20:58:13.482140Z,-0.174534,-0.065684,0.546426
2018-10-25T20:58:13.683140Z,-0.27462800000000004,-0.392158,-1.092311
2018-10-25T20:58:13.883140Z,-0.020927,0.542057,0.417504
2018-10-25T20:58:14.086140Z,-0.386523,-0.49046999999999996,1.019901
2018-10-25T20:58:14.286140Z,-0.184317,-0.358983,-1.345719
2018-10-25T20:58:14.483140Z,0.074575,0.199795,0.18287799999999999
2018-10-25T20:58:14.681140Z,-0.539864,-0.537176,0.8645879999999999
2018-10-25T20:58:14.882140Z,0.559076,-0.675321,-0.443795
2018-10-25T20:58:15.084140Z,0.30312,-0.095439,0.197875
2018-10-25T20:58:15.328140Z,0.868864,-0.495699,0.20501399999999997
2018-10-25T20:58:15.482140Z,-0.269784,0.48547799999999997,0.256943
2018-10-25T20:58:15.715140Z,-0.40531799999999996,-1.984082,0.740402
2018-10-25T20:58:15.882140Z,0.04663,-0.9007299999999999,-0.310051
2018-10-25T20:58:16.083140Z,-0.172317,-0.046939999999999996,-0.13601400000000002
2018-10-25T20:58:16.284140Z,0.1143,0.195225,0.363412
2018-10-25T20:58:16.484140Z,0.669814,-0.316253,0.5719420000000001
2018-10-25T20:58:16.683140Z,0.36188400000000004,-1.221439,0.192168
2018-10-25T20:58:16.883140Z,0.30454899999999996,-0.31772,-0.342011
2018-10-25T20:58:17.083140Z,0.71186,-0.10779000000000001,-0.174727
2018-10-25T20:58:17.284140Z,-1.0881040000000002,-0.502698,1.348311
