Datetime,accx,accy,accz
2018-10-16T23:26:24.462693Z,0.0,0.0,0.0
2018-10-16T23:26:24.656693Z,-0.04988,0.44697600000000004,-0.055371000000000004
2018-10-16T23:26:24.871693Z,-0.452837,0.168373,0.567948
2018-10-16T23:26:25.056693Z,-0.169044,-0.221154,0.358012
2018-10-16T23:26:25.256693Z,0.7357060000000001,-0.807275,0.108119
2018-10-16T23:26:25.484693Z,0.27831100000000003,-0.297444,-0.663231
2018-10-16T23:26:25.655693Z,0.026601999999999997,0.565662,0.647384
2018-10-16T23:26:25.857693Z,0.346036,-1.2737049999999999,1.464137
2018-10-16T23:26:26.057693Z,0.418526,-1.545691,0.087632
2018-10-16T23:26:26.258693Z,0.7477199999999999,-0.039807,-0.495762
2018-10-16T23:26:26.458693Z,-0.919099,-0.615577,0.956047
2018-10-16T23:26:26.658693Z,-0.5552090000000001,-1.3173139999999999,1.590492
2018-10-16T23:26:26.879693Z,-0.054581,-1.558265,-0.389212
2018-10-16T23:26:27.058693Z,-0.034304,-0.46275200000000005,0.096214
2018-10-16T23:26:27.257693Z,-0.840359,-0.17333099999999999,0.7340760000000001
2018-10-16T23:26:27.457693Z,-1.163983,-0.972209,0.3145
2018-10-16T23:26:27.658693Z,-1.300641,-0.8872969999999999,-0.079989
2018-10-16T23:26:27.859693Z,-0.748722,-0.526154,1.211905
2018-10-16T23:26:28.058693Z,-0.638597,-0.9201969999999999,0.172122
2018-10-16T23:26:28.259693Z,0.049776999999999995,-0.704488,-0.649035
2018-10-16T23:26:28.459693Z,0.47212200000000004,0.603317,0.392469
2018-10-16T23:26:28.660693Z,-0.13952,-0.5927720000000001,2.02035
2018-10-16T23:26:28.880693Z,0.204692,-1.886312,-0.591403
2018-10-16T23:26:29.096693Z,0.13681300000000002,-0.663565,-0.88097
2018-10-16T23:26:29.258693Z,-0.100427,0.408815,1.207154
2018-10-16T23:26:29.459693Z,0.6280180000000001,-0.730377,0.610486
2018-10-16T23:26:29.660693Z,0.8657299999999999,-0.647853,-1.043807
2018-10-16T23:26:29.859693Z,0.23430900000000002,0.576809,0.5140239999999999
2018-10-16T23:26:30.059693Z,0.500526,-0.341487,1.14757
2018-10-16T23:26:30.263693Z,-0.103305,-1.117073,-0.749959
2018-10-16T23:26:30.458693Z,-0.502544,0.065988,-0.301923
2018-10-16T23:26:30.659693Z,-0.328327,0.254304,1.1819950000000001
2018-10-16T23:26:30.860693Z,0.032699,-0.9404040000000001,-0.206443
2018-10-16T23:26:31.075693Z,0.011972,-0.9669190000000001,-0.15893800000000002
2018-10-16T23:26:31.258693Z,0.015775,-0.949867,-0.135213
2018-10-16T23:26:31.457693Z,0.0,0.0,0.0
2018-10-16T23:26:31.670693Z,-0.287483,-0.136738,-0.995907
2018-10-16T23:26:31.877693Z,0.193396,0.626019,0.418919
2018-10-16T23:26:32.072693Z,0.5603279999999999,0.15629,0.8825129999999999
2018-10-16T23:26:32.258693Z,0.268106,-0.279571,-1.02024
2018-10-16T23:26:32.459693Z,0.314702,0.319447,-0.0991
2018-10-16T23:26:32.662693Z,0.314209,0.327106,1.447532
2018-10-16T23:26:32.878693Z,0.138123,-0.7247399999999999,-0.420383
2018-10-16T23:26:33.059693Z,0.57653,-0.023444,-0.902106
2018-10-16T23:26:33.259693Z,1.7685669999999998,0.582155,0.747166
2018-10-16T23:26:33.460693Z,1.429886,-1.437125,0.9543299999999999
2018-10-16T23:26:33.660693Z,0.389936,-0.916773,-0.708993
2018-10-16T23:26:33.874693Z,-0.507513,0.28934,0.7644
2018-10-16T23:26:34.061693Z,-0.8700450000000001,-0.428991,1.004756
2018-10-16T23:26:34.259693Z,-0.791462,-1.5037280000000002,-0.24184099999999997
2018-10-16T23:26:34.461693Z,-0.326227,-0.506046,-0.252882
2018-10-16T23:26:34.662693Z,-0.397352,-0.377865,1.28196
2018-10-16T23:26:34.903693Z,-0.355055,-0.017828,1.0561989999999999
2018-10-16T23:26:35.152693Z,-0.061127999999999995,-0.16573800000000002,-0.721058
2018-10-16T23:26:35.339693Z,-0.42147799999999996,0.119985,1.7098810000000002
2018-10-16T23:26:35.633693Z,-0.10774700000000001,-1.0023879999999998,0.829047
2018-10-16T23:26:35.740693Z,-0.33263200000000004,-0.5445479999999999,-0.60288
2018-10-16T23:26:35.941693Z,-0.330806,0.27631300000000003,0.4976
2018-10-16T23:26:36.143693Z,-0.08826,-0.940732,1.485419
2018-10-16T23:26:36.344693Z,-0.17388499999999998,-1.490474,-0.630249
2018-10-16T23:26:36.559693Z,0.045208,0.273539,0.44337200000000004
2018-10-16T23:26:36.742693Z,-0.798059,-0.383098,1.176377
2018-10-16T23:26:36.941693Z,-0.503156,-1.5445200000000001,-0.3199
2018-10-16T23:26:37.143693Z,-0.42565699999999995,-0.827166,-0.9999299999999999
2018-10-16T23:26:37.342693Z,-0.016000999999999998,0.012778,1.404305
2018-10-16T23:26:37.544693Z,0.567609,-0.895682,-0.274696
2018-10-16T23:26:37.743693Z,-0.041551,-0.617188,-0.886763
2018-10-16T23:26:37.942693Z,-0.098082,0.460162,-0.028895999999999998
2018-10-16T23:26:38.142693Z,-0.565576,-1.1061379999999998,-0.079812
2018-10-16T23:26:38.361693Z,-0.10294500000000001,-0.434234,-0.537788
2018-10-16T23:26:38.548693Z,-0.08438999999999999,-0.039061,-0.06612699999999999
2018-10-16T23:26:38.743693Z,-0.15925599999999998,-0.39571100000000003,1.069127
2018-10-16T23:26:38.943693Z,0.083942,-0.8319350000000001,-0.7994180000000001
2018-10-16T23:26:39.143693Z,0.402196,0.190777,-0.427418
2018-10-16T23:26:39.343693Z,0.10805799999999999,0.228767,1.112471
2018-10-16T23:26:39.562693Z,-0.01218,-0.9550209999999999,0.8123739999999999
2018-10-16T23:26:39.739693Z,0.359797,-0.930999,-0.871297
2018-10-16T23:26:39.864693Z,0.5272979999999999,-0.953802,-0.803829
2018-10-16T23:26:40.064693Z,1.6894490000000002,-0.700376,1.335984
2018-10-16T23:26:40.264693Z,1.780299,-1.511539,0.12008900000000002
2018-10-16T23:26:40.465693Z,0.616229,-1.333342,0.536065
2018-10-16T23:26:40.665693Z,-0.005652,-0.496777,1.16756
2018-10-16T23:26:40.867693Z,0.026739999999999996,-0.595279,-0.773612
2018-10-16T23:26:41.082693Z,-0.028244,-0.6139720000000001,-0.082169
2018-10-16T23:26:41.264693Z,0.191393,-0.27508499999999997,1.1652559999999998
2018-10-16T23:26:41.467693Z,0.305765,-1.277487,0.796651
2018-10-16T23:26:41.665693Z,0.387104,-1.326959,-0.563293
2018-10-16T23:26:41.878693Z,-0.126344,-0.28137,0.8973030000000001
2018-10-16T23:26:42.079693Z,-0.38893,-0.22116599999999997,0.45673400000000003
2018-10-16T23:26:42.266693Z,-0.42717299999999997,-0.997669,-0.6996859999999999
2018-10-16T23:26:42.481693Z,0.587361,-0.298862,0.528108
2018-10-16T23:26:42.666693Z,1.124565,-0.528982,1.162042
2018-10-16T23:26:42.866693Z,1.453934,-1.125826,-0.004444
2018-10-16T23:26:43.067693Z,0.9906959999999999,-0.436066,-0.410998
2018-10-16T23:26:43.267693Z,-0.304706,-0.282495,1.24624
2018-10-16T23:26:43.467693Z,0.048809,-0.14127,1.135944
2018-10-16T23:26:43.709693Z,-0.14586300000000002,-0.016626,-0.3902
2018-10-16T23:26:43.907693Z,-0.6258600000000001,-0.090538,0.8456610000000001
2018-10-16T23:26:44.106693Z,-0.508798,-0.9299709999999999,0.681967
2018-10-16T23:26:44.307693Z,-1.984107,-0.809473,-1.331495
2018-10-16T23:26:44.509693Z,-1.861782,-0.368609,0.503268
2018-10-16T23:26:44.723693Z,-1.9074240000000002,-1.288894,1.527133
2018-10-16T23:26:44.907693Z,-0.676666,-1.876948,0.112205
2018-10-16T23:26:45.108693Z,-0.476641,-0.566708,0.226793
2018-10-16T23:26:45.325693Z,0.010864,0.284352,0.048963
2018-10-16T23:26:45.526693Z,-0.256892,-0.053439,1.066502
2018-10-16T23:26:45.708693Z,1.301959,-1.1557709999999999,-0.093559
2018-10-16T23:26:45.940693Z,0.980441,-0.928881,0.209485
2018-10-16T23:26:46.108693Z,1.02398,-0.438771,0.8677239999999999
2018-10-16T23:26:46.308693Z,0.322449,-1.542746,0.394876
2018-10-16T23:26:46.508693Z,0.6463220000000001,-1.611056,1.751507
2018-10-16T23:26:46.709693Z,0.16480999999999998,-0.485545,0.165081
2018-10-16T23:26:46.908693Z,-0.856016,-0.028386,0.377051
2018-10-16T23:26:47.111693Z,0.080304,-0.36083000000000004,0.578018
2018-10-16T23:26:47.310693Z,0.741646,-0.896791,0.18618099999999999
2018-10-16T23:26:47.511693Z,1.099782,-0.601906,0.22763000000000003
2018-10-16T23:26:47.711693Z,0.911583,-0.275152,-0.330486
2018-10-16T23:26:47.909693Z,0.080166,-0.200128,0.395712
2018-10-16T23:26:48.110693Z,0.297536,-0.54698,-0.005253
2018-10-16T23:26:48.271693Z,0.420309,-1.07227,0.228394
2018-10-16T23:26:48.469693Z,0.646881,-0.132429,0.031219999999999998
2018-10-16T23:26:48.688693Z,0.610117,-0.35637800000000003,0.091714
2018-10-16T23:26:48.872693Z,-0.817967,0.427271,0.178254
2018-10-16T23:26:49.071693Z,-1.122658,-1.463765,-0.227725
2018-10-16T23:26:49.287693Z,-0.46866,-0.520868,-0.33761199999999997
2018-10-16T23:26:49.475693Z,-0.204746,-0.778809,0.41761099999999995
2018-10-16T23:26:49.674693Z,0.132537,-0.371845,0.31004499999999996
2018-10-16T23:26:49.870693Z,1.240448,-0.14027699999999999,0.10696800000000001
2018-10-16T23:26:50.075693Z,0.588431,-0.5629390000000001,-0.531862
2018-10-16T23:26:50.272693Z,0.632005,0.366915,-0.210473
2018-10-16T23:26:50.471693Z,1.146884,0.5744090000000001,0.480371
2018-10-16T23:26:50.673693Z,0.647203,-0.10905799999999999,0.568337
2018-10-16T23:26:50.889693Z,-0.108974,-0.746618,-0.48668900000000004
2018-10-16T23:26:51.071693Z,-0.200545,-0.345443,0.026744999999999998
2018-10-16T23:26:51.290693Z,-1.051474,-0.931559,1.04453
2018-10-16T23:26:51.473693Z,-1.351437,-1.285123,0.226683
2018-10-16T23:26:51.674693Z,-1.017297,-1.632276,0.17093599999999998
2018-10-16T23:26:51.874693Z,-0.701178,-1.337133,0.081294
2018-10-16T23:26:52.074693Z,-0.348905,-1.8774220000000001,0.345456
2018-10-16T23:26:52.274693Z,1.436439,-0.5904010000000001,0.436667
2018-10-16T23:26:52.500693Z,1.211804,-0.796022,-0.49856999999999996
2018-10-16T23:26:52.673693Z,1.3758219999999999,-0.187099,-0.313533
2018-10-16T23:26:52.873693Z,1.1250799999999999,-0.164468,1.069856
2018-10-16T23:26:53.073693Z,3.3301239999999996,-0.871132,0.232737
2018-10-16T23:26:53.274693Z,1.8056029999999998,-1.161551,-0.227485
2018-10-16T23:26:53.473693Z,1.1737950000000001,-0.05022,-0.273962
2018-10-16T23:26:53.675693Z,0.165196,-0.11928399999999999,1.5177370000000001
2018-10-16T23:26:53.875693Z,0.564567,-1.201424,-0.5516449999999999
2018-10-16T23:26:54.075693Z,0.6546350000000001,-0.306079,-0.350173
2018-10-16T23:26:54.275693Z,1.096502,-0.065289,-0.129657
2018-10-16T23:26:54.473693Z,0.9162290000000001,0.006848999999999999,-0.215639
2018-10-16T23:26:54.674693Z,0.574853,-1.475601,0.337806
2018-10-16T23:26:54.884693Z,1.153543,-0.678643,-0.350833
2018-10-16T23:26:55.075693Z,0.658412,-0.709183,0.9188649999999999
2018-10-16T23:26:55.275693Z,-0.308154,-1.404072,1.400507
2018-10-16T23:26:55.475693Z,-0.487221,-1.515732,0.08645
2018-10-16T23:26:55.673693Z,-0.5309689999999999,-0.533307,0.335773
2018-10-16T23:26:55.875693Z,0.10276099999999999,-0.18682,-0.626131
2018-10-16T23:26:56.079693Z,0.43775,-0.5596909999999999,0.837872
2018-10-16T23:26:56.307693Z,0.730049,-1.428563,-0.025197
2018-10-16T23:26:56.474693Z,0.192089,-0.39965900000000004,-0.5901270000000001
2018-10-16T23:26:56.675693Z,-0.499071,0.309078,0.434985
2018-10-16T23:26:56.875693Z,-0.26319899999999996,0.30900500000000003,1.272888
2018-10-16T23:26:57.076693Z,-0.148973,-0.792277,-0.365843
2018-10-16T23:26:57.275693Z,-0.326253,-0.201473,-0.17640799999999998
2018-10-16T23:26:57.477693Z,-0.316101,-0.028075,1.368973
2018-10-16T23:26:57.769693Z,0.016796000000000002,-1.24965,0.367136
2018-10-16T23:26:57.887693Z,-0.9133,-0.43604799999999994,-0.964066
2018-10-16T23:26:58.098693Z,-0.8684280000000001,0.24886799999999998,0.338883
2018-10-16T23:26:58.277693Z,-1.2910760000000001,-0.23670700000000003,0.931394
2018-10-16T23:26:58.477693Z,-1.40039,-0.838909,-0.359784
2018-10-16T23:26:58.678693Z,-0.963675,-0.307797,-0.589787
2018-10-16T23:26:58.894693Z,-0.017115000000000002,0.56455,0.26645
2018-10-16T23:26:59.078693Z,0.5608770000000001,-0.28476599999999996,1.321852
2018-10-16T23:26:59.360693Z,0.394111,-0.819937,-0.42268199999999995
2018-10-16T23:26:59.489693Z,-1.15676,0.665783,-0.959569
2018-10-16T23:26:59.697693Z,-1.605073,0.17369,0.931767
2018-10-16T23:26:59.879693Z,-1.269333,-1.528341,0.5634979999999999
2018-10-16T23:27:00.093693Z,0.070284,-1.425359,-0.35813
2018-10-16T23:27:00.300693Z,0.440057,-0.257898,0.6214529999999999
2018-10-16T23:27:00.479693Z,1.2610379999999999,-0.335966,0.824968
2018-10-16T23:27:00.768693Z,1.09374,-0.5839810000000001,-0.8431049999999999
2018-10-16T23:27:00.973693Z,0.340092,-0.09868400000000001,0.031263
2018-10-16T23:27:01.163693Z,0.290523,0.2689,0.5105890000000001
2018-10-16T23:27:01.359693Z,0.792842,-1.257531,-0.07772899999999999
2018-10-16T23:27:01.560693Z,1.2914729999999999,-0.390467,-0.799726
2018-10-16T23:27:01.760693Z,1.765293,0.372799,0.3532
2018-10-16T23:27:01.970693Z,1.8287380000000002,-0.08705299999999999,1.749739
2018-10-16T23:27:02.159693Z,2.825246,-0.38657199999999997,-0.532204
2018-10-16T23:27:02.360693Z,0.981085,-0.302114,0.621315
2018-10-16T23:27:02.560693Z,1.598682,-0.9624659999999999,2.159957
2018-10-16T23:27:02.760693Z,1.064017,-1.535584,0.9874440000000001
2018-10-16T23:27:02.960693Z,0.7050350000000001,-0.628414,-0.07732699999999999
2018-10-16T23:27:03.162693Z,0.005826,0.0029690000000000003,0.873965
2018-10-16T23:27:03.361693Z,-0.22376500000000002,-1.603225,2.264548
2018-10-16T23:27:03.561693Z,1.053115,-0.789565,-1.0822459999999998
2018-10-16T23:27:03.761693Z,-0.5101140000000001,0.071268,0.991898
2018-10-16T23:27:04.001693Z,-1.121319,-0.360392,1.064873
2018-10-16T23:27:04.160693Z,-2.637897,-1.595915,-0.6139819999999999
2018-10-16T23:27:04.360693Z,-1.395606,-1.079149,-0.690091
2018-10-16T23:27:04.561693Z,-1.447168,-1.6685729999999999,1.607851
2018-10-16T23:27:04.802693Z,-1.6653900000000001,-2.39872,0.43892700000000007
2018-10-16T23:27:04.962693Z,-0.420158,-1.078785,-0.36135100000000003
2018-10-16T23:27:05.162693Z,0.41172,-0.113001,0.353204
2018-10-16T23:27:05.363693Z,1.1039,-0.9937370000000001,1.3610520000000002
2018-10-16T23:27:05.574693Z,1.668536,-0.785906,-0.651937
2018-10-16T23:27:05.761693Z,1.54515,-0.020791,-0.076423
2018-10-16T23:27:05.961693Z,1.355739,0.296473,0.953269
2018-10-16T23:27:06.163693Z,1.714894,-0.544852,-0.799532
2018-10-16T23:27:06.365693Z,0.601539,0.216173,-0.259822
2018-10-16T23:27:06.610693Z,1.121797,1.028525,0.723577
2018-10-16T23:27:06.773693Z,0.088375,-0.10301400000000001,0.959053
2018-10-16T23:27:06.975693Z,0.14890799999999998,-1.097204,-0.698277
2018-10-16T23:27:07.163693Z,0.097079,0.147866,-0.16624
2018-10-16T23:27:07.364693Z,0.058919000000000006,0.671034,0.695013
2018-10-16T23:27:07.581693Z,0.722593,-0.512429,1.3694469999999999
2018-10-16T23:27:07.777693Z,0.41967899999999997,-0.219283,-0.414091
2018-10-16T23:27:07.966693Z,0.702924,-0.034401999999999995,0.037978
2018-10-16T23:27:08.180693Z,1.082436,-0.8381790000000001,1.734536
2018-10-16T23:27:08.364693Z,1.9299490000000001,-2.232871,1.7540080000000002
2018-10-16T23:27:08.563693Z,0.882403,-0.841476,0.30833299999999997
2018-10-16T23:27:08.764693Z,-0.05506799999999999,-0.1288,-0.43298100000000006
2018-10-16T23:27:08.964693Z,0.06830599999999999,0.040573000000000005,0.392979
2018-10-16T23:27:09.164693Z,1.241623,-1.8028419999999998,1.54969
2018-10-16T23:27:09.364693Z,-0.28106,-0.533617,-0.993185
2018-10-16T23:27:09.565693Z,-0.019687,0.47285600000000005,0.909962
2018-10-16T23:27:09.764693Z,-0.709867,-0.652083,0.7402850000000001
2018-10-16T23:27:09.965693Z,-0.715828,-1.408282,-0.9389200000000001
2018-10-16T23:27:10.184693Z,-0.217598,0.724911,1.120773
2018-10-16T23:27:10.365693Z,-0.029712,-1.091856,1.541603
2018-10-16T23:27:10.608693Z,0.25322100000000003,-1.305284,-0.596147
2018-10-16T23:27:10.765693Z,-0.243718,-0.515026,-1.686809
2018-10-16T23:27:10.972693Z,-0.627881,0.425019,1.561979
2018-10-16T23:27:11.165693Z,-0.681675,-1.449234,0.49044799999999994
2018-10-16T23:27:11.366693Z,0.23041799999999998,-1.356356,-1.401127
2018-10-16T23:27:11.567693Z,-0.044239,0.17167000000000002,0.24184299999999997
2018-10-16T23:27:11.766693Z,0.367164,-0.870518,1.160834
2018-10-16T23:27:12.028693Z,1.29167,-1.3737840000000001,-0.302966
2018-10-16T23:27:12.166693Z,-0.43758,-0.209164,-1.022165
2018-10-16T23:27:12.369693Z,-2.130317,-0.502124,0.7883789999999999
2018-10-16T23:27:12.567693Z,-1.704741,-0.9428639999999999,-0.976023
2018-10-16T23:27:12.767693Z,-0.629861,-0.025262,-0.546108
2018-10-16T23:27:12.967693Z,-0.459113,0.545891,-0.350401
2018-10-16T23:27:13.168693Z,0.978345,0.24953699999999998,0.167019
2018-10-16T23:27:13.368693Z,1.1080860000000001,-0.334554,0.050467000000000005
2018-10-16T23:27:13.568693Z,1.295555,0.8309840000000001,-0.971191
2018-10-16T23:27:13.768693Z,0.732575,1.20834,-0.493861
2018-10-16T23:27:13.979693Z,0.8373450000000001,1.074101,1.422976
2018-10-16T23:27:14.167693Z,0.446536,-1.143686,-1.150177
2018-10-16T23:27:14.368693Z,-0.7121930000000001,0.122402,-1.0972959999999998
2018-10-16T23:27:14.567693Z,-2.084436,-0.20762199999999997,0.9700799999999999
2018-10-16T23:27:14.769693Z,-2.119002,-1.662652,1.103849
2018-10-16T23:27:14.984693Z,-0.040475,-1.068753,-0.607028
2018-10-16T23:27:15.169693Z,-0.25913200000000003,-0.4302,1.233624
2018-10-16T23:27:15.370693Z,1.21973,-0.538694,0.8937350000000001
2018-10-16T23:27:15.569693Z,0.647112,-1.451568,1.0721180000000001
2018-10-16T23:27:15.790693Z,0.719877,0.193588,-0.192795
2018-10-16T23:27:15.971693Z,0.447644,0.27569299999999997,1.562677
2018-10-16T23:27:16.184693Z,1.782773,-0.569823,0.967443
2018-10-16T23:27:16.368693Z,1.512316,-0.352329,-1.186708
2018-10-16T23:27:16.582693Z,0.837627,0.9448120000000001,1.036704
2018-10-16T23:27:16.769693Z,0.41495600000000005,-0.545061,1.1602780000000001
2018-10-16T23:27:16.969693Z,1.165575,-1.28776,-0.143867
2018-10-16T23:27:17.169693Z,1.034757,-0.13706400000000002,-1.446732
2018-10-16T23:27:17.385693Z,1.3386209999999998,-0.5012939999999999,1.662726
2018-10-16T23:27:17.571693Z,2.2179,-1.243926,0.626026
2018-10-16T23:27:17.771693Z,1.634126,-0.7579779999999999,-0.803652
2018-10-16T23:27:17.972693Z,0.755446,-0.47513,-0.16985
2018-10-16T23:27:18.172693Z,-0.292009,-0.102799,2.064537
2018-10-16T23:27:18.372693Z,-0.20698200000000003,-1.6390080000000002,-0.389083
2018-10-16T23:27:18.572693Z,0.185448,-1.0045979999999999,-1.028014
2018-10-16T23:27:18.772693Z,0.195161,-0.257531,-0.062811
2018-10-16T23:27:18.985693Z,-0.037222000000000005,-0.825958,0.351522
2018-10-16T23:27:19.173693Z,0.136244,-0.951025,-0.773644
2018-10-16T23:27:19.371693Z,0.485807,-0.254793,-0.297747
2018-10-16T23:27:19.576693Z,0.758333,-0.034892,1.041147
2018-10-16T23:27:19.771693Z,0.651353,-1.528282,-0.534397
2018-10-16T23:27:19.973693Z,1.018406,-0.594983,-0.12158499999999998
2018-10-16T23:27:20.174693Z,-0.37669899999999995,-0.23949,0.8033239999999999
2018-10-16T23:27:20.372693Z,0.213823,-0.685528,1.416293
2018-10-16T23:27:20.573693Z,0.44114200000000003,-1.097733,-1.192813
2018-10-16T23:27:20.788693Z,0.412159,-0.392876,0.314569
2018-10-16T23:27:20.983693Z,0.422796,0.18209,1.0218610000000001
2018-10-16T23:27:21.172693Z,-0.168964,-0.5896399999999999,0.7017100000000001
2018-10-16T23:27:21.373693Z,0.081301,-0.430079,-0.379238
2018-10-16T23:27:21.573693Z,0.138206,0.03688,0.805075
2018-10-16T23:27:21.774693Z,0.248612,-0.589584,1.474854
2018-10-16T23:27:21.975693Z,0.9069010000000001,-1.172181,-0.356023
2018-10-16T23:27:22.175693Z,0.465164,0.320386,-0.076945
2018-10-16T23:27:22.375693Z,-0.630433,0.29546999999999995,1.149866
2018-10-16T23:27:22.574693Z,-0.031020999999999996,-1.24605,0.722444
2018-10-16T23:27:22.788693Z,-0.080218,-1.149746,-0.649089
2018-10-16T23:27:22.974693Z,-1.532568,0.200965,0.5278430000000001
2018-10-16T23:27:23.174693Z,-1.492449,-1.4400819999999999,1.188366
2018-10-16T23:27:23.375693Z,-1.1240059999999998,-1.372819,-0.34541
2018-10-16T23:27:23.576693Z,-1.17744,-0.647532,-0.892301
2018-10-16T23:27:23.776693Z,-0.557876,-0.609272,1.4683110000000001
2018-10-16T23:27:23.975693Z,-0.534057,-1.0545149999999999,-0.6465529999999999
2018-10-16T23:27:24.175693Z,-0.078981,-0.47561000000000003,-0.509757
2018-10-16T23:27:24.376693Z,-0.068481,0.02845,1.02057
2018-10-16T23:27:24.645693Z,0.167528,-1.7047849999999998,-0.039847
2018-10-16T23:27:24.776693Z,-1.5834030000000001,-1.137449,-1.346489
2018-10-16T23:27:24.989693Z,-0.795542,-0.194931,-0.18423299999999998
2018-10-16T23:27:25.178693Z,0.091731,-0.507609,1.459015
2018-10-16T23:27:25.376693Z,0.8925690000000001,-1.37529,-0.28818699999999997
2018-10-16T23:27:25.577693Z,0.940124,-0.20005499999999998,0.452341
2018-10-16T23:27:25.776693Z,1.7197099999999998,-0.044854000000000005,1.739316
2018-10-16T23:27:26.007693Z,1.2135129999999998,-1.3319940000000001,1.1061590000000001
2018-10-16T23:27:26.178693Z,1.046332,-0.140488,-0.376729
2018-10-16T23:27:26.378693Z,0.250105,-0.181172,1.624311
2018-10-16T23:27:26.576693Z,0.501767,-1.031213,0.235708
2018-10-16T23:27:26.778693Z,0.034837,-0.8769520000000001,-0.391204
2018-10-16T23:27:26.977693Z,0.721823,0.101604,0.417256
2018-10-16T23:27:27.178693Z,0.9868809999999999,0.138321,0.9370709999999999
2018-10-16T23:27:27.379693Z,1.609553,-0.5430729999999999,0.44015299999999996
2018-10-16T23:27:27.578693Z,1.4253879999999999,-0.774542,-0.479231
2018-10-16T23:27:27.779693Z,1.252688,0.864584,-0.030558
2018-10-16T23:27:27.979693Z,-0.003355,0.064439,1.224005
2018-10-16T23:27:28.192693Z,0.22568200000000002,-0.745581,0.683702
2018-10-16T23:27:28.394693Z,0.24802600000000002,-1.076656,-0.261529
2018-10-16T23:27:28.592693Z,-0.743919,0.408285,0.870505
2018-10-16T23:27:28.788693Z,-0.685633,-0.757486,1.170763
2018-10-16T23:27:28.979693Z,-0.772307,-1.064251,-0.581766
2018-10-16T23:27:29.179693Z,-1.3382399999999999,-0.910809,-0.43301000000000006
2018-10-16T23:27:29.380693Z,-0.21171199999999998,-1.331075,0.782137
2018-10-16T23:27:29.580693Z,0.053166,-1.596769,0.814821
2018-10-16T23:27:29.798693Z,0.522135,-0.8710629999999999,-0.7145100000000001
2018-10-16T23:27:29.980693Z,0.6005699999999999,-0.15248499999999998,0.22072399999999998
2018-10-16T23:27:30.180693Z,1.2529059999999999,0.24469899999999997,0.9536450000000001
2018-10-16T23:27:30.378693Z,0.628567,-0.38216700000000003,0.559904
2018-10-16T23:27:30.579693Z,1.445435,-0.266759,-0.751224
2018-10-16T23:27:30.779693Z,0.725721,0.264372,-0.45814099999999996
2018-10-16T23:27:30.980693Z,1.052527,0.564243,0.12170999999999998
2018-10-16T23:27:31.180693Z,0.341596,-0.273337,0.73531
2018-10-16T23:27:31.381693Z,0.425063,-0.9060040000000001,0.426274
2018-10-16T23:27:31.580693Z,0.089144,-0.575549,-0.6030449999999999
2018-10-16T23:27:31.816693Z,0.339096,0.523687,0.271572
2018-10-16T23:27:31.981693Z,0.711914,0.055129,0.59924
2018-10-16T23:27:32.180693Z,0.557605,-0.693268,0.377008
2018-10-16T23:27:32.381693Z,0.649546,-0.777573,-0.23770100000000002
2018-10-16T23:27:32.581693Z,0.45451199999999997,0.40172199999999997,-0.32077100000000003
2018-10-16T23:27:32.781693Z,0.729754,0.756108,0.20469400000000001
2018-10-16T23:27:32.981693Z,0.6942159999999999,0.23779299999999998,0.736084
2018-10-16T23:27:33.183693Z,0.618829,-1.0866639999999999,0.543355
2018-10-16T23:27:33.383693Z,0.17866300000000002,-0.19165,-0.691497
2018-10-16T23:27:33.582693Z,-0.162659,0.264772,-0.19478900000000002
2018-10-16T23:27:33.781693Z,0.064185,0.604074,0.247363
2018-10-16T23:27:33.983693Z,0.154274,0.22766399999999998,0.5551560000000001
2018-10-16T23:27:34.182693Z,0.44661000000000006,-0.906431,-0.5702109999999999
2018-10-16T23:27:34.421693Z,0.5852569999999999,0.497201,-0.632939
2018-10-16T23:27:34.583693Z,0.879783,0.941458,-0.453061
2018-10-16T23:27:34.820693Z,0.186596,0.5887939999999999,0.675975
2018-10-16T23:27:34.983693Z,-0.057790999999999995,-1.269203,0.43218199999999996
2018-10-16T23:27:35.184693Z,0.218446,-0.976613,-0.907143
2018-10-16T23:27:35.384693Z,-0.24634499999999998,-0.465088,-0.25656
2018-10-16T23:27:35.586693Z,0.002547,0.38904,-0.066762
2018-10-16T23:27:35.784693Z,0.309748,0.22536,0.5948899999999999
2018-10-16T23:27:35.986693Z,0.12204000000000001,-0.910159,0.109537
2018-10-16T23:27:36.183693Z,0.032843000000000004,-0.42190900000000003,-0.5717909999999999
2018-10-16T23:27:36.385693Z,0.190668,0.45918100000000006,-0.455359
2018-10-16T23:27:36.584693Z,-0.028221,0.589584,0.3454
2018-10-16T23:27:36.783693Z,0.396825,0.231519,0.7968609999999999
2018-10-16T23:27:36.983693Z,0.092791,-0.8659479999999999,0.185779
2018-10-16T23:27:37.184693Z,0.230346,-0.36403800000000003,-0.421933
2018-10-16T23:27:37.386693Z,0.444169,0.864432,0.069957
2018-10-16T23:27:37.585693Z,0.031058999999999996,0.9717319999999999,1.1081290000000001
2018-10-16T23:27:37.786693Z,-0.077308,-0.071908,0.8684709999999999
2018-10-16T23:27:37.986693Z,0.439324,-1.220385,-0.142305
2018-10-16T23:27:38.185693Z,0.319904,0.031858,-0.718975
2018-10-16T23:27:38.385693Z,0.152146,0.46206800000000003,0.096867
2018-10-16T23:27:38.585693Z,-0.4181,0.418901,0.551711
2018-10-16T23:27:38.786693Z,0.32093499999999997,-0.247506,0.424285
2018-10-16T23:27:38.986693Z,-0.461846,-0.016259,-0.018578
2018-10-16T23:27:39.186693Z,-0.890605,0.40529499999999996,0.580138
2018-10-16T23:27:39.386693Z,-0.065584,-0.5405479999999999,0.088876
2018-10-16T23:27:39.589693Z,0.106898,-0.515019,-0.012947
2018-10-16T23:27:39.787693Z,0.7772479999999999,0.279876,-1.2039360000000001
2018-10-16T23:27:39.985693Z,-0.620591,0.564699,0.10433599999999998
2018-10-16T23:27:40.212693Z,0.014987,-0.794492,1.954148
2018-10-16T23:27:40.386693Z,-0.203029,-0.5945600000000001,-1.014868
2018-10-16T23:27:40.587693Z,0.001279,0.740559,-0.42453599999999997
2018-10-16T23:27:40.806693Z,-0.14947,0.8432299999999999,0.6730520000000001
2018-10-16T23:27:40.988693Z,-0.239708,0.11165699999999999,0.932742
2018-10-16T23:27:41.188693Z,-0.15748800000000002,-0.46443999999999996,-0.7015
2018-10-16T23:27:41.388693Z,-0.177741,0.290562,-0.599079
2018-10-16T23:27:41.588693Z,0.941364,1.122393,-0.359269
2018-10-16T23:27:41.789693Z,0.635264,0.147517,0.503559
2018-10-16T23:27:41.987693Z,0.981057,0.11396600000000001,0.5028729999999999
2018-10-16T23:27:42.188693Z,-0.771752,-0.945567,-0.439566
2018-10-16T23:27:42.400693Z,0.165934,0.37771,-0.39684899999999995
2018-10-16T23:27:42.590693Z,0.11286500000000001,0.374423,0.111555
2018-10-16T23:27:42.788693Z,-0.06452000000000001,0.511675,0.029198
2018-10-16T23:27:42.989693Z,-0.12250799999999999,-0.721226,0.374907
2018-10-16T23:27:43.189693Z,-0.134523,-0.8300649999999999,-0.282464
2018-10-16T23:27:43.389693Z,0.430098,0.013366,-0.21703000000000003
2018-10-16T23:27:43.589693Z,0.312904,0.5832579999999999,-0.46788599999999997
2018-10-16T23:27:43.790693Z,0.344184,0.170373,0.778934
2018-10-16T23:27:44.000693Z,0.272059,-0.8445440000000001,-0.648353
2018-10-16T23:27:44.205693Z,0.39076900000000003,-0.29383899999999996,-0.780898
2018-10-16T23:27:44.390693Z,0.22256900000000002,0.505605,-0.301218
2018-10-16T23:27:44.590693Z,-0.034185,-0.707356,0.415154
2018-10-16T23:27:44.866693Z,0.42678900000000003,-1.0376729999999998,-0.66855
2018-10-16T23:27:44.989693Z,-0.10589900000000001,0.131073,-0.181668
2018-10-16T23:27:45.191693Z,-0.044244,0.911644,-0.302536
2018-10-16T23:27:45.389693Z,-0.134943,-0.421783,0.8004939999999999
2018-10-16T23:27:45.590693Z,-0.254775,-0.519536,-0.6845859999999999
2018-10-16T23:27:45.792693Z,-0.375514,0.018916,-0.48222
2018-10-16T23:27:45.992693Z,0.46255100000000005,1.1424370000000001,0.333504
2018-10-16T23:27:46.192693Z,0.301541,-0.5964729999999999,0.822832
2018-10-16T23:27:46.392693Z,0.666982,-1.206156,-0.630426
2018-10-16T23:27:46.592693Z,-0.317799,-0.596692,-0.817326
2018-10-16T23:27:46.827693Z,0.33381,0.522104,-0.66328
2018-10-16T23:27:46.991693Z,-1.262039,0.193106,1.879484
2018-10-16T23:27:47.190693Z,0.339658,-1.324224,-0.266768
2018-10-16T23:27:47.391693Z,0.107482,-0.343644,-0.737862
2018-10-16T23:27:47.592693Z,-0.027147000000000004,0.5022979999999999,0.131109
2018-10-16T23:27:47.792693Z,-0.38363400000000003,0.359129,0.303167
2018-10-16T23:27:47.993693Z,-0.866138,-0.789167,0.194496
2018-10-16T23:27:48.194693Z,-0.405895,-0.239542,-0.361247
2018-10-16T23:27:48.393693Z,-0.33958699999999997,0.45155200000000006,-0.40484699999999996
2018-10-16T23:27:48.593693Z,0.190945,0.489015,0.589435
2018-10-16T23:27:48.794693Z,0.380314,-0.34434699999999996,1.212593
2018-10-16T23:27:48.994693Z,-0.073532,-1.061216,-1.193698
2018-10-16T23:27:49.194693Z,-0.571911,0.735157,-0.109975
2018-10-16T23:27:49.393693Z,-0.26683,0.30025799999999997,0.626949
2018-10-16T23:27:49.593693Z,-0.566702,-0.200294,0.5102180000000001
2018-10-16T23:27:49.793693Z,0.8313729999999999,-0.413759,-0.27837399999999995
2018-10-16T23:27:49.993693Z,0.14519200000000002,-0.28115500000000004,-0.450542
2018-10-16T23:27:50.201693Z,0.397837,0.91225,-0.37869899999999995
2018-10-16T23:27:50.393693Z,0.152134,0.700209,1.0471059999999999
2018-10-16T23:27:50.593693Z,-0.167495,-0.515119,0.972874
2018-10-16T23:27:50.793693Z,0.041277999999999995,-1.033644,-0.923059
2018-10-16T23:27:50.994693Z,-0.420699,0.40224899999999997,0.14497100000000002
2018-10-16T23:27:51.194693Z,-0.116671,0.972413,0.16279200000000002
2018-10-16T23:27:51.395693Z,0.055285,0.588784,0.21575
2018-10-16T23:27:51.595693Z,0.08116799999999999,-0.23971599999999998,0.116074
2018-10-16T23:27:51.796693Z,0.5611659999999999,0.419828,-0.823126
2018-10-16T23:27:51.996693Z,0.603607,0.686423,-0.334303
2018-10-16T23:27:52.196693Z,0.5677989999999999,-0.099307,1.32818
2018-10-16T23:27:52.394693Z,0.500684,-0.06746,0.568823
2018-10-16T23:27:52.616693Z,0.354024,-0.224728,0.441072
2018-10-16T23:27:52.811693Z,-0.359036,0.660755,-0.23317600000000002
2018-10-16T23:27:53.009693Z,-0.11179800000000001,0.17179,0.521018
2018-10-16T23:27:53.211693Z,0.8606879999999999,-0.7705649999999999,0.38597
2018-10-16T23:27:53.413693Z,0.638311,0.179411,-0.979068
2018-10-16T23:27:53.597693Z,-0.039878,0.6402140000000001,0.9952030000000001
2018-10-16T23:27:53.797693Z,0.355007,0.37296799999999997,0.537445
2018-10-16T23:27:53.997693Z,0.029876999999999997,-0.8922479999999999,1.179214
2018-10-16T23:27:54.197693Z,0.030192,-0.731805,-0.818023
2018-10-16T23:27:54.397693Z,-0.070614,0.243209,-0.067913
2018-10-16T23:27:54.612693Z,-0.021679,0.654061,-0.158243
2018-10-16T23:27:54.796693Z,-0.256757,0.41822200000000004,0.696637
2018-10-16T23:27:55.030693Z,0.029467,-1.014411,-0.484429
2018-10-16T23:27:55.197693Z,-0.699994,0.020211,-0.754235
2018-10-16T23:27:55.398693Z,0.26206,0.593882,0.10215700000000001
2018-10-16T23:27:55.597693Z,0.549246,0.370344,0.408659
2018-10-16T23:27:55.798693Z,-0.031492,-0.973671,-0.41365
2018-10-16T23:27:55.996693Z,-0.064511,-0.724125,-0.51264
2018-10-16T23:27:56.197693Z,-0.19619,0.349099,-0.626951
2018-10-16T23:27:56.397693Z,-0.43853100000000006,0.5109739999999999,0.047143
2018-10-16T23:27:56.599693Z,-0.18905999999999998,-0.43743699999999996,0.321493
2018-10-16T23:27:56.797693Z,0.250266,-0.8445459999999999,-0.333793
2018-10-16T23:27:56.998693Z,-0.051770000000000004,0.199167,-0.747192
2018-10-16T23:27:57.198693Z,0.048063,0.5620390000000001,-0.069578
2018-10-16T23:27:57.411693Z,0.072726,0.279781,0.5533140000000001
2018-10-16T23:27:57.599693Z,0.040868,-0.954449,0.612975
2018-10-16T23:27:57.800693Z,0.015456999999999999,-0.713121,-0.738312
2018-10-16T23:27:58.000693Z,-0.23057800000000003,0.275908,-0.567321
2018-10-16T23:27:58.200693Z,-0.407476,0.447734,0.9428850000000001
2018-10-16T23:27:58.400693Z,-0.46848500000000004,-0.243981,0.6945180000000001
2018-10-16T23:27:58.628693Z,0.016907,-1.3704889999999998,0.163511
2018-10-16T23:27:58.800693Z,-0.273579,-0.33827399999999996,-1.464905
2018-10-16T23:27:59.000693Z,-0.721735,0.304139,0.929322
2018-10-16T23:27:59.200693Z,-1.552697,-0.743576,0.36851999999999996
2018-10-16T23:27:59.401693Z,-0.739996,-0.5504720000000001,-1.049862
2018-10-16T23:27:59.601693Z,-0.260525,-0.385402,0.478996
2018-10-16T23:27:59.818693Z,0.756937,0.720422,0.848937
2018-10-16T23:28:00.001693Z,0.513306,-0.030329000000000002,0.355454
2018-10-16T23:28:00.201693Z,1.0539370000000001,-0.798914,-0.29131999999999997
2018-10-16T23:28:00.401693Z,0.8628379999999999,-0.344498,-0.6975180000000001
2018-10-16T23:28:00.601693Z,0.938586,0.8908200000000001,-0.43089399999999994
2018-10-16T23:28:00.801693Z,0.711015,0.667728,0.8292510000000001
2018-10-16T23:28:01.001693Z,0.9555969999999999,-0.191166,0.489806
2018-10-16T23:28:01.217693Z,1.3994090000000001,-0.847558,0.198898
2018-10-16T23:28:01.406693Z,0.413682,0.479055,-0.43308800000000003
2018-10-16T23:28:01.617693Z,0.507362,0.8551620000000001,-0.003992
2018-10-16T23:28:01.802693Z,-0.19981,0.726725,0.252833
2018-10-16T23:28:02.018693Z,0.691156,-0.542434,0.388814
2018-10-16T23:28:02.202693Z,0.538417,0.039383999999999995,-0.41993500000000006
2018-10-16T23:28:02.403693Z,0.71996,0.15272,-0.215299
2018-10-16T23:28:02.602693Z,-0.047022,0.679647,-0.004615
2018-10-16T23:28:02.866693Z,1.303252,0.147027,1.06939
2018-10-16T23:28:03.003693Z,0.30105,-0.58733,-0.22886700000000001
2018-10-16T23:28:03.206693Z,0.983718,0.531676,0.025761000000000003
2018-10-16T23:28:03.441693Z,-0.192389,0.265393,-0.139319
2018-10-16T23:28:03.605693Z,0.109705,-0.073494,0.8748469999999999
2018-10-16T23:28:03.841693Z,0.381132,-0.709259,-0.606068
2018-10-16T23:28:04.005693Z,0.794145,0.020442,-0.348783
2018-10-16T23:28:04.225693Z,0.179976,0.551407,-0.606742
2018-10-16T23:28:04.403693Z,0.675928,0.394911,0.8832129999999999
2018-10-16T23:28:04.604693Z,0.18293,-0.694605,-0.476891
2018-10-16T23:28:04.821693Z,0.334875,-0.193973,-0.393663
2018-10-16T23:28:05.005693Z,0.182186,0.3672,-0.224138
2018-10-16T23:28:05.205693Z,-0.286722,0.45103000000000004,0.146875
2018-10-16T23:28:05.406693Z,0.450613,-0.757602,-0.15515299999999999
2018-10-16T23:28:05.606693Z,0.531863,-0.894394,-0.342279
2018-10-16T23:28:05.806693Z,0.536049,0.5943,-1.093449
2018-10-16T23:28:06.006693Z,0.546603,0.45249300000000003,0.285581
2018-10-16T23:28:06.205693Z,0.021391999999999998,-0.296953,0.740742
2018-10-16T23:28:06.405693Z,-0.05665,-0.9107120000000001,-0.719742
2018-10-16T23:28:06.605693Z,-0.035802,-0.89351,-0.310143
2018-10-16T23:28:06.805693Z,-0.177932,0.35339299999999996,-0.5931529999999999
2018-10-16T23:28:07.054693Z,-0.087005,0.443874,1.082869
2018-10-16T23:28:07.205693Z,0.635031,-0.929851,0.005947
2018-10-16T23:28:07.405693Z,0.421353,0.011940000000000001,-0.750776
2018-10-16T23:28:07.605693Z,0.281817,0.154448,-0.52781
2018-10-16T23:28:07.807693Z,0.103308,0.916085,0.963124
2018-10-16T23:28:08.007693Z,0.109484,-1.002502,0.424088
2018-10-16T23:28:08.207693Z,-0.339656,0.2974,-1.0182200000000001
2018-10-16T23:28:08.406693Z,-0.9612959999999999,0.244657,-0.41734099999999996
2018-10-16T23:28:08.608693Z,0.392962,0.068616,0.8785299999999999
2018-10-16T23:28:08.806693Z,0.141751,-0.529295,-0.191775
2018-10-16T23:28:09.007693Z,0.159332,-0.750838,0.063609
2018-10-16T23:28:09.218693Z,0.23303400000000002,-0.094293,-0.118154
2018-10-16T23:28:09.408693Z,0.349612,1.053347,0.560314
2018-10-16T23:28:09.607693Z,-0.305704,0.259929,0.9138370000000001
2018-10-16T23:28:09.807693Z,-0.181409,-0.7159260000000001,-0.19933299999999998
2018-10-16T23:28:10.007693Z,-0.317833,-0.146602,-0.8176359999999999
2018-10-16T23:28:10.224693Z,0.711538,0.937917,0.602023
2018-10-16T23:28:10.426693Z,0.42442299999999994,0.535034,0.552639
2018-10-16T23:28:10.609693Z,0.9194530000000001,-0.606577,0.260284
2018-10-16T23:28:10.818693Z,0.43650100000000003,-1.240607,0.520282
2018-10-16T23:28:11.007693Z,-0.153368,0.232846,-0.9372889999999999
2018-10-16T23:28:11.210693Z,0.318771,-0.357769,1.0770680000000001
2018-10-16T23:28:11.410693Z,0.424145,-0.764051,1.0076969999999998
2018-10-16T23:28:11.609693Z,0.49642600000000003,-0.691037,-0.265264
2018-10-16T23:28:11.810693Z,0.009743,-0.366854,0.507998
2018-10-16T23:28:12.009693Z,0.679511,-0.18034,0.143967
2018-10-16T23:28:12.210693Z,0.281312,0.002397,0.06969500000000001
2018-10-16T23:28:12.410693Z,0.9850909999999999,-0.210745,0.442956
2018-10-16T23:28:12.610693Z,0.665654,0.37492600000000004,-0.49332600000000004
2018-10-16T23:28:12.810693Z,0.299625,-0.29235300000000003,0.47485299999999997
2018-10-16T23:28:13.028693Z,0.693407,-0.45552200000000004,0.327406
2018-10-16T23:28:13.211693Z,1.341372,-0.504813,0.6698310000000001
2018-10-16T23:28:13.410693Z,1.237208,-0.944836,-0.080356
2018-10-16T23:28:13.610693Z,0.9709700000000001,-0.10934200000000001,-0.402283
2018-10-16T23:28:13.811693Z,0.680555,0.706996,0.476046
2018-10-16T23:28:14.069693Z,0.295793,0.33411399999999997,1.124163
2018-10-16T23:28:14.212693Z,0.914494,-1.056781,-0.199882
2018-10-16T23:28:14.446693Z,0.397673,-0.844986,-0.26122199999999995
2018-10-16T23:28:14.611693Z,0.323836,0.185784,-0.480029
2018-10-16T23:28:14.811693Z,0.134676,0.669226,-0.211851
2018-10-16T23:28:15.013693Z,0.918113,0.026956,1.073133
2018-10-16T23:28:15.213693Z,0.547817,-1.201211,0.012921
2018-10-16T23:28:15.457693Z,0.512514,-0.508566,-0.514724
2018-10-16T23:28:15.611693Z,0.364066,-0.022445,-0.436691
2018-10-16T23:28:15.812693Z,1.1598899999999999,-0.008929000000000001,1.121059
2018-10-16T23:28:16.012693Z,1.559882,-0.9835370000000001,0.583037
2018-10-16T23:28:16.212693Z,1.692948,-1.008767,-0.076421
2018-10-16T23:28:16.414693Z,1.7653349999999999,-0.545655,-0.0021149999999999997
2018-10-16T23:28:16.627693Z,-0.03143,-0.063734,1.04514
2018-10-16T23:28:16.831693Z,0.568579,-0.806335,1.2011020000000001
2018-10-16T23:28:17.014693Z,-0.308744,-1.8056459999999999,-0.22566399999999998
2018-10-16T23:28:17.214693Z,0.325923,-1.133318,-0.106001
2018-10-16T23:28:17.447693Z,-0.425334,0.309077,0.20439300000000002
2018-10-16T23:28:17.612693Z,-0.18295,0.879559,0.622129
2018-10-16T23:28:17.812693Z,-0.409919,-1.491989,1.0030299999999999
2018-10-16T23:28:18.013693Z,-0.164106,-1.215263,-0.723739
2018-10-16T23:28:18.214693Z,0.052197,0.18503699999999998,-0.448284
2018-10-16T23:28:18.414693Z,-0.03764,0.631799,1.146384
2018-10-16T23:28:18.615693Z,0.385413,0.219187,0.729115
2018-10-16T23:28:18.831693Z,0.639428,-1.761138,0.556578
2018-10-16T23:28:19.014693Z,0.084595,-0.815492,-0.318576
2018-10-16T23:28:19.224693Z,0.357023,-0.025802,-0.310721
2018-10-16T23:28:19.414693Z,0.163,0.30935799999999997,0.06917100000000001
2018-10-16T23:28:19.614693Z,0.7433930000000001,0.026503,1.0300040000000001
2018-10-16T23:28:19.814693Z,0.668139,-1.492918,0.090237
2018-10-16T23:28:20.016693Z,0.745795,-0.652996,-0.5682590000000001
2018-10-16T23:28:20.216693Z,0.169475,0.095667,-0.09777000000000001
2018-10-16T23:28:20.416693Z,0.290665,-0.09412000000000001,1.2350729999999999
2018-10-16T23:28:20.616693Z,0.025608999999999996,-1.586897,-0.638804
2018-10-16T23:28:20.848693Z,0.18513800000000002,-1.392623,-0.150068
2018-10-16T23:28:21.016693Z,-0.258903,-0.26352800000000004,0.039443
2018-10-16T23:28:21.215693Z,0.24169899999999997,0.043487,0.807231
2018-10-16T23:28:21.430693Z,0.423655,-1.3090700000000002,-0.064957
2018-10-16T23:28:21.616693Z,0.14611500000000002,-1.111479,0.333712
2018-10-16T23:28:21.818693Z,0.550751,-0.322774,-1.035459
2018-10-16T23:28:22.035693Z,0.361433,0.32199,-0.21610100000000002
2018-10-16T23:28:22.218693Z,-1.038265,-1.049876,0.8195049999999999
2018-10-16T23:28:22.417693Z,0.20544,-1.720753,-0.42454200000000003
2018-10-16T23:28:22.617693Z,-0.399963,-1.224077,-0.19079200000000002
2018-10-16T23:28:22.829693Z,0.771474,0.021588999999999997,0.46492100000000003
2018-10-16T23:28:23.016693Z,0.46883800000000003,0.036274,1.029531
2018-10-16T23:28:23.216693Z,-1.157324,-1.230507,-0.072784
2018-10-16T23:28:23.417693Z,-0.795154,-0.8933,-0.443763
2018-10-16T23:28:23.617693Z,-1.387182,-0.041864,-0.9514790000000001
2018-10-16T23:28:23.819693Z,0.095776,-0.235801,1.258828
2018-10-16T23:28:24.018693Z,0.681193,-0.904118,1.166089
2018-10-16T23:28:24.219693Z,0.6677649999999999,0.196983,-0.9155110000000001
2018-10-16T23:28:24.420693Z,0.016853,0.370109,-0.597671
2018-10-16T23:28:24.624693Z,0.478567,1.311172,0.522331
2018-10-16T23:28:24.819693Z,0.21508000000000002,-0.105807,0.459081
2018-10-16T23:28:25.020693Z,0.15634800000000001,-1.0715290000000002,0.250625
2018-10-16T23:28:25.218693Z,0.835017,-0.69408,-0.101293
2018-10-16T23:28:25.419693Z,0.054344,0.615698,-0.42928599999999995
2018-10-16T23:28:25.619693Z,-1.061509,0.433101,0.768207
2018-10-16T23:28:25.820693Z,-1.1746159999999999,-1.289477,0.893258
2018-10-16T23:28:26.020693Z,0.197024,-0.519231,-1.077423
2018-10-16T23:28:26.238693Z,-0.28065500000000004,-0.16533699999999998,0.6566310000000001
2018-10-16T23:28:26.420693Z,1.4181620000000001,-0.26076900000000003,0.8010689999999999
2018-10-16T23:28:26.620693Z,0.9618030000000001,-0.375974,0.586233
2018-10-16T23:28:26.820693Z,0.8312809999999999,-1.0152290000000002,-0.017143000000000002
2018-10-16T23:28:27.020693Z,0.860891,-0.117959,-0.257102
2018-10-16T23:28:27.220693Z,0.723379,0.570569,0.549443
2018-10-16T23:28:27.420693Z,0.6087600000000001,-0.092083,1.012775
2018-10-16T23:28:27.666693Z,1.030957,-0.819739,0.73406
2018-10-16T23:28:27.820693Z,0.8731530000000001,-0.34991700000000003,1.168649
2018-10-16T23:28:28.021693Z,1.7075529999999999,-0.081562,0.099013
2018-10-16T23:28:28.220693Z,1.1025909999999999,-0.473078,-0.098356
2018-10-16T23:28:28.421693Z,0.547891,-0.341781,0.57728
2018-10-16T23:28:28.621693Z,0.625736,-0.9168780000000001,-0.40534000000000003
2018-10-16T23:28:28.821693Z,0.7071,-0.705986,0.857391
2018-10-16T23:28:29.039693Z,0.8383950000000001,-0.33560100000000004,-0.14773499999999998
2018-10-16T23:28:29.222693Z,0.646231,-0.017851,0.014717
2018-10-16T23:28:29.422693Z,-0.570036,-0.529597,0.746892
2018-10-16T23:28:29.636693Z,-0.8246899999999999,-1.1608969999999998,-0.11929400000000001
2018-10-16T23:28:29.823693Z,-0.7521939999999999,-0.83986,-0.278807
2018-10-16T23:28:30.022693Z,-0.232386,-0.009427,-0.2286
2018-10-16T23:28:30.222693Z,-0.18501099999999998,-0.002764,0.467458
2018-10-16T23:28:30.423693Z,0.12291300000000001,-0.750034,0.37795700000000004
2018-10-16T23:28:30.634693Z,0.126693,-1.049613,0.323133
2018-10-16T23:28:30.824693Z,-0.377073,0.06985,-1.25324
2018-10-16T23:28:31.025693Z,-1.081213,0.011681,0.987604
2018-10-16T23:28:31.222693Z,-0.9329639999999999,-1.397049,0.522604
2018-10-16T23:28:31.423693Z,-0.7327,-0.927536,-0.684916
2018-10-16T23:28:31.623693Z,-0.72544,-0.533539,-0.067955
2018-10-16T23:28:31.824693Z,0.580883,0.688051,0.5578609999999999
2018-10-16T23:28:32.023693Z,0.46912,0.349643,1.2940120000000002
2018-10-16T23:28:32.224693Z,0.719952,-0.7292109999999999,0.178715
2018-10-16T23:28:32.424693Z,0.24384899999999998,-0.174994,-0.26165900000000003
2018-10-16T23:28:32.623693Z,0.415595,0.356618,-0.327865
