Datetime,accx,accy,accz
2018-10-25T19:32:33.707511Z,-1.644409,2.71283,-0.770508
2018-10-25T19:32:33.916511Z,-1.247498,0.621155,0.381897
2018-10-25T19:32:34.118511Z,0.21820100000000003,1.8884889999999999,-1.335815
2018-10-25T19:32:34.311511Z,0.5875239999999999,-0.054321,-0.173035
2018-10-25T19:32:34.512511Z,-0.022644,-0.177795,0.266968
2018-10-25T19:32:34.712511Z,-0.6369630000000001,0.72168,-0.074951
2018-10-25T19:32:34.914511Z,-0.45636000000000004,-1.259521,1.239624
2018-10-25T19:32:35.116511Z,-0.249146,-2.081055,-0.802063
2018-10-25T19:32:35.311511Z,-1.380859,-1.03595,0.385925
2018-10-25T19:32:35.518511Z,-1.3941649999999999,-0.817261,1.141846
2018-10-25T19:32:35.710511Z,0.040588,-1.427979,0.553955
2018-10-25T19:32:35.915511Z,-0.151367,-1.309875,-0.7677609999999999
2018-10-25T19:32:36.110511Z,-0.22345,-0.0979,0.6115109999999999
2018-10-25T19:32:36.310511Z,-1.269775,-1.609497,2.38092
2018-10-25T19:32:36.510511Z,-1.407227,-2.009399,-0.70813
2018-10-25T19:32:36.726511Z,-0.9823,-0.8356319999999999,-0.533691
2018-10-25T19:32:36.924511Z,0.407959,-1.4727780000000001,1.304626
2018-10-25T19:32:37.110511Z,-0.42645299999999997,-1.345337,-0.153564
2018-10-25T19:32:37.310511Z,-1.6502689999999998,-0.429504,-0.386841
2018-10-25T19:32:37.510511Z,0.492065,-1.15625,1.427124
2018-10-25T19:32:37.710511Z,-1.317688,-2.791016,1.771423
2018-10-25T19:32:37.910511Z,-1.475525,-1.640381,-0.49108900000000005
2018-10-25T19:32:38.318511Z,-0.769043,-0.582642,1.081604
2018-10-25T19:32:38.510511Z,-0.509338,-1.5336299999999998,0.716248
2018-10-25T19:32:38.712511Z,-0.338989,-1.2410889999999999,-0.356995
2018-10-25T19:32:38.922511Z,-1.0128780000000002,-0.115417,0.673767
2018-10-25T19:32:39.119511Z,-1.049866,-2.13678,0.441833
2018-10-25T19:32:39.320511Z,-1.432251,-2.728027,0.734558
2018-10-25T19:32:39.526511Z,-0.565552,-2.116333,0.241577
2018-10-25T19:32:39.722511Z,-0.768555,-1.058044,0.700623
2018-10-25T19:32:39.924511Z,-0.235535,-0.048218000000000004,0.049744
2018-10-25T19:32:40.126511Z,-0.726685,-0.31604,0.466003
2018-10-25T19:32:40.324511Z,0.431824,-1.5672,0.9995120000000001
2018-10-25T19:32:40.535511Z,-0.299011,-1.525574,-1.365479
2018-10-25T19:32:40.721511Z,0.040405,-0.329041,0.019775
2018-10-25T19:32:40.921511Z,-0.402161,-0.6091310000000001,0.482422
2018-10-25T19:32:41.128511Z,-0.633911,-2.146118,0.649963
2018-10-25T19:32:41.343511Z,-0.8395389999999999,-1.533264,-1.381592
2018-10-25T19:32:41.527511Z,-1.174744,-0.542175,1.4609379999999998
2018-10-25T19:32:41.729511Z,-0.8531489999999999,-0.11486800000000001,0.323853
2018-10-25T19:32:41.925511Z,-0.13305699999999998,-1.392334,-0.029236
2018-10-25T19:32:42.122511Z,0.369873,-1.348694,-1.452026
2018-10-25T19:32:42.335511Z,-0.940796,0.16217,-1.022583
2018-10-25T19:32:42.521511Z,-0.7169800000000001,-0.564453,1.534058
2018-10-25T19:32:42.725511Z,-0.900085,-1.942505,1.929932
2018-10-25T19:32:42.930511Z,-1.474304,-1.834229,-0.7086180000000001
2018-10-25T19:32:43.139511Z,-0.41394,-0.185608,-0.8402709999999999
2018-10-25T19:32:43.333511Z,-0.17413299999999998,-1.078491,0.111572
2018-10-25T19:32:43.522511Z,0.067566,-1.7372439999999998,1.106384
2018-10-25T19:32:43.722511Z,-0.7436520000000001,-0.9918819999999999,-0.783691
2018-10-25T19:32:43.923511Z,-0.368103,0.059630999999999997,0.572388
2018-10-25T19:32:44.125511Z,-1.163025,-1.9373779999999998,1.7077639999999998
2018-10-25T19:32:44.332511Z,-1.619263,-2.120605,0.22662399999999996
2018-10-25T19:32:44.521511Z,-1.122803,-0.9097290000000001,-0.13446
2018-10-25T19:32:44.722511Z,-1.156128,-0.062073,-0.054199000000000004
2018-10-25T19:32:44.921511Z,-2.217407,-0.782104,1.041321
2018-10-25T19:32:45.120511Z,-2.188843,-1.376892,0.600647
2018-10-25T19:32:45.322511Z,-2.6282959999999997,-1.519043,0.42486599999999997
2018-10-25T19:32:45.523511Z,-1.0692139999999999,-1.5650629999999999,0.502869
2018-10-25T19:32:45.721511Z,-0.47936999999999996,-0.415894,0.0072629999999999995
2018-10-25T19:32:45.923511Z,-1.8051150000000002,-1.202698,1.042969
2018-10-25T19:32:46.125511Z,-2.593811,-0.39855999999999997,-0.979309
2018-10-25T19:32:46.311511Z,-1.871216,0.093628,-0.616577
2018-10-25T19:32:46.526511Z,-1.844116,0.811768,-0.382996
2018-10-25T19:32:46.741511Z,-1.343201,0.38311799999999996,0.13324
2018-10-25T19:32:46.921511Z,-1.36499,-1.302979,1.6664430000000001
2018-10-25T19:32:47.120511Z,-1.083496,-0.283142,-0.379395
2018-10-25T19:32:47.322511Z,-1.725037,-0.346252,-0.46173100000000006
2018-10-25T19:32:47.521511Z,-0.99054,0.034241,0.064941
2018-10-25T19:32:47.723511Z,-0.906799,-0.597717,0.485596
2018-10-25T19:32:47.926511Z,-1.707336,-0.672729,-1.011658
2018-10-25T19:32:48.121511Z,-2.3112790000000003,-0.096802,-1.3052979999999998
2018-10-25T19:32:48.323511Z,-1.262024,0.788879,-0.159851
2018-10-25T19:32:48.521511Z,-0.972168,0.9174190000000001,-0.40008499999999997
2018-10-25T19:32:48.721511Z,-1.6064450000000001,-0.08154299999999999,0.8107300000000001
2018-10-25T19:32:48.922511Z,-1.439514,-0.903198,-1.408936
2018-10-25T19:32:49.120511Z,-1.317688,-0.030762,0.086121
2018-10-25T19:32:49.318511Z,-0.691711,0.6304930000000001,0.054564999999999995
2018-10-25T19:32:49.520511Z,-0.038635,0.686462,-0.338013
2018-10-25T19:32:49.727511Z,-1.249451,-0.244873,0.132874
2018-10-25T19:32:49.921511Z,-1.4204709999999998,-0.8577879999999999,-0.294128
2018-10-25T19:32:50.120511Z,-0.963989,0.203308,-0.939392
2018-10-25T19:32:50.320511Z,-0.8746950000000001,0.656982,-0.45892299999999997
2018-10-25T19:32:50.520511Z,-0.008179,0.09454299999999999,-0.2453
2018-10-25T19:32:50.723511Z,-0.147034,-0.8973389999999999,-1.497192
2018-10-25T19:32:50.941511Z,-0.13305699999999998,0.17236300000000002,-0.11682100000000001
2018-10-25T19:32:51.124511Z,-0.473083,0.179749,-0.202026
2018-10-25T19:32:51.323511Z,0.13256800000000002,0.286621,0.0045780000000000005
2018-10-25T19:32:51.523511Z,0.077515,-0.035706,0.14056400000000002
2018-10-25T19:32:51.721511Z,-0.42077600000000004,-0.796082,-0.012268000000000001
2018-10-25T19:32:51.921511Z,-0.284302,-0.490051,0.228271
2018-10-25T19:32:52.135511Z,-0.926208,0.056641,-0.583679
2018-10-25T19:32:52.328511Z,-0.692505,0.189209,-0.579529
2018-10-25T19:32:52.540511Z,0.082336,0.48168900000000003,0.208008
2018-10-25T19:32:52.921511Z,-1.22644,-0.986023,1.8925169999999998
2018-10-25T19:32:53.120511Z,-0.161987,-0.054443,-0.680725
2018-10-25T19:32:53.320511Z,-0.723877,0.365173,-0.212036
2018-10-25T19:32:53.519511Z,0.19781500000000002,0.290466,-0.14013699999999998
2018-10-25T19:32:53.719511Z,-0.301575,-1.493225,1.7919310000000002
2018-10-25T19:32:53.917511Z,-0.18243399999999999,-1.864685,-0.604858
2018-10-25T19:32:54.121511Z,-0.184875,-0.861267,0.005981
2018-10-25T19:32:54.322511Z,0.137268,-0.078796,0.188904
2018-10-25T19:32:54.524511Z,-0.460876,-0.17687999999999998,0.059326
2018-10-25T19:32:54.743511Z,-0.24664299999999997,-0.642883,2.657532
2018-10-25T19:32:54.930511Z,0.33563200000000004,-0.22662399999999996,-0.234558
2018-10-25T19:32:55.124511Z,-0.013062,0.152039,0.644043
2018-10-25T19:32:55.323511Z,-0.167114,0.00293,-0.306396
2018-10-25T19:32:55.521511Z,0.374695,1.120117,-0.20813
2018-10-25T19:32:55.721511Z,0.982605,0.930847,-1.1875
2018-10-25T19:32:55.922511Z,0.856934,1.212708,-0.139221
2018-10-25T19:32:56.120511Z,0.73407,1.181274,-1.162415
2018-10-25T19:32:56.339511Z,0.07885700000000001,-0.579956,0.911682
2018-10-25T19:32:56.526511Z,0.096313,-0.8305049999999999,0.332214
2018-10-25T19:32:56.718511Z,-0.5917359999999999,-0.43676800000000005,-1.035095
2018-10-25T19:32:56.921511Z,0.139404,0.340088,-0.31494099999999997
2018-10-25T19:32:57.126511Z,-0.096741,0.7151489999999999,-0.047729
2018-10-25T19:32:57.320511Z,0.798523,-0.397766,-0.840759
2018-10-25T19:32:57.520511Z,-0.056885000000000005,0.668762,-1.323608
2018-10-25T19:32:57.718511Z,0.261108,0.9136350000000001,0.605408
2018-10-25T19:32:57.922511Z,0.8846440000000001,0.852417,-0.360901
2018-10-25T19:32:58.135511Z,1.0354,-0.608643,-0.236816
2018-10-25T19:32:58.330511Z,1.6745,-1.68927,-0.166687
2018-10-25T19:32:58.521511Z,0.609558,-0.48779300000000003,0.044189
2018-10-25T19:32:58.728511Z,-0.7281489999999999,0.866333,-0.28118899999999997
2018-10-25T19:32:58.921511Z,-0.960205,1.130981,-1.022705
2018-10-25T19:32:59.121511Z,-1.003174,0.6443479999999999,-0.18975799999999998
2018-10-25T19:32:59.321511Z,0.492432,0.606873,-0.15173299999999998
2018-10-25T19:32:59.522511Z,1.681641,0.982361,-0.8712770000000001
2018-10-25T19:32:59.711511Z,-0.581909,1.663513,-0.991577
2018-10-25T19:32:59.926511Z,-0.26574699999999996,2.8422240000000003,-0.798157
2018-10-25T19:33:00.126511Z,-0.067688,1.447632,0.787415
2018-10-25T19:33:00.321511Z,0.336121,-0.8389280000000001,-0.059691999999999995
2018-10-25T19:33:00.524511Z,-0.536499,-0.262207,-0.908691
2018-10-25T19:33:00.746511Z,-0.191101,0.548279,-0.878906
2018-10-25T19:33:00.924511Z,-0.40155,0.622437,-1.064453
2018-10-25T19:33:01.126511Z,-0.591919,1.377197,-1.044006
2018-10-25T19:33:01.319511Z,-0.45428500000000005,0.427063,0.026978
2018-10-25T19:33:01.525511Z,0.396484,-0.043884,0.286011
2018-10-25T19:33:01.722511Z,0.25238,0.532959,-0.977966
2018-10-25T19:33:01.921511Z,-0.025024,0.892395,-0.648071
2018-10-25T19:33:02.128511Z,0.142334,0.646057,0.067505
2018-10-25T19:33:02.319511Z,0.697998,-0.31543000000000004,1.2939450000000001
2018-10-25T19:33:02.534511Z,-0.149841,-1.06427,-0.765442
2018-10-25T19:33:02.720511Z,-1.03064,-0.161743,-0.99115
2018-10-25T19:33:02.921511Z,-0.000305,0.013733,-0.565186
2018-10-25T19:33:03.124511Z,-0.074097,0.620911,0.044312
2018-10-25T19:33:03.320511Z,-1.1247559999999999,-0.174377,1.2005620000000001
2018-10-25T19:33:03.520511Z,-0.291504,-0.917969,-0.41448999999999997
2018-10-25T19:33:03.720511Z,0.22534200000000001,0.20165999999999998,-0.6252439999999999
2018-10-25T19:33:03.921511Z,-0.22405999999999998,0.353333,-0.9237059999999999
2018-10-25T19:33:04.120511Z,0.43286099999999994,0.304321,0.094788
2018-10-25T19:33:04.317511Z,0.629333,-0.45282,1.4585569999999999
2018-10-25T19:33:04.530511Z,0.125366,-0.691345,-0.18090799999999999
2018-10-25T19:33:04.720511Z,-0.154846,-0.786438,-0.592224
2018-10-25T19:33:04.974511Z,-1.2514040000000002,-0.123352,-0.962463
2018-10-25T19:33:05.119511Z,-0.177795,0.521545,0.085327
2018-10-25T19:33:05.320511Z,-0.531311,0.299133,-0.09814500000000001
2018-10-25T19:33:05.523511Z,-0.754578,-0.582458,0.670044
2018-10-25T19:33:05.722511Z,-1.363342,-0.287476,0.027832
2018-10-25T19:33:05.922511Z,-1.411865,-0.356689,0.257446
2018-10-25T19:33:06.125511Z,-0.960266,-0.685669,0.248169
2018-10-25T19:33:06.320511Z,-0.35144000000000003,-0.203308,0.167419
2018-10-25T19:33:06.720511Z,-0.262756,-0.604187,0.993835
2018-10-25T19:33:06.920511Z,-0.8963620000000001,-1.466858,-0.072021
2018-10-25T19:33:07.121511Z,-1.139465,-0.7434689999999999,-0.731262
2018-10-25T19:33:07.320511Z,-0.618225,0.010131999999999999,0.027710000000000002
2018-10-25T19:33:07.520511Z,-0.265259,0.281555,-0.520874
2018-10-25T19:33:07.720511Z,-0.516357,-0.821106,0.9019780000000001
2018-10-25T19:33:07.920511Z,-0.717407,-0.298401,-1.036865
2018-10-25T19:33:08.120511Z,-1.058289,-0.174377,-0.051025
2018-10-25T19:33:08.358511Z,-0.52887,0.002869,0.13281199999999999
2018-10-25T19:33:08.526511Z,0.048401,-0.34991500000000003,0.133423
2018-10-25T19:33:08.744511Z,-0.6663819999999999,-0.454773,0.010498
2018-10-25T19:33:08.926511Z,-1.7037349999999998,-0.44641099999999995,-0.833191
2018-10-25T19:33:09.121511Z,-2.169861,-0.006531,-1.053101
2018-10-25T19:33:09.322511Z,-0.990784,0.437378,-0.015563999999999998
2018-10-25T19:33:09.522511Z,-0.9526370000000001,0.6765140000000001,-0.344421
2018-10-25T19:33:09.721511Z,-1.085022,-0.275146,0.25885
2018-10-25T19:33:09.936511Z,-1.540771,-0.779175,-0.087646
2018-10-25T19:33:10.120511Z,-1.565186,0.186157,-0.618225
2018-10-25T19:33:10.318511Z,-0.982605,0.381653,-0.20013399999999998
2018-10-25T19:33:10.531511Z,-0.023621,-0.07775900000000001,-0.32824699999999996
2018-10-25T19:33:10.731511Z,0.456421,-0.508301,-0.060547000000000004
2018-10-25T19:33:10.922511Z,-0.884338,-1.125793,-0.38916
2018-10-25T19:33:11.120511Z,-1.0687870000000002,-0.527405,-0.740479
2018-10-25T19:33:11.317511Z,-0.404053,0.467041,-0.578918
2018-10-25T19:33:11.522511Z,-0.341614,0.487,0.07019
2018-10-25T19:33:11.723511Z,-0.920776,-0.836304,0.528564
2018-10-25T19:33:11.923511Z,-0.671326,-0.21636999999999998,-0.093811
2018-10-25T19:33:12.121511Z,0.896057,0.072144,1.303223
2018-10-25T19:33:12.321511Z,-0.279175,0.537292,-0.311035
2018-10-25T19:33:12.521511Z,0.091003,0.352112,-0.381958
2018-10-25T19:33:12.740511Z,-0.020569,-0.9854129999999999,1.155029
2018-10-25T19:33:12.920511Z,-0.343567,-1.453125,0.523071
2018-10-25T19:33:13.120511Z,-0.574707,-0.933167,-0.417603
2018-10-25T19:33:13.332511Z,-0.732483,-0.503418,-1.1488040000000002
2018-10-25T19:33:13.525511Z,-0.45892299999999997,0.266296,-0.22229000000000002
2018-10-25T19:33:13.729511Z,-0.9664309999999999,0.220581,0.22351100000000002
2018-10-25T19:33:13.926511Z,-0.805725,-0.317078,-0.018311
2018-10-25T19:33:14.121511Z,0.895691,-0.409851,-1.268677
2018-10-25T19:33:14.321511Z,0.939575,0.343567,0.158325
2018-10-25T19:33:14.521511Z,0.60614,0.515564,-0.708252
2018-10-25T19:33:14.720511Z,0.050963999999999995,1.259766,1.430542
2018-10-25T19:33:14.920511Z,0.5938720000000001,-0.369141,0.334961
2018-10-25T19:33:15.114511Z,0.053833000000000006,-1.849304,-0.512451
2018-10-25T19:33:15.321511Z,-0.219543,-1.1115110000000001,-0.0047
2018-10-25T19:33:15.528511Z,0.182678,-0.622925,0.0070799999999999995
2018-10-25T19:33:15.722511Z,0.588989,0.084595,-0.46936000000000005
2018-10-25T19:33:15.932511Z,-0.090149,-0.226685,0.34075900000000003
2018-10-25T19:33:16.121511Z,-0.280823,-1.125061,1.8894650000000002
2018-10-25T19:33:16.325511Z,0.40960699999999994,0.111572,0.037292
2018-10-25T19:33:16.531511Z,-0.016418000000000002,0.755432,-0.047424
2018-10-25T19:33:16.724511Z,0.668579,1.105774,-0.46606400000000003
2018-10-25T19:33:16.931511Z,-0.234192,0.898682,0.158997
2018-10-25T19:33:17.122511Z,0.63031,0.8410639999999999,-0.340027
2018-10-25T19:33:17.324511Z,-0.353149,0.362061,-0.9360350000000001
2018-10-25T19:33:17.520511Z,-0.14965799999999999,1.058533,-0.5412600000000001
2018-10-25T19:33:17.721511Z,-1.748291,1.822876,0.041382
2018-10-25T19:33:17.921511Z,-1.187683,2.571838,-1.346008
2018-10-25T19:33:18.120511Z,-0.225525,1.5961299999999998,0.09033200000000001
2018-10-25T19:33:18.324511Z,1.645691,0.08404500000000001,-0.869751
2018-10-25T19:33:18.525511Z,0.506653,1.591309,-1.3834229999999998
2018-10-25T19:33:18.741511Z,-0.416321,2.318909,0.721252
2018-10-25T19:33:18.927511Z,-1.477295,-0.074768,1.780823
2018-10-25T19:33:19.129511Z,-1.5983889999999998,-0.273621,-2.082153
2018-10-25T19:33:19.322511Z,-0.5821529999999999,1.150696,0.163269
2018-10-25T19:33:19.521511Z,-0.13458299999999998,1.9305419999999998,0.617065
2018-10-25T19:33:19.720511Z,-0.8786010000000001,-0.047607,1.700867
2018-10-25T19:33:19.921511Z,-0.30090300000000003,0.14386,-2.716797
2018-10-25T19:33:20.121511Z,-0.047729,1.6182860000000001,-0.420166
2018-10-25T19:33:20.322511Z,0.131775,1.011475,-0.34491
2018-10-25T19:33:20.520511Z,-0.469788,-0.115417,0.311707
2018-10-25T19:33:20.720511Z,-1.315735,-0.201721,-1.716064
2018-10-25T19:33:20.935511Z,-0.759949,0.8369139999999999,-1.168396
2018-10-25T19:33:21.121511Z,-0.37085,1.4110719999999999,0.085632
2018-10-25T19:33:21.520511Z,-0.814331,0.017516999999999998,2.618774
2018-10-25T19:33:21.720511Z,-0.9713129999999999,-0.713989,-2.132446
2018-10-25T19:33:21.920511Z,-1.409119,0.546692,-0.649109
2018-10-25T19:33:22.122511Z,-0.9818120000000001,0.994751,0.07006799999999999
2018-10-25T19:33:22.323511Z,-0.017334,0.040283,1.338196
2018-10-25T19:33:22.520511Z,0.614136,-0.431335,-0.588501
2018-10-25T19:33:22.724511Z,-0.85675,-0.804321,-0.7689819999999999
2018-10-25T19:33:22.921511Z,0.189148,0.55719,-0.640564
2018-10-25T19:33:23.121511Z,-0.7931520000000001,0.35022,-0.45239300000000005
2018-10-25T19:33:23.321511Z,-1.744507,0.722534,1.46875
2018-10-25T19:33:23.522511Z,-0.507141,-1.069275,0.779663
2018-10-25T19:33:23.726511Z,-0.7495729999999999,-0.20666500000000002,-0.161804
2018-10-25T19:33:23.939511Z,-0.330872,-0.065491,2.0473630000000003
2018-10-25T19:33:24.122511Z,-0.450745,-0.484253,0.516541
2018-10-25T19:33:24.320511Z,-0.68457,-1.2992549999999998,-0.092285
2018-10-25T19:33:24.520511Z,-1.541199,-0.623047,-0.364075
2018-10-25T19:33:24.720511Z,-1.4556879999999999,0.174072,-0.07666
2018-10-25T19:33:24.921511Z,-1.2807620000000002,-0.006409000000000001,-0.231323
2018-10-25T19:33:25.120511Z,-0.8475950000000001,0.651978,-0.138977
2018-10-25T19:33:25.322511Z,0.012573,0.510376,-0.50354
2018-10-25T19:33:25.520511Z,-0.929932,-0.957031,1.398743
2018-10-25T19:33:25.720511Z,-0.639526,-0.823792,-0.347961
2018-10-25T19:33:25.920511Z,-0.477051,-0.10546900000000001,-0.129639
2018-10-25T19:33:26.121511Z,-0.055969000000000005,0.117432,-0.217957
2018-10-25T19:33:26.322511Z,0.760864,0.513306,2.4380490000000004
2018-10-25T19:33:26.522511Z,-0.995667,-0.767578,1.7388310000000002
2018-10-25T19:33:26.722511Z,-1.0870360000000001,-1.8511349999999998,-0.951355
2018-10-25T19:33:26.917511Z,-0.329834,-1.188843,-1.122986
2018-10-25T19:33:27.126511Z,-0.094666,-0.5776979999999999,0.505371
2018-10-25T19:33:27.321511Z,-0.713623,-0.268433,-0.141296
2018-10-25T19:33:27.520511Z,-1.4067379999999998,-0.442688,0.14965799999999999
2018-10-25T19:33:27.722511Z,-0.508179,-0.338989,1.149414
2018-10-25T19:33:27.921511Z,0.15423599999999998,0.12200899999999999,-0.508911
2018-10-25T19:33:28.120511Z,-0.31494099999999997,0.341431,-0.567322
2018-10-25T19:33:28.328511Z,0.396912,0.505371,-0.8703
2018-10-25T19:33:28.520511Z,0.149048,-0.190369,-0.656555
2018-10-25T19:33:28.720511Z,-0.218567,0.050049,0.319702
2018-10-25T19:33:28.924511Z,-0.14917,0.116272,0.185852
2018-10-25T19:33:29.128511Z,-0.17114300000000002,0.319702,-0.530151
2018-10-25T19:33:29.321511Z,0.104126,0.342102,-0.266968
2018-10-25T19:33:29.522511Z,0.112,0.33605999999999997,-0.089172
2018-10-25T19:33:29.781511Z,0.99884,0.741272,0.20959499999999998
2018-10-25T19:33:29.926511Z,0.274231,0.357056,-0.677307
2018-10-25T19:33:30.129511Z,-0.038574000000000004,0.144287,-0.201294
2018-10-25T19:33:30.328511Z,-0.069275,0.275513,-0.204102
2018-10-25T19:33:30.511511Z,0.21466100000000002,0.099548,-0.324341
2018-10-25T19:33:30.728511Z,1.016785,0.204468,-0.875793
2018-10-25T19:33:30.921511Z,0.44049099999999997,0.848389,-0.69812
2018-10-25T19:33:31.120511Z,0.7954100000000001,1.778564,0.608398
2018-10-25T19:33:31.320511Z,-0.149109,-0.046326,1.421509
2018-10-25T19:33:31.522511Z,-0.533936,-1.67865,-0.272827
2018-10-25T19:33:31.725511Z,-0.758728,-0.860291,-1.059998
2018-10-25T19:33:31.922511Z,-0.571533,0.306213,-0.9136350000000001
2018-10-25T19:33:32.125511Z,-0.985291,1.429932,0.153625
2018-10-25T19:33:32.322511Z,-0.795898,-0.376465,0.49713100000000005
2018-10-25T19:33:32.521511Z,-0.215271,-1.326599,0.009276999999999999
2018-10-25T19:33:32.721511Z,-0.748108,0.42645299999999997,-0.320312
2018-10-25T19:33:32.925511Z,-0.573303,0.5073850000000001,0.46581999999999996
2018-10-25T19:33:33.122511Z,-1.182373,-1.9487299999999999,0.905884
2018-10-25T19:33:33.321511Z,-0.34491,-1.061523,-0.821472
2018-10-25T19:33:33.522511Z,-1.170044,-0.602783,0.233093
2018-10-25T19:33:33.721511Z,-0.600769,-0.5817869999999999,1.223328
2018-10-25T19:33:33.925511Z,-0.195923,-1.044922,-0.715515
2018-10-25T19:33:34.121511Z,0.041625999999999996,-0.432251,-0.48132299999999995
2018-10-25T19:33:34.329511Z,-0.8831180000000001,-0.306519,-0.07867400000000001
2018-10-25T19:33:34.526511Z,-1.16626,-0.17413299999999998,-0.647705
2018-10-25T19:33:34.720511Z,-1.937073,0.7791140000000001,0.295654
2018-10-25T19:33:34.920511Z,-0.224731,0.731323,0.043518
2018-10-25T19:33:35.121511Z,0.451599,0.617004,-0.608643
2018-10-25T19:33:35.322511Z,0.883179,-1.146362,-0.9949950000000001
2018-10-25T19:33:35.545511Z,0.339172,-0.510681,-0.930969
2018-10-25T19:33:35.920511Z,0.24285900000000002,0.48303199999999996,-0.701721
2018-10-25T19:33:36.127511Z,0.552185,0.412476,-0.25708000000000003
2018-10-25T19:33:36.322511Z,-1.091064,-1.7393189999999998,0.8027340000000001
2018-10-25T19:33:36.522511Z,-1.698364,-1.645447,-0.55304
2018-10-25T19:33:36.771511Z,-0.7558590000000001,-0.364014,0.121399
2018-10-25T19:33:36.931511Z,-0.053284000000000005,0.274719,-0.5658569999999999
2018-10-25T19:33:37.129511Z,0.130737,-0.5033569999999999,-0.896667
2018-10-25T19:33:37.328511Z,0.16314700000000001,-1.4495850000000001,0.05072
2018-10-25T19:33:37.521511Z,-0.418335,-0.904175,0.192749
2018-10-25T19:33:37.721511Z,-0.489563,-0.701294,0.075012
2018-10-25T19:33:37.920511Z,0.7307739999999999,-0.553894,-0.349548
2018-10-25T19:33:38.121511Z,2.3001099999999997,-0.45544399999999996,-0.076416
2018-10-25T19:33:38.321511Z,1.1881709999999999,0.184875,-0.5448
2018-10-25T19:33:38.521511Z,0.918579,0.969116,0.8005979999999999
2018-10-25T19:33:38.723511Z,-1.159241,-1.0271,2.1746830000000004
2018-10-25T19:33:38.927511Z,-1.643372,-1.168091,0.020447
2018-10-25T19:33:39.127511Z,-0.262939,-0.13623,-0.336853
2018-10-25T19:33:39.320511Z,0.255371,0.558289,0.22338899999999998
2018-10-25T19:33:39.521511Z,-0.367554,-0.5740970000000001,2.075806
2018-10-25T19:33:39.724511Z,-0.07006799999999999,0.017273,-1.125916
2018-10-25T19:33:39.921511Z,-0.05139199999999999,1.611145,-1.139893
2018-10-25T19:33:40.133511Z,0.42114300000000005,0.36181599999999997,0.864685
2018-10-25T19:33:40.319511Z,0.9843139999999999,-0.47943100000000005,0.161804
2018-10-25T19:33:40.535511Z,-0.11792000000000001,-0.556213,-0.245544
2018-10-25T19:33:40.712511Z,0.443542,0.40936300000000003,-0.5827640000000001
2018-10-25T19:33:40.921511Z,0.196167,0.66803,-0.355469
2018-10-25T19:33:41.125511Z,1.294067,0.042480000000000004,1.105957
2018-10-25T19:33:41.321511Z,1.103821,1.498169,-0.06689500000000001
2018-10-25T19:33:41.521511Z,1.753479,2.162964,-0.384277
2018-10-25T19:33:41.720511Z,-0.397522,0.716125,1.6716919999999997
2018-10-25T19:33:41.920511Z,-0.812866,-0.244995,-0.6500239999999999
2018-10-25T19:33:42.120511Z,-1.381653,0.781616,0.045166000000000005
2018-10-25T19:33:42.331511Z,-0.982605,1.920837,-0.663086
2018-10-25T19:33:42.575511Z,-0.151978,0.066528,0.27331500000000003
2018-10-25T19:33:42.723511Z,-0.9589840000000001,0.07372999999999999,-0.24359099999999997
2018-10-25T19:33:42.922511Z,-1.187683,0.641174,-0.342163
2018-10-25T19:33:43.122511Z,-0.633789,1.0014040000000002,0.11480699999999999
2018-10-25T19:33:43.321511Z,-0.447021,-0.680237,-0.095398
2018-10-25T19:33:43.522511Z,-0.369812,-0.548767,-0.736084
2018-10-25T19:33:43.726511Z,-0.701416,0.066528,-0.27880900000000003
2018-10-25T19:33:43.933511Z,0.163269,0.43408199999999997,0.069214
2018-10-25T19:33:44.121511Z,0.421875,0.939148,-0.042786000000000005
2018-10-25T19:33:44.321511Z,0.968567,-0.649963,-0.5664060000000001
2018-10-25T19:33:44.523511Z,0.039124,0.252502,-1.047485
2018-10-25T19:33:44.722511Z,1.0385739999999999,1.7594599999999998,1.448792
2018-10-25T19:33:44.920511Z,-0.016357,0.52832,-0.588379
2018-10-25T19:33:45.120511Z,-0.431091,-1.7773439999999998,-0.8975219999999999
2018-10-25T19:33:45.320511Z,-1.1676030000000002,-1.8287349999999998,-1.002319
2018-10-25T19:33:45.529511Z,-1.162415,-0.5893550000000001,-0.167725
2018-10-25T19:33:45.840511Z,-0.722839,-0.076599,-0.501587
2018-10-25T19:33:45.920511Z,-0.9754639999999999,0.140808,-0.211731
2018-10-25T19:33:46.130511Z,0.10235599999999999,-0.215759,-0.462158
2018-10-25T19:33:46.326511Z,0.347595,0.40631100000000003,-0.32055700000000004
2018-10-25T19:33:46.522511Z,0.091003,0.9154049999999999,-0.244812
2018-10-25T19:33:46.725511Z,0.673767,1.038757,0.356567
2018-10-25T19:33:46.923511Z,0.349976,1.095581,-0.219849
2018-10-25T19:33:47.323511Z,-0.824219,-0.4729,-0.141174
2018-10-25T19:33:47.520511Z,-1.719116,-1.155701,-0.132446
2018-10-25T19:33:47.723511Z,-0.498108,0.5471189999999999,-0.286926
2018-10-25T19:33:47.927511Z,-0.332092,0.747498,0.480042
2018-10-25T19:33:48.121511Z,-0.037415,-0.916443,-1.351685
2018-10-25T19:33:48.320511Z,-0.055969000000000005,0.172729,0.48510699999999995
2018-10-25T19:33:48.520511Z,0.31256100000000003,0.705505,-0.864014
2018-10-25T19:33:48.720511Z,-0.45282,0.41882299999999995,0.480896
2018-10-25T19:33:48.921511Z,-0.243835,-0.714905,0.11718800000000001
2018-10-25T19:33:49.120511Z,-2.144348,-1.505005,-0.45526099999999997
2018-10-25T19:33:49.341511Z,-1.333496,-0.8903200000000001,-0.389709
2018-10-25T19:33:49.520511Z,0.732788,-0.221252,0.8538209999999999
2018-10-25T19:33:49.720511Z,-0.370056,-0.14514200000000002,-0.28179899999999997
2018-10-25T19:33:49.920511Z,-0.170898,-0.338074,-0.302734
2018-10-25T19:33:50.127511Z,-0.342224,-0.219727,0.10131799999999999
2018-10-25T19:33:50.339511Z,-0.639099,-0.052979,-0.011658
2018-10-25T19:33:50.543511Z,-0.526978,-0.09448200000000001,0.10272200000000001
2018-10-25T19:33:50.736511Z,-1.149414,0.1026,-0.5101319999999999
2018-10-25T19:33:50.930511Z,-1.0120850000000001,0.411865,0.65332
2018-10-25T19:33:51.131511Z,0.02417,0.298584,-0.460632
2018-10-25T19:33:51.332511Z,0.05651900000000001,0.562866,-1.2578120000000002
2018-10-25T19:33:51.532511Z,-0.150513,-0.458801,-1.384155
2018-10-25T19:33:51.730511Z,-1.357056,-0.064026,2.177795
2018-10-25T19:33:51.930511Z,0.848999,-1.224976,0.10614000000000001
2018-10-25T19:33:52.130511Z,0.6152340000000001,-0.155273,-0.796814
2018-10-25T19:33:52.338511Z,-0.8771969999999999,0.778748,1.5618290000000001
2018-10-25T19:33:52.539511Z,-1.326599,-1.519531,-0.73822
2018-10-25T19:33:52.730511Z,-1.7498169999999997,-1.261963,-1.511902
2018-10-25T19:33:52.932511Z,-0.626831,0.027038999999999997,-0.392944
2018-10-25T19:33:53.131511Z,-2.252441,0.896423,0.5390010000000001
2018-10-25T19:33:53.323511Z,-1.453735,-0.6464840000000001,1.024902
2018-10-25T19:33:53.536511Z,-1.2590940000000002,-1.063965,-0.177551
2018-10-25T19:33:53.731511Z,-0.651367,-0.460388,0.20916700000000002
2018-10-25T19:33:53.933511Z,-0.391968,-1.0089110000000001,0.744812
2018-10-25T19:33:54.131511Z,-0.64679,-0.33007800000000004,0.768921
2018-10-25T19:33:54.335511Z,-1.209351,0.013,0.443237
2018-10-25T19:33:54.541511Z,-0.91217,-0.202698,-0.375366
2018-10-25T19:33:54.728511Z,-0.231567,0.110474,0.072937
2018-10-25T19:33:54.932511Z,-0.391541,-0.45611599999999997,-0.012329000000000001
2018-10-25T19:33:55.134511Z,0.399719,-1.0272219999999999,0.8676149999999999
2018-10-25T19:33:55.344511Z,0.10723900000000001,-2.84668,-0.751831
2018-10-25T19:33:55.530511Z,1.054016,1.1479489999999999,2.181152
2018-10-25T19:33:55.732511Z,0.303894,0.166931,1.327576
2018-10-25T19:33:55.932511Z,1.38501,-0.224304,-0.8823850000000001
2018-10-25T19:33:56.136511Z,-2.325134,0.676331,-0.326599
2018-10-25T19:33:56.328511Z,-2.178833,0.44397,0.220642
2018-10-25T19:33:56.531511Z,-2.0025020000000002,1.509888,-0.906128
2018-10-25T19:33:56.736511Z,-0.482117,2.526672,0.26306199999999996
2018-10-25T19:33:56.946511Z,-0.752747,1.287598,1.06781
2018-10-25T19:33:57.130511Z,-1.656555,1.007996,-1.7654419999999997
2018-10-25T19:33:57.328511Z,-0.153809,1.945801,0.170166
2018-10-25T19:33:57.542511Z,1.7670290000000002,0.514648,-0.18524200000000002
2018-10-25T19:33:57.727511Z,0.43878199999999995,-1.1182860000000001,-0.11181600000000001
2018-10-25T19:33:57.931511Z,-0.827148,-0.012024,-0.779053
2018-10-25T19:33:58.131511Z,-0.016113,0.9736940000000001,-0.365051
2018-10-25T19:33:58.351511Z,0.763062,1.1676030000000002,0.389648
2018-10-25T19:33:58.532511Z,0.368652,-1.028076,-0.276917
2018-10-25T19:33:58.732511Z,0.442871,-0.035828,-0.302185
2018-10-25T19:33:58.930511Z,1.200867,0.592346,-1.309814
2018-10-25T19:33:59.130511Z,1.132751,1.921814,-0.430725
2018-10-25T19:33:59.327511Z,0.41497799999999996,1.600403,-0.542725
2018-10-25T19:33:59.542511Z,-0.38354499999999997,0.423096,1.0849
2018-10-25T19:33:59.730511Z,-1.903564,0.551453,0.159058
2018-10-25T19:33:59.930511Z,-1.130493,0.6254270000000001,-0.9993290000000001
2018-10-25T19:34:00.130511Z,-1.363464,1.132751,-0.11181600000000001
2018-10-25T19:34:00.337511Z,-1.5679319999999999,0.019409,0.322449
2018-10-25T19:34:00.530511Z,-1.06897,1.148743,-1.622681
2018-10-25T19:34:00.732511Z,-0.681091,0.8916629999999999,-0.7183229999999999
2018-10-25T19:34:00.931511Z,-0.37097199999999997,0.777161,-0.885498
2018-10-25T19:34:01.133511Z,-1.701538,0.07543899999999999,-0.599792
2018-10-25T19:34:01.332511Z,-1.921509,0.133301,-0.563538
2018-10-25T19:34:01.532511Z,-0.524963,0.745117,0.677979
2018-10-25T19:34:01.736511Z,0.155212,0.724304,-1.367859
2018-10-25T19:34:01.930511Z,-0.054626,-0.16381800000000002,-0.058838
2018-10-25T19:34:02.130511Z,-0.040283,-0.249817,-0.23876999999999998
2018-10-25T19:34:02.330511Z,-0.128967,0.6351319999999999,-0.24639899999999998
2018-10-25T19:34:02.541511Z,-0.11151099999999999,0.901917,-0.280945
2018-10-25T19:34:02.728511Z,-0.378418,1.317383,-1.155273
2018-10-25T19:34:02.931511Z,-0.344482,1.049561,-0.7775270000000001
2018-10-25T19:34:03.130511Z,0.095093,0.749329,-0.048523000000000004
2018-10-25T19:34:03.530511Z,0.003967,-0.269775,1.755493
2018-10-25T19:34:03.729511Z,-1.1698,-0.854492,-0.071411
2018-10-25T19:34:03.934511Z,-0.467346,-0.234436,-0.940125
2018-10-25T19:34:04.128511Z,-0.307129,0.464233,-0.930481
2018-10-25T19:34:04.337511Z,-0.746887,1.084106,0.11785899999999999
2018-10-25T19:34:04.531511Z,-0.260803,0.337036,1.022278
2018-10-25T19:34:04.728511Z,-1.1165770000000002,-0.578491,0.778625
2018-10-25T19:34:04.934511Z,0.411987,0.133972,-0.686157
2018-10-25T19:34:05.131511Z,0.342529,0.8804930000000001,-0.143433
2018-10-25T19:34:05.331511Z,-1.3057860000000001,-0.482178,0.510864
2018-10-25T19:34:05.534511Z,-1.239563,-0.97229,0.364929
2018-10-25T19:34:05.729511Z,-1.6437990000000002,0.040894,0.225098
2018-10-25T19:34:05.937511Z,-0.7463989999999999,0.618591,-0.35498
2018-10-25T19:34:06.136511Z,-1.7518310000000001,-0.245056,1.171265
2018-10-25T19:34:06.348511Z,-0.930359,0.27331500000000003,1.946777
2018-10-25T19:34:06.538511Z,-1.209534,0.31494099999999997,-0.484558
2018-10-25T19:34:06.728511Z,-0.45575,0.158325,0.729248
2018-10-25T19:34:06.924511Z,-1.601257,-1.096191,0.30175799999999997
2018-10-25T19:34:07.131511Z,-2.564453,-1.32959,-0.539673
2018-10-25T19:34:07.332511Z,-2.8938599999999997,-0.8771969999999999,0.206909
2018-10-25T19:34:07.532511Z,-1.221069,0.536133,0.188538
2018-10-25T19:34:07.737511Z,-1.1948239999999999,0.631775,-0.237366
2018-10-25T19:34:07.933511Z,-1.1339110000000001,-0.429932,1.132507
2018-10-25T19:34:08.132511Z,-1.083923,-0.551758,-1.7199099999999998
2018-10-25T19:34:08.343511Z,-1.213074,0.514343,-0.26818800000000004
2018-10-25T19:34:08.538511Z,-0.551025,0.739441,0.28131100000000003
2018-10-25T19:34:08.741511Z,-0.794678,-0.8066409999999999,0.623474
2018-10-25T19:34:08.949511Z,-1.0902100000000001,-0.6755369999999999,-1.615417
2018-10-25T19:34:09.128511Z,-0.402344,0.847412,-0.052124000000000004
2018-10-25T19:34:09.338511Z,0.686462,-0.800964,-0.449402
2018-10-25T19:34:09.532511Z,0.748779,-2.037415,-1.0046389999999998
2018-10-25T19:34:09.727511Z,-1.1541139999999999,0.23858600000000002,-0.079041
2018-10-25T19:34:09.931511Z,-0.8122560000000001,1.662659,0.48394799999999993
2018-10-25T19:34:10.131511Z,-1.720459,-0.950623,2.314392
2018-10-25T19:34:10.331511Z,-1.3129879999999998,-2.0144040000000003,-2.431091
2018-10-25T19:34:10.532511Z,-0.697327,0.488159,-0.255127
2018-10-25T19:34:10.733511Z,-0.377197,0.6129760000000001,0.312683
2018-10-25T19:34:10.934511Z,-0.9588620000000001,-1.439819,0.647888
2018-10-25T19:34:11.157511Z,-0.960815,-0.6738890000000001,-1.5835569999999999
2018-10-25T19:34:11.336511Z,-0.599121,0.8474729999999999,0.036377
2018-10-25T19:34:11.538511Z,-1.6243290000000001,-0.275391,2.506714
2018-10-25T19:34:11.732511Z,-1.612,-2.123169,-1.114563
2018-10-25T19:34:11.990511Z,-1.0448,-0.378418,-0.390991
2018-10-25T19:34:12.138511Z,1.067871,-0.8792110000000001,-0.090942
2018-10-25T19:34:12.338511Z,0.981873,-1.092651,0.038391
2018-10-25T19:34:12.533511Z,-0.07739299999999999,-0.40136700000000003,-1.1317139999999999
2018-10-25T19:34:12.731511Z,-0.251404,0.695862,-0.362183
2018-10-25T19:34:12.933511Z,-0.588989,-0.211914,0.530518
2018-10-25T19:34:13.130511Z,-0.321533,-1.449219,-0.818909
2018-10-25T19:34:13.330511Z,-1.307434,-0.896667,-0.17193599999999998
2018-10-25T19:34:13.532511Z,-1.224609,0.027649,-0.409485
2018-10-25T19:34:13.734511Z,-0.836609,0.661621,-0.330261
2018-10-25T19:34:13.936511Z,0.27416999999999997,-0.722046,0.9562379999999999
2018-10-25T19:34:14.134511Z,0.6644899999999999,-1.210632,-0.795837
2018-10-25T19:34:14.329511Z,-0.161133,-1.5709229999999998,1.269226
2018-10-25T19:34:14.532511Z,0.590576,-0.6481319999999999,0.10723900000000001
2018-10-25T19:34:14.731511Z,0.362732,-1.306763,-0.34198
2018-10-25T19:34:14.930511Z,-0.731995,-1.565857,0.9611209999999999
2018-10-25T19:34:15.131511Z,-0.635681,-0.673401,-0.11328099999999999
2018-10-25T19:34:15.368511Z,-0.39550799999999997,-0.342346,0.30938699999999997
2018-10-25T19:34:15.542511Z,-0.26806599999999997,-0.5707399999999999,-0.470642
2018-10-25T19:34:15.736511Z,-0.9550780000000001,-0.985474,0.16864
2018-10-25T19:34:15.937511Z,-0.130432,-0.43811000000000005,0.24853499999999998
2018-10-25T19:34:16.332511Z,0.753418,0.018005,0.569092
2018-10-25T19:34:16.533511Z,0.359741,0.185547,-0.478699
2018-10-25T19:34:16.730511Z,0.46380600000000005,0.45233199999999996,-0.7983399999999999
2018-10-25T19:34:16.931511Z,0.437134,0.43493699999999996,0.657837
2018-10-25T19:34:17.130511Z,-0.10614000000000001,-1.338013,1.7241819999999999
2018-10-25T19:34:17.333511Z,-0.846924,-2.2365720000000002,-0.625
2018-10-25T19:34:17.537511Z,-0.337891,-1.014038,-0.7208859999999999
2018-10-25T19:34:17.740511Z,-0.5690310000000001,-0.22216799999999998,-0.139587
2018-10-25T19:34:17.930511Z,-0.363831,0.6809689999999999,-0.707336
2018-10-25T19:34:18.132511Z,-0.502075,0.783875,-0.000671
2018-10-25T19:34:18.335511Z,1.7417599999999998,-2.127991,-1.649963
2018-10-25T19:34:18.532511Z,1.306519,-1.44696,-0.54187
2018-10-25T19:34:18.734511Z,-0.318054,-0.987549,-0.11358599999999999
2018-10-25T19:34:18.931511Z,-0.336914,-1.244263,0.60321
2018-10-25T19:34:19.131511Z,0.019348,-1.213135,-0.8807370000000001
2018-10-25T19:34:19.331511Z,-0.122803,-0.319458,0.663574
2018-10-25T19:34:19.530511Z,0.330383,-0.398621,0.059753
2018-10-25T19:34:19.731511Z,0.136292,-0.448608,0.208252
2018-10-25T19:34:19.930511Z,-0.049011,-0.527771,-0.800293
2018-10-25T19:34:20.122511Z,0.036316,-0.117249,-0.565979
2018-10-25T19:34:20.330511Z,-0.0849,0.06072999999999999,-0.40429699999999996
2018-10-25T19:34:20.531511Z,0.160339,0.053833000000000006,-0.563354
2018-10-25T19:34:20.742511Z,0.617004,0.6172489999999999,-0.520142
2018-10-25T19:34:20.930511Z,0.707703,0.32867399999999997,-0.289429
2018-10-25T19:34:21.131511Z,-0.011108,0.077637,-0.602234
2018-10-25T19:34:21.340511Z,-0.057250999999999996,0.036438,-0.046997000000000004
2018-10-25T19:34:21.531511Z,0.047791,0.058166999999999996,-0.252686
2018-10-25T19:34:21.731511Z,0.196716,0.079956,-0.262268
2018-10-25T19:34:21.930511Z,0.575867,0.363892,-0.136292
2018-10-25T19:34:22.130511Z,0.471497,0.110535,-0.48822
2018-10-25T19:34:22.332511Z,-0.14752200000000001,0.19256600000000001,-1.6937259999999998
2018-10-25T19:34:22.531511Z,0.005249,-0.289551,0.15673800000000002
2018-10-25T19:34:22.734511Z,0.308716,-0.21093800000000001,-0.161133
2018-10-25T19:34:22.931511Z,-0.743591,0.003479,-0.49054
2018-10-25T19:34:23.130511Z,-0.660034,0.539673,-0.264832
2018-10-25T19:34:23.330511Z,-0.294739,-0.011292,1.137817
2018-10-25T19:34:23.530511Z,-0.147278,0.23657199999999998,-0.627502
2018-10-25T19:34:23.730511Z,0.518738,0.087158,1.303284
2018-10-25T19:34:23.934511Z,-0.089417,-0.33068800000000004,-1.011536
2018-10-25T19:34:24.130511Z,1.117737,0.50415,-0.22589099999999998
2018-10-25T19:34:24.327511Z,0.812988,0.464722,-0.169006
2018-10-25T19:34:24.531511Z,0.678894,0.32806399999999997,-0.24359099999999997
2018-10-25T19:34:24.732511Z,-0.294678,-0.062622,-0.603821
2018-10-25T19:34:24.936511Z,-0.455078,-0.323608,-0.768921
2018-10-25T19:34:25.131511Z,-0.436646,-0.08709700000000001,-0.072388
2018-10-25T19:34:25.331511Z,-0.237366,-0.647034,-0.335266
2018-10-25T19:34:25.527511Z,0.076843,0.36138899999999996,0.7151489999999999
2018-10-25T19:34:25.731511Z,-0.31781,-0.134399,-0.200745
2018-10-25T19:34:25.931511Z,-0.227417,-0.035522000000000005,-0.233093
2018-10-25T19:34:26.135511Z,-0.520935,-0.19134500000000002,-0.22521999999999998
2018-10-25T19:34:26.329511Z,-0.131653,-0.31427,-0.106262
2018-10-25T19:34:26.531511Z,0.21655300000000002,-0.18689,-0.40515100000000004
2018-10-25T19:34:26.749511Z,0.055359000000000005,-0.03186,-0.34686300000000003
2018-10-25T19:34:26.926511Z,-0.288086,0.004333,0.059937
2018-10-25T19:34:27.140511Z,0.145508,-0.162659,-0.301453
2018-10-25T19:34:27.333511Z,0.5939939999999999,-0.06219500000000001,-0.315552
2018-10-25T19:34:27.531511Z,-0.135803,-0.20916700000000002,-0.45343
2018-10-25T19:34:27.730511Z,0.375244,-0.7246090000000001,-0.170349
2018-10-25T19:34:27.934511Z,-0.036621,-0.674133,-0.698608
2018-10-25T19:34:28.131511Z,0.081177,2.509888,0.519897
2018-10-25T19:34:28.333511Z,0.444946,1.9306029999999998,-0.720825
2018-10-25T19:34:28.534511Z,0.347656,-0.471008,0.318787
2018-10-25T19:34:28.735511Z,0.004883,-0.281677,-1.844116
2018-10-25T19:34:28.935511Z,-0.8473510000000001,1.133667,-1.374634
2018-10-25T19:34:29.146511Z,-0.05499299999999999,1.570618,0.054626
2018-10-25T19:34:29.337511Z,1.1293950000000001,0.24096700000000001,-0.910217
2018-10-25T19:34:29.528511Z,0.386841,0.27887,-0.594238
2018-10-25T19:34:29.731511Z,0.159363,1.180237,-0.692932
2018-10-25T19:34:29.932511Z,0.8676149999999999,1.162476,-0.005676
2018-10-25T19:34:30.130511Z,-0.400513,-0.340332,0.95752
2018-10-25T19:34:30.331511Z,-0.8145140000000001,-0.950073,0.215088
2018-10-25T19:34:30.531511Z,-0.518005,-0.012756,0.033081
2018-10-25T19:34:30.730511Z,-0.170898,0.4599,-0.355042
2018-10-25T19:34:30.930511Z,0.381348,-0.244812,-0.593079
2018-10-25T19:34:31.130511Z,0.624084,-0.741455,-0.21270799999999998
2018-10-25T19:34:31.333511Z,-0.006653,-0.176331,-0.611694
2018-10-25T19:34:31.583511Z,0.765991,-0.32135,0.33618200000000004
2018-10-25T19:34:31.727511Z,0.272339,0.225037,-0.200195
2018-10-25T19:34:31.928511Z,-0.15332,-0.033386,-0.477112
2018-10-25T19:34:32.133511Z,0.09137,0.23889200000000002,-0.12060499999999999
2018-10-25T19:34:32.332511Z,-0.024048,0.43536400000000003,-0.363342
2018-10-25T19:34:32.531511Z,0.100281,0.6157229999999999,-1.2189940000000001
2018-10-25T19:34:32.730511Z,0.547241,0.52179,-1.89093
2018-10-25T19:34:32.931511Z,0.654602,1.399292,1.571899
2018-10-25T19:34:33.331511Z,-0.217712,-1.177979,0.4245
2018-10-25T19:34:33.538511Z,-1.065308,-1.6956790000000002,0.22711199999999998
2018-10-25T19:34:33.728511Z,-0.43927,-0.796326,-0.248962
2018-10-25T19:34:33.931511Z,-0.970459,-0.386658,-0.207092
2018-10-25T19:34:34.129511Z,-0.593201,0.80835,-0.41137700000000005
2018-10-25T19:34:34.331511Z,-1.5690309999999998,1.464966,-0.339539
2018-10-25T19:34:34.529511Z,-0.401489,-1.183838,-0.103271
2018-10-25T19:34:34.730511Z,0.844666,-1.674561,0.46154799999999996
2018-10-25T19:34:34.933511Z,0.28442399999999995,-0.547363,0.11523399999999999
2018-10-25T19:34:35.127511Z,-0.130737,-0.478516,-0.17236300000000002
2018-10-25T19:34:35.332511Z,0.875977,0.241089,-0.299011
2018-10-25T19:34:35.531511Z,-0.368103,0.07928500000000001,-0.095886
2018-10-25T19:34:35.741511Z,0.325745,-0.186584,-0.366028
2018-10-25T19:34:35.939511Z,0.42504899999999995,-0.45776400000000006,-0.162537
2018-10-25T19:34:36.139511Z,-0.002258,0.027466,-0.43335
2018-10-25T19:34:36.324511Z,-0.119324,0.19989,-0.323303
2018-10-25T19:34:36.532511Z,-0.471497,0.616943,-0.06536900000000001
2018-10-25T19:34:36.732511Z,0.18060299999999999,0.242981,-0.47021499999999994
2018-10-25T19:34:36.930511Z,0.390442,0.69104,-0.552124
2018-10-25T19:34:37.131511Z,-0.067505,0.478638,-0.4552
2018-10-25T19:34:37.333511Z,0.027222000000000003,-0.521912,0.8239139999999999
2018-10-25T19:34:37.535511Z,-0.544128,-0.833191,-0.716187
2018-10-25T19:34:37.738511Z,-1.321716,-1.153259,-1.0120850000000001
2018-10-25T19:34:37.929511Z,-0.06994600000000001,-0.005981,-0.413879
2018-10-25T19:34:38.135511Z,-0.575562,0.523682,1.174927
2018-10-25T19:34:38.339511Z,1.168762,-1.359558,-0.5469970000000001
2018-10-25T19:34:38.533511Z,0.27831999999999996,-0.6487430000000001,-1.184998
2018-10-25T19:34:38.736511Z,-0.276062,0.699585,-0.129639
2018-10-25T19:34:38.931511Z,0.570068,-0.200562,0.608887
2018-10-25T19:34:39.131511Z,-0.49706999999999996,-1.743652,-0.46875
2018-10-25T19:34:39.332511Z,-1.253784,-1.045776,-0.6092529999999999
2018-10-25T19:34:39.592511Z,0.410095,0.033447000000000005,1.617859
2018-10-25T19:34:39.749511Z,0.153503,0.24987800000000002,-0.358704
2018-10-25T19:34:39.937511Z,-0.8941040000000001,-0.717712,1.071106
2018-10-25T19:34:40.137511Z,-0.332947,-0.717102,-1.536377
2018-10-25T19:34:40.331511Z,-0.143005,0.354553,-0.744446
2018-10-25T19:34:40.531511Z,-0.181763,0.315552,0.5237430000000001
2018-10-25T19:34:40.730511Z,-0.008606,-2.087036,2.9697880000000003
2018-10-25T19:34:40.930511Z,-0.36377,-1.809448,-1.475586
2018-10-25T19:34:41.130511Z,-0.666748,-0.259583,-0.2724
2018-10-25T19:34:41.330511Z,-0.219177,0.296448,0.000305
2018-10-25T19:34:41.533511Z,-0.021118,-0.968994,0.547485
2018-10-25T19:34:41.737511Z,0.24145500000000003,-0.786804,-0.8775629999999999
2018-10-25T19:34:41.938511Z,-0.9013059999999999,-0.240601,0.15545699999999998
2018-10-25T19:34:42.186511Z,-0.739319,-0.423889,0.34924299999999997
2018-10-25T19:34:42.346511Z,-1.153748,-1.268433,1.031067
2018-10-25T19:34:42.538511Z,-1.070618,-1.467468,-0.322815
2018-10-25T19:34:42.739511Z,-2.574707,-0.767456,0.001343
2018-10-25T19:34:42.930511Z,-1.286865,-0.7437739999999999,-0.630676
2018-10-25T19:34:43.131511Z,-1.496033,0.513367,-0.290283
2018-10-25T19:34:43.332511Z,-0.76886,0.402283,-0.072144
2018-10-25T19:34:43.532511Z,-1.024658,-1.102295,-0.28436300000000003
2018-10-25T19:34:43.730511Z,0.997864,-0.575317,-2.0269779999999997
2018-10-25T19:34:43.930511Z,-0.650208,0.41485600000000006,-0.24597199999999997
2018-10-25T19:34:44.133511Z,-0.413513,0.24462899999999999,0.319519
2018-10-25T19:34:44.337511Z,-1.148499,-1.7042849999999998,-1.682251
2018-10-25T19:34:44.538511Z,-2.6957400000000002,-1.4752809999999998,-0.8531489999999999
2018-10-25T19:34:44.730511Z,-0.5802609999999999,0.38745100000000005,0.07482899999999999
2018-10-25T19:34:44.931511Z,-0.68811,0.54425,0.437439
2018-10-25T19:34:45.131511Z,-1.166321,-1.479309,-0.670715
2018-10-25T19:34:45.331511Z,-1.447998,-0.574646,-0.606934
2018-10-25T19:34:45.532511Z,-1.139709,-0.643616,0.320251
2018-10-25T19:34:45.731511Z,0.025208,-0.44213900000000006,-0.087646
2018-10-25T19:34:45.931511Z,-0.010131999999999999,-0.520935,-0.192444
2018-10-25T19:34:46.132511Z,-0.8555299999999999,-0.213684,0.24340799999999999
2018-10-25T19:34:46.330511Z,-0.709534,-0.375854,-0.420288
2018-10-25T19:34:46.532511Z,-0.6994020000000001,-0.09668,0.146362
2018-10-25T19:34:46.733511Z,-0.672668,-0.22351100000000002,-0.233276
2018-10-25T19:34:47.130511Z,-0.5075069999999999,-0.106689,-0.40881300000000004
2018-10-25T19:34:47.337511Z,-0.370361,-0.256287,-0.354004
2018-10-25T19:34:47.531511Z,-0.417786,-0.21814,0.049866
2018-10-25T19:34:47.730511Z,-0.11071800000000001,-0.283386,-0.012878
2018-10-25T19:34:47.930511Z,-0.199829,0.076599,0.250671
2018-10-25T19:34:48.130511Z,-0.332703,-0.169495,-0.145264
2018-10-25T19:34:48.330511Z,0.073364,-0.054688,-0.259766
2018-10-25T19:34:48.530511Z,-0.641235,-0.063904,-0.196655
2018-10-25T19:34:48.735511Z,-0.262878,-0.10809300000000001,-0.251404
2018-10-25T19:34:48.934511Z,-0.34429899999999997,-0.156616,-0.438171
2018-10-25T19:34:49.147511Z,-0.37677,-0.058776999999999996,-0.310974
2018-10-25T19:34:49.357511Z,-0.272278,-0.24462899999999999,0.22302199999999997
2018-10-25T19:34:49.547511Z,-0.022888,0.075073,-0.052246
2018-10-25T19:34:49.743511Z,-0.40564,0.12725799999999998,-0.057312
2018-10-25T19:34:49.941511Z,-0.38806199999999996,-0.48895299999999997,-1.332214
2018-10-25T19:34:50.142511Z,1.334534,1.0985719999999999,-0.319275
2018-10-25T19:34:50.343511Z,-0.484375,0.6312260000000001,-0.580078
2018-10-25T19:34:50.531511Z,-0.8510129999999999,-0.645508,3.8717040000000003
2018-10-25T19:34:50.740511Z,0.60614,-1.859436,-0.9202879999999999
2018-10-25T19:34:50.940511Z,-0.515015,-0.554504,-0.305847
2018-10-25T19:34:51.146511Z,-0.5081180000000001,-0.16272,0.486267
2018-10-25T19:34:51.347511Z,0.212952,0.44061300000000003,-0.065125
2018-10-25T19:34:51.541511Z,-1.255981,-1.542358,0.806824
2018-10-25T19:34:51.741511Z,0.688232,-0.070496,-0.662903
2018-10-25T19:34:51.940511Z,0.459106,-0.733521,0.278381
2018-10-25T19:34:52.141511Z,-0.030396,-0.192322,0.11480699999999999
2018-10-25T19:34:52.349511Z,0.106628,-0.774475,-0.28363
2018-10-25T19:34:52.541511Z,0.625305,0.109741,0.281921
2018-10-25T19:34:52.760511Z,0.246948,-0.5687260000000001,-0.342896
2018-10-25T19:34:52.942511Z,0.303894,-0.015381,-0.10272200000000001
2018-10-25T19:34:53.140511Z,0.36254899999999995,-0.1698,-0.143799
2018-10-25T19:34:53.341511Z,0.140015,-0.163696,0.002625
2018-10-25T19:34:53.544511Z,0.001099,-0.15631099999999998,-0.272278
2018-10-25T19:34:53.742511Z,0.24761999999999998,-0.067993,-0.16449
2018-10-25T19:34:53.940511Z,0.083496,-0.22332800000000003,-0.13989300000000002
2018-10-25T19:34:54.140511Z,0.125366,-0.60321,0.040770999999999995
2018-10-25T19:34:54.340511Z,-0.232727,0.360657,0.492249
2018-10-25T19:34:54.540511Z,-2.465759,0.264954,-0.355835
2018-10-25T19:34:54.741511Z,-1.7300419999999999,-0.099426,0.20483400000000002
2018-10-25T19:34:54.941511Z,-1.470276,-0.12145999999999998,-0.063904
2018-10-25T19:34:55.140511Z,-1.185974,-0.8867799999999999,1.13739
2018-10-25T19:34:55.341511Z,-0.723938,-2.3377689999999998,-0.371521
2018-10-25T19:34:55.541511Z,-0.312134,-1.303833,-0.010254000000000001
2018-10-25T19:34:55.740511Z,0.513367,0.42504899999999995,0.17541500000000002
2018-10-25T19:34:55.940511Z,-1.1177979999999998,-0.420837,0.8686520000000001
2018-10-25T19:34:56.142511Z,-3.128479,-1.4449459999999998,-0.07696499999999999
2018-10-25T19:34:56.340511Z,-2.595825,0.10553,0.22009299999999998
2018-10-25T19:34:56.542511Z,-1.122009,0.039001,0.062377999999999996
2018-10-25T19:34:56.741511Z,-0.7227779999999999,-0.196411,-0.053711
2018-10-25T19:34:56.940511Z,-0.22534200000000001,-0.18548599999999998,-0.9038700000000001
2018-10-25T19:34:57.161511Z,-1.00415,-0.031921,-0.093689
2018-10-25T19:34:57.351511Z,-0.631958,0.505981,-0.680542
2018-10-25T19:34:57.538511Z,-0.334839,0.437866,-0.25854499999999997
2018-10-25T19:34:57.742511Z,-1.487061,-0.39563000000000004,0.5386350000000001
2018-10-25T19:34:57.941511Z,-2.313782,-0.732056,-2.626404
2018-10-25T19:34:58.141511Z,1.218323,1.050232,1.4605709999999998
2018-10-25T19:34:58.340511Z,0.261292,-2.012756,-0.503235
2018-10-25T19:34:58.542511Z,-1.834595,-0.083008,0.08606
2018-10-25T19:34:58.751511Z,-1.901001,-0.195251,0.873291
2018-10-25T19:34:58.941511Z,-1.998718,-1.056702,-1.617249
2018-10-25T19:34:59.143511Z,-1.1990969999999999,0.096375,0.760254
2018-10-25T19:34:59.345511Z,-2.039978,-1.038269,0.307983
2018-10-25T19:34:59.560511Z,-1.413513,-0.39874299999999996,-1.190674
2018-10-25T19:34:59.740511Z,-0.506714,0.377197,0.09106399999999999
2018-10-25T19:34:59.947511Z,-2.49353,-1.168457,1.706482
2018-10-25T19:35:00.147511Z,-2.090576,-0.43652299999999994,-1.797668
2018-10-25T19:35:00.354511Z,-0.715576,0.8485719999999999,-0.199707
2018-10-25T19:35:00.543511Z,-1.507629,-0.076843,2.483643
2018-10-25T19:35:00.743511Z,-1.1207280000000002,-0.599487,-1.868591
2018-10-25T19:35:00.940511Z,0.283936,0.655273,0.02301
2018-10-25T19:35:01.140511Z,-2.126648,-1.505981,-0.233643
2018-10-25T19:35:01.340511Z,-2.880554,-1.180115,-0.6755369999999999
2018-10-25T19:35:01.540511Z,-1.6608889999999998,-0.8822629999999999,0.22296100000000002
2018-10-25T19:35:01.770511Z,-0.394165,0.21166999999999997,0.298157
2018-10-25T19:35:01.941511Z,-1.6853029999999998,-0.066528,-0.22351100000000002
2018-10-25T19:35:02.340511Z,-1.291138,-0.604797,-0.31549099999999997
2018-10-25T19:35:02.560511Z,-0.8062739999999999,-0.591492,-0.92627
2018-10-25T19:35:02.741511Z,-1.088196,-0.5718989999999999,-0.26861599999999997
2018-10-25T19:35:02.940511Z,-0.459045,-0.407715,-0.095093
2018-10-25T19:35:03.141511Z,-0.8677370000000001,-0.261475,-0.687439
2018-10-25T19:35:03.342511Z,-0.9936520000000001,0.10516400000000001,-0.325989
2018-10-25T19:35:03.542511Z,-1.11554,-0.036438,0.018127
2018-10-25T19:35:03.733511Z,-0.748474,-0.12561,0.09295700000000001
2018-10-25T19:35:03.940511Z,-0.391846,-0.353149,-1.036438
2018-10-25T19:35:04.150511Z,-0.086548,0.100342,-0.5658569999999999
2018-10-25T19:35:04.346511Z,-0.328369,0.263123,-0.87085
2018-10-25T19:35:04.545511Z,0.278931,-0.71521,-0.112732
2018-10-25T19:35:04.744511Z,-1.108582,-0.425659,-0.7964479999999999
2018-10-25T19:35:04.946511Z,-0.788147,1.157776,-0.772766
2018-10-25T19:35:05.141511Z,-0.126404,-0.524231,1.243591
2018-10-25T19:35:05.342511Z,-0.068176,-0.316345,-1.860901
2018-10-25T19:35:05.541511Z,-0.464722,0.5755,0.22699
2018-10-25T19:35:05.740511Z,-0.388245,-1.0981450000000001,1.846313
2018-10-25T19:35:05.949511Z,-1.330444,-1.399414,-1.198608
2018-10-25T19:35:06.184511Z,-0.6370239999999999,-0.01355,-3.101929
2018-10-25T19:35:06.346511Z,-0.672974,0.747681,0.522827
2018-10-25T19:35:06.551511Z,-0.416138,-1.670288,-0.098633
2018-10-25T19:35:06.758511Z,-0.464417,-0.710022,-0.873718
2018-10-25T19:35:06.941511Z,-0.904541,1.0576780000000001,0.22705100000000003
2018-10-25T19:35:07.147511Z,-1.151184,0.06536900000000001,1.107483
2018-10-25T19:35:07.340511Z,-1.400024,-1.503174,-0.225037
2018-10-25T19:35:07.541511Z,-0.899475,-0.085022,-0.4729
2018-10-25T19:35:07.739511Z,0.081299,0.057250999999999996,0.238281
2018-10-25T19:35:07.940511Z,0.779358,-1.4545290000000002,-0.694946
2018-10-25T19:35:08.141511Z,0.391357,-0.045105,-0.857605
2018-10-25T19:35:08.341511Z,0.37493899999999997,0.5683590000000001,0.48931899999999995
2018-10-25T19:35:08.547511Z,-0.42077600000000004,-0.702026,1.7284549999999999
2018-10-25T19:35:08.745511Z,-1.086914,-1.9553220000000002,-0.92511
2018-10-25T19:35:08.951511Z,-0.881165,-0.6773680000000001,-0.31012
2018-10-25T19:35:09.138511Z,-0.481567,-0.144287,-0.37146
2018-10-25T19:35:09.341511Z,-1.39624,-0.921143,0.7304689999999999
2018-10-25T19:35:09.551511Z,-0.815308,-1.2885739999999999,0.244873
2018-10-25T19:35:09.740511Z,-0.7948609999999999,0.069641,0.24731399999999998
2018-10-25T19:35:09.942511Z,0.177002,0.010803,-0.756165
2018-10-25T19:35:10.142511Z,1.0126950000000001,0.10638399999999999,-2.066589
2018-10-25T19:35:10.341511Z,1.007935,0.6643680000000001,1.1541139999999999
2018-10-25T19:35:10.542511Z,-0.389832,-1.916748,-0.381531
2018-10-25T19:35:10.741511Z,-0.7086180000000001,-1.579041,0.013366999999999999
2018-10-25T19:35:10.941511Z,-0.45355200000000007,-0.307678,-0.654541
2018-10-25T19:35:11.145511Z,-0.6697390000000001,0.34631300000000004,-0.174377
2018-10-25T19:35:11.346511Z,-0.746826,0.282288,0.364197
2018-10-25T19:35:11.549511Z,-0.10308800000000001,-0.5646359999999999,-0.11907999999999999
2018-10-25T19:35:11.741511Z,-0.004272,-0.158447,-0.355042
2018-10-25T19:35:11.940511Z,-0.697388,0.110168,-0.024048
2018-10-25T19:35:12.145511Z,-0.063538,-0.881775,2.1896970000000002
2018-10-25T19:35:12.339511Z,-1.349304,-0.7948,-0.23290999999999998
2018-10-25T19:35:12.545511Z,-1.140564,-0.22021500000000002,0.224304
2018-10-25T19:35:12.754511Z,-0.6193850000000001,0.15704300000000002,-0.208679
2018-10-25T19:35:12.943511Z,-1.344666,0.282593,-0.627625
2018-10-25T19:35:13.340511Z,-1.191406,1.224243,-0.370056
2018-10-25T19:35:13.554511Z,-1.421082,-0.815002,0.510437
2018-10-25T19:35:13.745511Z,-0.27563499999999996,-1.3641969999999999,-0.178223
2018-10-25T19:35:13.940511Z,-0.504456,-0.46392799999999995,-1.1277469999999998
2018-10-25T19:35:14.140511Z,0.593811,0.862671,-0.061157
2018-10-25T19:35:14.342511Z,-0.490112,1.0972899999999999,0.855591
2018-10-25T19:35:14.543511Z,-1.61676,-0.795654,-1.272217
2018-10-25T19:35:14.742511Z,-2.594421,-0.9454959999999999,-0.168518
2018-10-25T19:35:14.940511Z,-1.608398,0.5843510000000001,0.368164
2018-10-25T19:35:15.140511Z,-1.1448969999999998,0.6251220000000001,-0.206848
2018-10-25T19:35:15.352511Z,-1.974121,-0.9150389999999999,0.728943
2018-10-25T19:35:15.540511Z,-1.9711299999999998,-1.7120970000000002,0.110779
2018-10-25T19:35:15.740511Z,-1.524414,-0.42218,-0.24542199999999997
2018-10-25T19:35:15.940511Z,-1.157776,0.035033999999999996,0.599426
2018-10-25T19:35:16.139511Z,-1.8980709999999998,0.391296,1.6322020000000002
2018-10-25T19:35:16.340511Z,-0.698669,-0.672241,-1.5764770000000001
2018-10-25T19:35:16.539511Z,-1.640198,-1.432251,-0.121521
2018-10-25T19:35:16.741511Z,-0.36145,-0.360962,0.28930700000000004
2018-10-25T19:35:16.941511Z,-1.349792,-0.112122,-0.167114
2018-10-25T19:35:17.172511Z,-0.892334,-0.209351,-3.236389
2018-10-25T19:35:17.346511Z,-0.530457,0.168274,-0.513977
2018-10-25T19:35:17.547511Z,-1.1497190000000002,0.034729,-0.349487
2018-10-25T19:35:17.748511Z,-1.102783,-0.029845999999999998,0.034485
2018-10-25T19:35:17.944511Z,-0.400391,0.502808,-0.394409
2018-10-25T19:35:18.143511Z,0.022034,0.329468,-0.405334
2018-10-25T19:35:18.340511Z,-0.572815,0.595032,-0.509949
2018-10-25T19:35:18.541511Z,0.526733,0.9765010000000001,0.08843999999999999
2018-10-25T19:35:18.748511Z,0.144043,-0.5157470000000001,0.972656
2018-10-25T19:35:18.945511Z,-0.867188,-1.4974370000000001,-0.764832
2018-10-25T19:35:19.141511Z,-1.18219,-0.779358,-0.244385
2018-10-25T19:35:19.344511Z,-1.070007,0.14978,0.098389
2018-10-25T19:35:19.541511Z,-0.744202,-0.019104,-0.026489
2018-10-25T19:35:19.741511Z,0.141846,-0.8974,-0.455383
2018-10-25T19:35:19.939511Z,0.067993,-0.679077,-2.235779
2018-10-25T19:35:20.140511Z,-0.743835,0.34173600000000004,0.035889
2018-10-25T19:35:20.344511Z,0.00946,-0.8875120000000001,0.5620729999999999
2018-10-25T19:35:20.547511Z,-0.8905639999999999,-1.094177,-0.037537
2018-10-25T19:35:20.741511Z,-1.4290770000000002,-0.311096,-0.8317260000000001
2018-10-25T19:35:20.941511Z,-1.017212,0.42877200000000004,-0.53363
2018-10-25T19:35:21.141511Z,-0.817078,0.368225,-0.289673
2018-10-25T19:35:21.341511Z,-0.44207799999999997,-0.713013,-0.41479499999999997
2018-10-25T19:35:21.543511Z,0.52594,-0.358459,-1.606262
2018-10-25T19:35:21.741511Z,-0.778076,-0.6296390000000001,-0.319153
2018-10-25T19:35:21.940511Z,-0.28656,-0.003296,0.474609
2018-10-25T19:35:22.147511Z,-0.372192,-1.150024,1.149475
2018-10-25T19:35:22.347511Z,-1.8693240000000002,-1.1725459999999999,-0.521729
2018-10-25T19:35:22.541511Z,-1.2998049999999999,-0.41363500000000003,-0.922058
2018-10-25T19:35:22.740511Z,-0.8500979999999999,-0.032043,-0.27831999999999996
2018-10-25T19:35:22.941511Z,-0.6503909999999999,0.267395,-0.358887
2018-10-25T19:35:23.141511Z,-0.666626,0.417969,-0.176086
2018-10-25T19:35:23.349511Z,-0.021057,-0.290771,2.039673
2018-10-25T19:35:23.541511Z,-0.270813,-0.794495,0.138794
2018-10-25T19:35:23.740511Z,-0.661621,-0.437134,-0.160217
2018-10-25T19:35:23.942511Z,-0.46173100000000006,-0.022522,0.166321
2018-10-25T19:35:24.154511Z,-0.128662,-0.530396,0.007324
2018-10-25T19:35:24.350511Z,-0.845886,-1.3754879999999998,0.16656500000000002
2018-10-25T19:35:24.547511Z,-1.1085209999999999,-1.330444,0.32519499999999996
2018-10-25T19:35:24.748511Z,-0.260986,-0.08667000000000001,-0.115601
2018-10-25T19:35:24.941511Z,-1.272644,0.13336199999999998,-0.266418
2018-10-25T19:35:25.140511Z,-0.7112430000000001,0.8660889999999999,-0.359009
2018-10-25T19:35:25.342511Z,0.25885,0.811279,0.536926
2018-10-25T19:35:25.542511Z,0.12066700000000001,-1.974304,0.625732
2018-10-25T19:35:25.740511Z,-0.130676,-0.660339,-0.7297359999999999
2018-10-25T19:35:25.947511Z,0.155701,0.6526489999999999,0.088379
2018-10-25T19:35:26.141511Z,0.47210699999999994,0.336853,0.06189
2018-10-25T19:35:26.341511Z,-0.835205,-1.139343,-1.061523
2018-10-25T19:35:26.746511Z,-1.555115,-0.922119,-0.562195
2018-10-25T19:35:26.944511Z,-0.341125,-0.050598000000000004,0.726685
2018-10-25T19:35:27.140511Z,0.34137,-1.309448,-0.135864
2018-10-25T19:35:27.338511Z,-0.10351600000000001,-0.796265,-0.345032
2018-10-25T19:35:27.540511Z,-0.056641,-0.465149,-0.083984
2018-10-25T19:35:27.751511Z,0.123901,-0.5367430000000001,-0.533936
2018-10-25T19:35:27.946511Z,-0.136597,-1.0462040000000001,-0.005676
2018-10-25T19:35:28.141511Z,-1.021423,-0.737366,-0.156677
2018-10-25T19:35:28.341511Z,-0.446655,0.15704300000000002,-0.141602
2018-10-25T19:35:28.542511Z,-0.7733760000000001,0.20080599999999998,-0.5623779999999999
2018-10-25T19:35:28.747511Z,-0.047424,0.32000700000000004,-0.14135699999999998
2018-10-25T19:35:28.938511Z,-0.24291999999999997,-1.191223,0.30127
2018-10-25T19:35:29.138511Z,0.079773,-0.66925,-0.244385
2018-10-25T19:35:29.341511Z,-0.374573,-0.437317,-1.263306
2018-10-25T19:35:29.532511Z,0.46813999999999995,-0.145813,-0.433044
2018-10-25T19:35:29.747511Z,-1.2103270000000002,-2.097717,-1.1469120000000002
2018-10-25T19:35:29.940511Z,-2.305359,-1.7363279999999999,-0.549622
2018-10-25T19:35:30.160511Z,-1.091736,-0.440796,-0.046692000000000004
2018-10-25T19:35:30.340511Z,-1.660828,-0.353638,-0.9818120000000001
2018-10-25T19:35:30.543511Z,-2.212097,-0.508911,0.337219
2018-10-25T19:35:30.743511Z,-0.35742199999999996,-1.332336,-1.440491
2018-10-25T19:35:30.941511Z,-0.8356319999999999,-0.729248,-0.308228
2018-10-25T19:35:31.141511Z,-0.701965,-0.04718,-0.10553
2018-10-25T19:35:31.349511Z,0.127136,0.758057,0.147095
2018-10-25T19:35:31.541511Z,-1.874084,-0.6098020000000001,2.7036740000000004
2018-10-25T19:35:31.741511Z,-3.973267,-2.004639,-0.14111300000000002
2018-10-25T19:35:31.940511Z,-1.477783,0.203979,-0.047119
2018-10-25T19:35:32.139511Z,-1.0935059999999999,0.042542,0.429443
2018-10-25T19:35:32.342511Z,-0.661316,-1.237854,-0.418213
2018-10-25T19:35:32.547511Z,-0.682434,-0.570679,-0.9274899999999999
2018-10-25T19:35:32.743511Z,-0.057616999999999995,0.391785,-0.7495729999999999
2018-10-25T19:35:32.940511Z,-0.8253780000000001,-0.204407,0.170715
2018-10-25T19:35:33.140511Z,-1.434082,-1.38678,0.148071
2018-10-25T19:35:33.338511Z,-1.280457,-0.856201,0.280212
2018-10-25T19:35:33.541511Z,-1.7092900000000002,-0.145874,-0.042114
2018-10-25T19:35:33.742511Z,-0.638428,0.369141,-0.506653
2018-10-25T19:35:33.952511Z,-0.200195,-0.7067260000000001,-1.016907
2018-10-25T19:35:34.139511Z,-0.305176,-1.905823,-0.067749
2018-10-25T19:35:34.351511Z,-0.30456500000000003,-1.261841,0.14221199999999998
2018-10-25T19:35:34.543511Z,0.11871300000000001,-1.1959229999999998,-0.36743200000000004
2018-10-25T19:35:34.749511Z,0.36132800000000004,1.083435,-0.474304
2018-10-25T19:35:34.941511Z,-0.318176,1.064697,-0.562561
2018-10-25T19:35:35.142511Z,-0.66687,0.200195,0.291138
2018-10-25T19:35:35.341511Z,-0.17260699999999998,-1.193665,0.500793
2018-10-25T19:35:35.541511Z,-1.00531,-1.759521,0.627502
2018-10-25T19:35:35.746511Z,-0.017334,-1.137451,0.349609
2018-10-25T19:35:35.943511Z,0.052917,-0.880676,-0.25616500000000003
2018-10-25T19:35:36.144511Z,-0.288635,0.002136,-0.342896
2018-10-25T19:35:36.345511Z,-0.13378900000000002,-0.598267,0.415955
2018-10-25T19:35:36.541511Z,0.18743900000000002,-0.958435,0.200317
2018-10-25T19:35:36.741511Z,0.647705,0.643921,0.180054
2018-10-25T19:35:36.944511Z,0.645691,1.185547,-1.250427
2018-10-25T19:35:37.140511Z,0.284058,0.49108900000000005,0.10766600000000001
2018-10-25T19:35:37.340511Z,0.384888,-0.957458,-0.624817
2018-10-25T19:35:37.541511Z,0.21026599999999998,-0.438171,-0.827209
2018-10-25T19:35:37.748511Z,0.181763,0.732971,0.266235
2018-10-25T19:35:37.942511Z,-0.387268,1.128784,-1.685425
2018-10-25T19:35:38.141511Z,0.8436889999999999,0.660828,-0.631836
2018-10-25T19:35:38.341511Z,0.827148,0.065063,1.729675
2018-10-25T19:35:38.542511Z,0.667725,0.784424,-0.814575
2018-10-25T19:35:38.743511Z,-0.051208000000000004,1.234741,-0.512695
2018-10-25T19:35:38.942511Z,0.430237,-0.046508999999999995,-0.448975
2018-10-25T19:35:39.151511Z,-0.504944,-0.553284,-0.592468
2018-10-25T19:35:39.338511Z,-0.7653810000000001,-0.557495,-0.24706999999999998
2018-10-25T19:35:39.740511Z,-0.175598,-0.133972,0.087341
2018-10-25T19:35:39.940511Z,0.47088599999999997,-0.243835,-0.627075
2018-10-25T19:35:40.141511Z,-0.526794,-0.338989,0.330383
2018-10-25T19:35:40.341511Z,0.206421,-0.09704600000000001,-0.284119
2018-10-25T19:35:40.540511Z,0.167786,0.319641,-0.41705299999999995
2018-10-25T19:35:40.742511Z,-0.215454,0.17157,-0.162109
2018-10-25T19:35:41.003511Z,-0.288208,0.351379,-0.236877
2018-10-25T19:35:41.162511Z,0.081665,0.525818,-0.5036010000000001
2018-10-25T19:35:41.347511Z,-0.21307399999999999,1.014038,-0.651428
2018-10-25T19:35:41.548511Z,-0.809021,-0.232483,0.469238
2018-10-25T19:35:41.741511Z,-0.276978,-1.139404,0.357117
2018-10-25T19:35:41.952511Z,-0.538391,-0.569092,0.505249
2018-10-25T19:35:42.150511Z,0.43249499999999996,0.056946000000000004,0.727234
2018-10-25T19:35:42.351511Z,0.47216800000000003,-0.10119600000000001,-0.600952
2018-10-25T19:35:42.551511Z,-1.07135,-1.679504,0.233215
2018-10-25T19:35:42.750511Z,-1.046875,-1.0200200000000001,-0.369629
2018-10-25T19:35:42.951511Z,-1.148315,-0.271423,-0.250977
2018-10-25T19:35:43.156511Z,-1.2485959999999998,-0.049072000000000005,-0.106262
2018-10-25T19:35:43.355511Z,-0.9810180000000001,-0.733398,1.6896970000000002
2018-10-25T19:35:43.552511Z,-0.344727,-0.930481,-0.257202
2018-10-25T19:35:43.750511Z,-0.07757599999999999,-0.528259,0.9957280000000001
2018-10-25T19:35:43.951511Z,-0.622375,-0.024841,-0.532288
2018-10-25T19:35:44.151511Z,-0.039124,-0.174561,-0.810242
2018-10-25T19:35:44.349511Z,0.076538,-0.371948,-0.795349
2018-10-25T19:35:44.551511Z,-0.658752,-0.14935299999999999,0.178284
2018-10-25T19:35:44.751511Z,-0.859192,-0.825623,-0.015441999999999999
2018-10-25T19:35:44.960511Z,-1.105957,-0.44696,0.369141
2018-10-25T19:35:45.151511Z,-0.811951,-0.6094970000000001,-0.101135
2018-10-25T19:35:45.353511Z,-0.24542199999999997,-0.26825,-0.43243400000000004
2018-10-25T19:35:45.564511Z,-0.7562260000000001,-0.328552,-0.576538
2018-10-25T19:35:45.750511Z,-0.19049100000000002,0.020447,0.257629
2018-10-25T19:35:45.950511Z,-0.263123,-0.362183,-0.22192399999999998
2018-10-25T19:35:46.154511Z,-0.397827,-0.37011700000000003,-3.963318
2018-10-25T19:35:46.350511Z,-0.23053,-0.266846,-0.7348020000000001
2018-10-25T19:35:46.550511Z,-0.014893,-0.31012,-0.180481
2018-10-25T19:35:46.763511Z,-0.37493899999999997,-0.0037229999999999997,-0.055664
2018-10-25T19:35:46.956511Z,0.175537,-0.108154,-0.393494
2018-10-25T19:35:47.150511Z,-0.508972,-0.287598,-0.187317
2018-10-25T19:35:47.350511Z,-0.073853,-0.316589,-0.100708
2018-10-25T19:35:47.551511Z,-0.601379,-0.290344,-0.09600800000000001
2018-10-25T19:35:47.750511Z,-0.41125500000000004,-0.28979499999999997,0.056213
2018-10-25T19:35:47.951511Z,-0.277954,-0.24658200000000002,-0.223938
2018-10-25T19:35:48.150511Z,-0.055786,-0.15924100000000002,0.10790999999999999
2018-10-25T19:35:48.360511Z,-0.45343,-0.157104,0.331177
2018-10-25T19:35:48.561511Z,-0.476074,-0.330505,-0.276733
2018-10-25T19:35:48.771511Z,-0.128052,0.12078900000000001,-0.068787
2018-10-25T19:35:48.962511Z,-0.253784,-0.227173,0.037964
2018-10-25T19:35:49.161511Z,0.407654,-0.005554,-1.076416
2018-10-25T19:35:49.362511Z,1.109741,0.294556,0.652832
2018-10-25T19:35:49.560511Z,-0.740356,0.231812,0.374756
2018-10-25T19:35:49.760511Z,-0.429443,0.975525,-0.86792
2018-10-25T19:35:49.960511Z,-0.200745,1.051208,-0.784424
2018-10-25T19:35:50.160511Z,0.6290279999999999,0.632996,0.6306149999999999
2018-10-25T19:35:50.366511Z,1.300171,-1.069885,-0.292236
2018-10-25T19:35:50.572511Z,0.292542,-0.221985,-0.971375
2018-10-25T19:35:50.768511Z,0.596985,0.160522,0.294983
2018-10-25T19:35:50.966511Z,-0.366333,-1.335083,0.9920040000000001
2018-10-25T19:35:51.160511Z,-1.184387,-1.122559,0.01178
2018-10-25T19:35:51.363511Z,-0.43292200000000003,0.007324,-0.113525
2018-10-25T19:35:51.562511Z,0.075684,0.49762,-0.727722
2018-10-25T19:35:51.760511Z,-0.154053,0.862366,-0.505554
2018-10-25T19:35:51.969511Z,1.083191,-1.039795,-1.2163700000000002
2018-10-25T19:35:52.165511Z,0.412231,-0.964966,-1.0090940000000002
2018-10-25T19:35:52.362511Z,-0.13708499999999998,-0.35931399999999997,-0.25244099999999997
2018-10-25T19:35:52.560511Z,0.36853,-0.671204,-0.645142
2018-10-25T19:35:52.827511Z,0.096985,-0.54364,0.507263
2018-10-25T19:35:52.970511Z,0.11138900000000002,-0.256653,-0.324829
2018-10-25T19:35:53.166511Z,0.15576199999999998,-0.26550300000000004,-0.351746
2018-10-25T19:35:53.577511Z,0.521423,-0.19165,-0.300598
2018-10-25T19:35:53.770511Z,0.15850799999999998,0.457031,0.076111
2018-10-25T19:35:53.968511Z,0.061157,0.697144,-0.515808
2018-10-25T19:35:54.161511Z,0.10986300000000002,1.46698,-0.808716
2018-10-25T19:35:54.364511Z,0.371338,1.590332,0.551453
2018-10-25T19:35:54.562511Z,1.97229,-1.250732,-2.348938
2018-10-25T19:35:54.764511Z,1.2152100000000001,-0.529663,-2.527527
2018-10-25T19:35:54.968511Z,1.5285030000000002,1.041077,0.549316
2018-10-25T19:35:55.152511Z,0.065857,-0.14135699999999998,-0.146729
2018-10-25T19:35:55.367511Z,-0.966614,-1.924927,-0.596924
2018-10-25T19:35:55.560511Z,-0.666443,-0.4422,-0.654175
2018-10-25T19:35:55.760511Z,0.07312,0.514954,0.303772
2018-10-25T19:35:55.960511Z,-0.6854859999999999,-0.257019,0.29248
2018-10-25T19:35:56.191511Z,-0.009826999999999999,-1.1956790000000002,-0.022216999999999997
2018-10-25T19:35:56.367511Z,-0.037231,-1.0339969999999998,-0.532898
2018-10-25T19:35:56.561511Z,-0.184326,0.188843,-0.227417
2018-10-25T19:35:56.761511Z,0.961609,0.22821,-0.078003
2018-10-25T19:35:56.965511Z,-0.12854000000000002,-1.063293,0.779541
2018-10-25T19:35:57.160511Z,-0.08416699999999999,-0.46740699999999996,-0.189575
2018-10-25T19:35:57.358511Z,-0.135132,-0.09399400000000001,-0.8031010000000001
2018-10-25T19:35:57.561511Z,0.085449,0.803589,-0.526367
2018-10-25T19:35:57.763511Z,-0.247498,1.314819,1.106262
2018-10-25T19:35:57.962511Z,1.108826,-1.4418950000000001,-2.18927
2018-10-25T19:35:58.161511Z,0.7852779999999999,-0.23895300000000003,-1.618958
2018-10-25T19:35:58.362511Z,1.38501,1.234741,-0.397522
2018-10-25T19:35:58.567511Z,0.398621,0.09301799999999999,2.9342650000000003
2018-10-25T19:35:58.765511Z,-1.347046,-1.750977,-0.5276489999999999
2018-10-25T19:35:58.961511Z,-0.082153,-0.223816,-1.485107
2018-10-25T19:35:59.161511Z,-0.10998499999999999,0.760742,0.897766
2018-10-25T19:35:59.360511Z,-0.404175,-1.361145,-0.000122
2018-10-25T19:35:59.560511Z,-0.058472,-1.335815,-1.005859
2018-10-25T19:35:59.760511Z,0.272034,0.236267,-0.047119
2018-10-25T19:35:59.966511Z,0.491882,-0.378723,0.471558
2018-10-25T19:36:00.227511Z,-0.739624,-1.213135,1.58429
2018-10-25T19:36:00.377511Z,-0.812561,-1.5806879999999999,0.220032
2018-10-25T19:36:00.560511Z,-0.328308,-0.59729,-0.25769000000000003
2018-10-25T19:36:00.766511Z,-0.388733,-0.23400900000000002,0.090088
2018-10-25T19:36:00.961511Z,-0.719543,0.619934,-0.36145
2018-10-25T19:36:01.161511Z,-0.8566889999999999,1.79834,-0.468079
2018-10-25T19:36:01.360511Z,0.567261,-1.494202,1.7713009999999998
2018-10-25T19:36:01.562511Z,0.756409,-1.397217,-1.6290280000000001
2018-10-25T19:36:01.766511Z,0.071655,0.300537,0.797729
2018-10-25T19:36:01.962511Z,0.461609,0.20306400000000002,0.18670699999999998
2018-10-25T19:36:02.170511Z,-1.0961299999999998,-2.015259,1.771729
2018-10-25T19:36:02.366511Z,-0.788208,-1.619507,-1.033569
2018-10-25T19:36:02.646511Z,0.086914,-0.28930700000000004,0.506836
2018-10-25T19:36:02.758511Z,0.470459,0.231873,1.1727290000000001
2018-10-25T19:36:02.961511Z,-0.6156010000000001,-1.4057620000000002,1.215332
2018-10-25T19:36:03.161511Z,-0.32074,-0.873657,-0.935242
2018-10-25T19:36:03.360511Z,-1.4055790000000001,-0.601074,-0.271545
2018-10-25T19:36:03.561511Z,-1.5610959999999998,-1.312805,2.190369
2018-10-25T19:36:03.762511Z,0.137695,0.657654,-1.413086
2018-10-25T19:36:03.961511Z,-1.925903,1.64563,1.159912
2018-10-25T19:36:04.160511Z,0.11096199999999999,-2.0512080000000004,0.660339
2018-10-25T19:36:04.360511Z,1.179382,-2.174866,-0.497925
2018-10-25T19:36:04.568511Z,0.534058,-1.5264280000000001,-1.027527
2018-10-25T19:36:04.762511Z,0.267395,-0.822876,0.201599
2018-10-25T19:36:04.962511Z,0.291443,-0.27575700000000003,-0.292297
2018-10-25T19:36:05.161511Z,0.29370100000000005,-0.5451050000000001,-1.366638
2018-10-25T19:36:05.363511Z,-0.76593,-1.260071,-0.947876
2018-10-25T19:36:05.561511Z,-1.540222,-1.1942139999999999,0.166321
2018-10-25T19:36:05.763511Z,-0.838989,-0.29186999999999996,-0.461487
2018-10-25T19:36:05.971511Z,0.077698,0.274536,0.454712
2018-10-25T19:36:06.160511Z,-0.215027,0.307068,-0.575928
2018-10-25T19:36:06.359511Z,-0.131226,0.938049,-0.328125
2018-10-25T19:36:06.561511Z,-0.557556,-0.467102,0.23590100000000003
2018-10-25T19:36:06.760511Z,0.983093,-1.520813,-0.9735719999999999
2018-10-25T19:36:07.161511Z,1.6260379999999999,-0.165588,-0.760254
2018-10-25T19:36:07.365511Z,0.42572,0.314697,-0.545654
2018-10-25T19:36:07.566511Z,0.730164,0.031006,1.2841799999999999
2018-10-25T19:36:07.770511Z,-1.1503299999999999,-1.6002809999999998,-0.47613500000000003
2018-10-25T19:36:07.961511Z,-1.366333,-1.40625,-0.555908
2018-10-25T19:36:08.163511Z,-0.189026,-0.643311,0.070435
2018-10-25T19:36:08.361511Z,-0.026733,-0.215942,-0.342163
2018-10-25T19:36:08.558511Z,-0.375366,-0.364685,-0.160156
2018-10-25T19:36:08.755511Z,0.169312,0.009399,-0.888
2018-10-25T19:36:08.966511Z,-0.253052,0.06323200000000001,-0.040833
2018-10-25T19:36:09.162511Z,-0.8701780000000001,0.563171,0.09411599999999999
2018-10-25T19:36:09.362511Z,-1.232605,0.44873,-0.23120100000000002
2018-10-25T19:36:09.564511Z,-0.20459000000000002,0.7202149999999999,-0.402954
2018-10-25T19:36:09.760511Z,-0.33728,-1.0699459999999998,2.021484
2018-10-25T19:36:09.961511Z,0.409058,-1.903259,0.482178
2018-10-25T19:36:10.160511Z,0.20904499999999998,-0.687805,-0.164185
2018-10-25T19:36:10.360511Z,0.491333,-0.035706,-0.187195
2018-10-25T19:36:10.566511Z,-1.050598,-1.555481,1.733887
2018-10-25T19:36:10.766511Z,-1.323547,-1.473755,-1.759216
2018-10-25T19:36:10.966511Z,-0.949463,-1.9182740000000003,-0.700745
2018-10-25T19:36:11.163511Z,-0.332764,-1.111877,0.054932
2018-10-25T19:36:11.461511Z,-0.675293,-0.762451,-0.72644
2018-10-25T19:36:11.559511Z,-1.143066,-0.113159,-0.500549
2018-10-25T19:36:11.772511Z,-1.807007,-1.3876950000000001,1.894897
2018-10-25T19:36:11.967511Z,0.14819300000000002,-1.471741,0.654968
2018-10-25T19:36:12.161511Z,0.81665,-0.730225,0.606934
2018-10-25T19:36:12.362511Z,0.581299,0.154175,0.418396
2018-10-25T19:36:12.563511Z,1.393127,0.8823850000000001,0.24054
2018-10-25T19:36:12.760511Z,0.935974,0.074097,0.358398
2018-10-25T19:36:12.963511Z,-0.18573,-1.174072,-0.400818
2018-10-25T19:36:13.161511Z,-0.43615699999999996,-0.476929,-0.237671
2018-10-25T19:36:13.363511Z,0.23162800000000003,0.40942399999999995,-0.43426499999999996
2018-10-25T19:36:13.580511Z,-0.159729,1.074463,-0.490784
2018-10-25T19:36:13.767511Z,0.973511,0.23474099999999998,-0.8647459999999999
2018-10-25T19:36:13.967511Z,1.53186,-1.409363,0.049072000000000005
2018-10-25T19:36:14.167511Z,0.988037,0.17395,0.001648
2018-10-25T19:36:14.360511Z,0.586853,0.668335,0.017334
2018-10-25T19:36:14.560511Z,1.0709229999999998,0.9067379999999999,-0.24761999999999998
2018-10-25T19:36:14.760511Z,1.517456,-0.139221,-0.806213
2018-10-25T19:36:14.972511Z,2.235168,0.140991,-0.311218
2018-10-25T19:36:15.160511Z,-0.055175999999999996,-0.33874499999999996,-0.010254000000000001
2018-10-25T19:36:15.361511Z,-1.19519,-0.693909,0.8624879999999999
2018-10-25T19:36:15.569511Z,-0.299194,0.149048,-0.624512
2018-10-25T19:36:15.761511Z,-0.486389,1.66687,-0.44928
2018-10-25T19:36:15.962511Z,-0.397095,1.261841,-0.8401489999999999
2018-10-25T19:36:16.161511Z,-0.557739,-0.551697,1.922363
2018-10-25T19:36:16.361511Z,0.336121,-0.670227,-0.851318
2018-10-25T19:36:16.561511Z,0.130859,0.814941,-0.510742
2018-10-25T19:36:16.797511Z,0.385498,0.6879270000000001,-0.057616999999999995
2018-10-25T19:36:16.967511Z,0.6092529999999999,-0.233704,0.392029
2018-10-25T19:36:17.166511Z,0.17193599999999998,-0.8338620000000001,-0.549194
2018-10-25T19:36:17.360511Z,-0.148621,-0.8884280000000001,-1.105164
2018-10-25T19:36:17.567511Z,0.29943800000000004,0.458618,-0.47644
2018-10-25T19:36:17.762511Z,-0.08996599999999999,0.743347,-0.44281000000000004
2018-10-25T19:36:17.960511Z,0.106995,-0.5502319999999999,0.666199
2018-10-25T19:36:18.160511Z,0.8775629999999999,-0.965881,-0.239319
2018-10-25T19:36:18.360511Z,0.284912,-0.21026599999999998,-0.653259
2018-10-25T19:36:18.561511Z,0.44751,0.9155270000000001,-0.576904
2018-10-25T19:36:18.767511Z,0.532288,-0.122925,0.916626
2018-10-25T19:36:18.963511Z,-0.8825069999999999,-1.30426,-0.764893
2018-10-25T19:36:19.165511Z,-1.153809,-1.241516,-0.549927
2018-10-25T19:36:19.380511Z,-0.361145,-0.455078,-0.031372000000000004
2018-10-25T19:36:19.561511Z,-0.16503900000000002,0.011169,-0.45007299999999995
2018-10-25T19:36:19.757511Z,-0.641846,-0.046143,-0.181885
2018-10-25T19:36:19.963511Z,-0.80188,-0.443542,0.073853
2018-10-25T19:36:20.360511Z,-0.119202,-0.958374,-0.066833
2018-10-25T19:36:20.563511Z,-0.49090600000000006,-0.41851800000000006,0.166931
2018-10-25T19:36:20.760511Z,0.453796,-0.516541,1.05011
2018-10-25T19:36:20.961511Z,-0.06286599999999999,-1.229065,-0.58136
2018-10-25T19:36:21.161511Z,0.129395,-0.592346,-0.700073
2018-10-25T19:36:21.359511Z,-0.07482899999999999,-0.37677,-0.618042
2018-10-25T19:36:21.560511Z,-0.735779,-0.081604,-0.007384999999999999
2018-10-25T19:36:21.765511Z,-0.148254,-0.095947,-0.086975
2018-10-25T19:36:21.957511Z,-0.111694,-0.228638,-0.345459
2018-10-25T19:36:22.162511Z,-0.034241,-0.10424800000000001,-0.33874499999999996
2018-10-25T19:36:22.364511Z,-0.388428,0.018005,0.14721700000000001
2018-10-25T19:36:22.560511Z,0.27319299999999996,-0.191467,-0.8034060000000001
2018-10-25T19:36:22.760511Z,-0.22302199999999997,-0.007141,0.162598
2018-10-25T19:36:22.966511Z,-0.080139,-0.11492899999999999,-0.377869
2018-10-25T19:36:23.185511Z,0.611816,-0.23406999999999997,0.937744
2018-10-25T19:36:23.362511Z,-0.389343,-0.0495,-0.313538
2018-10-25T19:36:23.564511Z,-0.07074,0.10986300000000002,0.074585
2018-10-25T19:36:23.762511Z,-0.252319,-0.025269,-0.274841
2018-10-25T19:36:23.961511Z,-0.459717,0.480469,-0.596558
2018-10-25T19:36:24.168511Z,-0.081238,0.587036,-0.680176
2018-10-25T19:36:24.360511Z,-0.144714,0.733765,-0.0017699999999999999
2018-10-25T19:36:24.578511Z,0.33056599999999997,-0.041260000000000005,-0.431885
2018-10-25T19:36:24.767511Z,0.620667,-1.312622,-0.387939
2018-10-25T19:36:24.967511Z,0.474121,-0.7816770000000001,-0.662964
2018-10-25T19:36:25.160511Z,0.200195,-0.60022,0.351196
2018-10-25T19:36:25.361511Z,0.123474,-0.466553,0.1698
2018-10-25T19:36:25.562511Z,-0.20965599999999998,-1.3416139999999999,-0.759033
2018-10-25T19:36:25.771511Z,-1.0672,-1.026245,-0.591919
2018-10-25T19:36:25.957511Z,-0.299011,-0.44458000000000003,-0.431763
2018-10-25T19:36:26.176511Z,-0.442871,-0.061707000000000005,-0.197876
2018-10-25T19:36:26.364511Z,-0.419128,0.14440899999999998,0.054871
2018-10-25T19:36:26.561511Z,-0.389648,0.264648,-0.33886700000000003
2018-10-25T19:36:26.769511Z,-0.16528299999999999,-0.046387,-0.27319299999999996
2018-10-25T19:36:26.961511Z,0.523438,-0.289978,-0.147949
2018-10-25T19:36:27.160511Z,0.36615,-0.839966,0.018616
2018-10-25T19:36:27.360511Z,0.000305,-0.512085,-0.156372
2018-10-25T19:36:27.561511Z,-0.188782,-0.216919,1.318481
2018-10-25T19:36:27.760511Z,-0.14013699999999998,-0.323303,0.004822
2018-10-25T19:36:27.960511Z,-0.011108,-0.768127,0.13189700000000001
2018-10-25T19:36:28.158511Z,-0.27575700000000003,-0.414062,-0.088684
2018-10-25T19:36:28.360511Z,-1.234924,-0.511047,-0.16095
2018-10-25T19:36:28.560511Z,-0.847046,-0.45282,-0.091125
2018-10-25T19:36:28.844511Z,-0.5093989999999999,-0.582275,-0.26355
2018-10-25T19:36:28.958511Z,-0.431824,-0.516602,0.08197
2018-10-25T19:36:29.169511Z,-0.47467,-0.36138899999999996,0.070312
2018-10-25T19:36:29.364511Z,-0.315186,-0.173035,-0.312073
2018-10-25T19:36:29.561511Z,-1.033264,0.5138550000000001,-0.309143
2018-10-25T19:36:29.762511Z,-0.030273,0.703491,-0.684265
2018-10-25T19:36:29.963511Z,-0.766602,0.5639649999999999,-1.100403
2018-10-25T19:36:30.162511Z,-0.999451,0.8967290000000001,0.401123
2018-10-25T19:36:30.361511Z,-0.632141,-1.171448,0.507568
2018-10-25T19:36:30.561511Z,0.5745239999999999,-1.159973,-0.596497
2018-10-25T19:36:30.761511Z,-0.125671,-0.42053199999999996,-0.15478499999999998
2018-10-25T19:36:31.036511Z,0.266602,0.34936500000000004,2.2331540000000003
2018-10-25T19:36:31.160511Z,-0.8506469999999999,-1.189209,0.789185
2018-10-25T19:36:31.366511Z,-1.224304,-1.8950200000000001,0.55304
2018-10-25T19:36:31.566511Z,-0.096985,-0.762756,0.063354
2018-10-25T19:36:31.764511Z,-0.719971,-0.191467,0.271729
2018-10-25T19:36:31.962511Z,-0.255981,0.306946,-0.48193400000000003
2018-10-25T19:36:32.161511Z,-0.013916,-0.205078,-0.948975
2018-10-25T19:36:32.362511Z,0.771301,0.347107,-1.061157
2018-10-25T19:36:32.561511Z,1.269531,1.819336,1.118958
2018-10-25T19:36:32.761511Z,-0.519592,1.230591,0.183105
2018-10-25T19:36:32.963511Z,-1.287109,-1.153748,-0.37304699999999996
2018-10-25T19:36:33.168511Z,-1.0065309999999998,-1.089417,-1.374634
2018-10-25T19:36:33.367511Z,-0.156372,0.559509,-0.785217
2018-10-25T19:36:33.562511Z,-0.46032700000000004,2.238464,1.012146
2018-10-25T19:36:33.763511Z,0.332886,-1.464233,1.416809
2018-10-25T19:36:33.962511Z,0.11871300000000001,-2.11322,-0.787842
2018-10-25T19:36:34.160511Z,0.816589,-0.47345,0.084595
2018-10-25T19:36:34.419511Z,0.541138,-0.141479,0.815491
2018-10-25T19:36:34.562511Z,0.352234,-0.036255,-0.405334
2018-10-25T19:36:34.757511Z,-0.204529,-0.327515,0.373352
2018-10-25T19:36:35.167511Z,1.056702,0.10119600000000001,-0.799255
2018-10-25T19:36:35.370511Z,1.309875,0.451721,-0.410706
2018-10-25T19:36:35.561511Z,0.83844,1.270386,2.9978029999999998
2018-10-25T19:36:35.761511Z,1.470337,0.053162,-1.907288
2018-10-25T19:36:35.962511Z,0.751953,0.048401,0.9959110000000001
2018-10-25T19:36:36.162511Z,-1.3978270000000002,-0.26806599999999997,2.2127689999999998
2018-10-25T19:36:36.367511Z,-0.27831999999999996,-0.625183,-2.2995
2018-10-25T19:36:36.568511Z,-0.8306879999999999,0.859741,-0.45636000000000004
2018-10-25T19:36:36.764511Z,0.31738299999999997,2.346436,0.6296390000000001
2018-10-25T19:36:36.961511Z,0.005493,0.360779,-0.265991
2018-10-25T19:36:37.169511Z,0.085266,-1.284485,0.24768099999999998
2018-10-25T19:36:37.359511Z,-0.190613,0.26825,-0.545166
2018-10-25T19:36:37.561511Z,1.173767,0.952026,1.171753
2018-10-25T19:36:37.761511Z,0.8978879999999999,0.007568000000000001,1.037415
2018-10-25T19:36:37.963511Z,0.842041,-0.031188999999999998,-0.49975600000000003
2018-10-25T19:36:38.166511Z,0.201782,0.6872560000000001,1.575439
2018-10-25T19:36:38.360511Z,0.09277300000000001,0.563904,-0.544373
2018-10-25T19:36:38.561511Z,-0.441467,0.8692629999999999,-0.41217
2018-10-25T19:36:38.762511Z,-0.101074,0.46777299999999994,-1.0420530000000001
2018-10-25T19:36:38.961511Z,0.143311,0.203979,-1.2572020000000002
2018-10-25T19:36:39.160511Z,2.061157,2.182922,-0.358398
2018-10-25T19:36:39.360511Z,0.187927,1.782837,-0.117371
2018-10-25T19:36:39.567511Z,0.07281499999999999,1.31781,-0.565613
2018-10-25T19:36:39.764511Z,-0.40808099999999997,-0.020691,0.705322
2018-10-25T19:36:39.961511Z,-1.163818,-0.697998,-1.139709
2018-10-25T19:36:40.161511Z,-0.375671,0.6304930000000001,-0.389221
2018-10-25T19:36:40.362511Z,0.135376,1.0557860000000001,-0.041016000000000004
2018-10-25T19:36:40.561511Z,-0.264465,-0.47936999999999996,0.273621
2018-10-25T19:36:40.761511Z,0.671265,-0.004944,-1.0559690000000002
2018-10-25T19:36:40.963511Z,-0.567932,0.97345,0.182556
2018-10-25T19:36:41.160511Z,0.557739,1.095947,-1.0498049999999999
2018-10-25T19:36:41.363511Z,0.22888200000000003,0.44976800000000006,0.20764200000000002
2018-10-25T19:36:41.565511Z,0.395874,-0.425781,-0.9746090000000001
2018-10-25T19:36:41.837511Z,0.513367,0.47979700000000003,0.800415
2018-10-25T19:36:41.967511Z,-0.075989,-0.407227,-1.018311
2018-10-25T19:36:42.169511Z,-0.925903,0.516968,-0.429871
2018-10-25T19:36:42.361511Z,-0.24469000000000002,0.6828609999999999,-0.37255900000000003
2018-10-25T19:36:42.563511Z,0.482788,0.181702,-0.240173
2018-10-25T19:36:42.763511Z,1.612183,1.1053469999999999,-1.2105709999999998
2018-10-25T19:36:42.961511Z,0.08374,0.47198500000000004,-0.6698609999999999
2018-10-25T19:36:43.161511Z,1.8638919999999999,2.28479,1.792725
2018-10-25T19:36:43.361511Z,-0.350647,0.91333,-0.11438
2018-10-25T19:36:43.570511Z,-0.198181,-1.555725,-1.203247
2018-10-25T19:36:43.765511Z,-0.9453739999999999,-1.087402,-0.25756799999999996
2018-10-25T19:36:43.970511Z,-0.220154,-0.45373500000000005,0.07849099999999999
2018-10-25T19:36:44.165511Z,-0.033386,-0.112122,-0.700439
2018-10-25T19:36:44.385511Z,-0.080322,-0.116272,-0.052063
2018-10-25T19:36:44.559511Z,0.007690000000000001,0.21417199999999997,-0.823425
2018-10-25T19:36:44.763511Z,-0.135132,0.167297,-0.175293
2018-10-25T19:36:44.968511Z,-0.677795,0.302734,-0.8015140000000001
2018-10-25T19:36:45.160511Z,-0.28009,0.683044,0.169983
2018-10-25T19:36:45.360511Z,-0.164734,0.465271,-0.241882
2018-10-25T19:36:45.560511Z,-0.17804,0.594421,-0.331543
2018-10-25T19:36:45.762511Z,0.64093,-1.577515,0.417542
2018-10-25T19:36:45.960511Z,0.579407,-0.375732,-1.162598
2018-10-25T19:36:46.160511Z,-0.205078,-0.74353,-0.07428
2018-10-25T19:36:46.360511Z,0.441589,-0.026794,-0.282898
2018-10-25T19:36:46.576511Z,0.257874,-0.5119630000000001,0.050781
2018-10-25T19:36:46.760511Z,-0.7339479999999999,-1.403564,0.842651
2018-10-25T19:36:46.962511Z,-1.432617,-1.22821,-0.542725
2018-10-25T19:36:47.161511Z,-1.518921,-0.927673,-0.6129760000000001
2018-10-25T19:36:47.559511Z,-0.6976319999999999,-0.378296,-0.362671
2018-10-25T19:36:47.761511Z,-0.781921,0.624817,-0.220886
2018-10-25T19:36:47.960511Z,-1.457703,0.546509,-0.12341300000000001
2018-10-25T19:36:48.161511Z,-0.747925,0.08477799999999999,-0.147583
2018-10-25T19:36:48.375511Z,-0.366028,-1.576965,0.257141
