Datetime,accx,accy,accz
2018-10-15T20:05:01.032768Z,-0.056090999999999995,-0.132629,0.133911
2018-10-15T20:05:01.221768Z,-0.246521,0.045044,0.066711
2018-10-15T20:05:01.423768Z,-0.177307,0.09436,0.286438
2018-10-15T20:05:01.629768Z,-0.334351,0.190735,-0.087524
2018-10-15T20:05:01.819768Z,-0.014465,-0.100952,0.354065
2018-10-15T20:05:02.020768Z,-0.352356,-0.032715,0.054626
2018-10-15T20:05:02.222768Z,-0.260864,0.08142100000000001,0.063721
2018-10-15T20:05:02.422768Z,-0.144592,0.11486800000000001,0.17968800000000001
2018-10-15T20:05:02.620768Z,-0.14593499999999998,0.300476,-0.163025
2018-10-15T20:05:02.819768Z,0.09436,0.032837,0.075684
2018-10-15T20:05:03.022768Z,-0.251526,0.07757599999999999,0.072266
2018-10-15T20:05:03.219768Z,-0.29376199999999997,0.010620000000000001,0.065735
2018-10-15T20:05:03.420768Z,-0.050963999999999995,-0.033386,0.189026
2018-10-15T20:05:03.620768Z,-0.28179899999999997,0.041625999999999996,0.112854
2018-10-15T20:05:03.819768Z,-0.12493900000000001,0.105225,0.005737
2018-10-15T20:05:04.020768Z,-0.202881,0.038879000000000004,-0.047974
2018-10-15T20:05:04.220768Z,0.005065999999999999,0.21838400000000002,-0.010437
2018-10-15T20:05:04.420768Z,-0.143494,0.009276999999999999,0.215515
2018-10-15T20:05:04.619768Z,0.242432,-0.236023,0.28613299999999997
2018-10-15T20:05:04.819768Z,0.06366000000000001,0.175842,0.281921
2018-10-15T20:05:05.020768Z,-0.12701400000000002,0.025818,0.203796
2018-10-15T20:05:05.220768Z,-0.22705100000000003,0.15918,0.046997000000000004
2018-10-15T20:05:05.422768Z,-0.096191,-0.058716,0.392273
2018-10-15T20:05:05.620768Z,-0.060486,-0.13159200000000001,0.527832
2018-10-15T20:05:05.821768Z,0.289978,0.090942,0.43792700000000007
2018-10-15T20:05:06.020768Z,0.182556,-0.172546,0.289246
2018-10-15T20:05:06.219768Z,-0.350891,0.13030999999999998,0.174316
2018-10-15T20:05:06.429768Z,-0.123108,-0.023193000000000002,0.112
2018-10-15T20:25:53.931768Z,0.273071,-0.843567,1.02124
2018-10-15T20:25:54.130768Z,1.975098,-1.030273,-0.338318
2018-10-15T20:25:54.330768Z,0.004944,-0.050842,-0.413879
2018-10-15T20:25:54.532768Z,-0.10076900000000001,-0.036194,-0.45355200000000007
2018-10-15T20:25:54.812768Z,-0.071655,0.0,-0.340271
2018-10-15T20:25:54.938768Z,-0.10235599999999999,0.21417199999999997,-0.60968
2018-10-15T20:25:55.134768Z,0.049744,-0.003052,-0.468262
2018-10-15T20:25:55.351768Z,0.21234099999999997,-0.5849,-0.235474
2018-10-15T20:25:55.574768Z,0.28112800000000004,0.174011,-0.037537
2018-10-15T20:25:55.765768Z,0.11792000000000001,0.390869,-0.5780029999999999
2018-10-15T20:25:55.979768Z,0.027405000000000002,0.06274400000000001,-0.542664
2018-10-15T20:25:56.207768Z,-0.084351,0.166138,-0.42627
2018-10-15T20:25:56.365768Z,-0.080627,0.107422,-0.42218
2018-10-15T20:25:56.867768Z,0.051758000000000005,0.12396199999999999,-0.42108199999999996
2018-10-15T20:25:56.875768Z,0.144592,-0.021912,-0.458557
2018-10-15T20:25:56.934768Z,0.213623,-0.257446,-0.272522
2018-10-15T20:25:57.130768Z,0.643738,-0.207275,-0.8891600000000001
2018-10-15T20:25:57.330768Z,0.619751,-0.650513,-0.498047
2018-10-15T20:25:57.531768Z,-0.519165,0.3526,-0.000916
2018-10-15T20:25:57.731768Z,-1.5303959999999999,0.684265,-0.018738
2018-10-15T20:25:57.931768Z,-1.67572,0.124878,-0.996826
2018-10-15T20:25:58.131768Z,-1.2535399999999999,-0.7285159999999999,-0.309265
2018-10-15T20:25:58.341768Z,-0.084717,1.1761469999999998,0.6831050000000001
2018-10-15T20:25:58.541768Z,0.230469,1.670532,-0.6035159999999999
2018-10-15T20:25:58.751768Z,-0.33007800000000004,0.30603,-1.082703
2018-10-15T20:25:58.951768Z,-1.107544,0.14440899999999998,-1.245544
2018-10-15T20:25:59.151768Z,-1.076965,0.797913,-0.563171
2018-10-15T20:25:59.351768Z,-0.26367199999999996,1.0690309999999998,-0.482117
2018-10-15T20:25:59.550768Z,-0.674561,0.849548,-0.174377
2018-10-15T20:25:59.755768Z,0.18591300000000002,0.079712,-0.362183
2018-10-15T20:25:59.950768Z,0.688599,-0.388855,-0.706604
2018-10-15T20:26:00.151768Z,0.134338,-0.198181,-0.125549
2018-10-15T20:26:00.355768Z,-0.522949,0.787537,-0.600952
2018-10-15T20:26:00.551768Z,-0.3573,0.7808229999999999,0.259888
2018-10-15T20:26:00.751768Z,-0.536987,0.567322,-0.400696
2018-10-15T20:26:00.951768Z,-0.049805,0.588684,-0.671265
2018-10-15T20:26:01.151768Z,0.38311799999999996,0.322937,-0.06427000000000001
2018-10-15T20:26:01.351768Z,0.239563,0.240723,-0.51886
2018-10-15T20:26:01.552768Z,0.11218299999999999,-0.0036009999999999996,-0.336914
2018-10-15T20:26:01.762768Z,-0.34729,0.074585,-0.215759
2018-10-15T20:26:01.959768Z,-0.359009,0.310852,0.010559
2018-10-15T20:26:02.154768Z,-0.030151,0.141541,-1.038757
2018-10-15T20:26:02.354768Z,0.374023,0.26965300000000003,-0.48535200000000006
2018-10-15T20:26:02.554768Z,0.41748,0.102905,-0.169128
2018-10-15T20:26:02.759768Z,0.9199219999999999,0.273438,-0.5020140000000001
2018-10-15T20:26:02.954768Z,0.727173,0.240479,-0.83075
2018-10-15T20:26:03.151768Z,0.21862800000000002,0.382202,-0.24096700000000001
2018-10-15T20:26:03.352768Z,-0.128235,0.427246,-1.314819
2018-10-15T20:26:03.550768Z,-0.8007810000000001,0.034485,1.557922
2018-10-15T20:26:03.750768Z,-0.738708,-0.599792,-0.058411000000000005
2018-10-15T20:26:03.952768Z,-0.533508,-0.396606,-0.715942
2018-10-15T20:26:04.151768Z,0.457092,0.8103640000000001,-0.674927
2018-10-15T20:26:04.351768Z,1.026672,1.558594,-0.690796
2018-10-15T20:26:04.551768Z,0.625854,0.391113,-0.618896
2018-10-15T20:26:04.744768Z,0.518799,0.162048,-0.682678
2018-10-15T20:26:05.033768Z,-0.758179,0.548462,-0.8648680000000001
2018-10-15T20:26:05.152768Z,-1.15564,0.19531199999999999,-1.4216309999999999
2018-10-15T20:26:05.353768Z,0.173218,1.125732,0.408569
2018-10-15T20:26:05.550768Z,0.453125,2.104675,0.42877200000000004
2018-10-15T20:26:05.753768Z,0.210327,1.051392,-0.6994630000000001
2018-10-15T20:26:05.954768Z,0.161987,0.9555049999999999,-0.651672
2018-10-15T20:26:06.155768Z,-0.0051270000000000005,0.8529049999999999,-0.41863999999999996
2018-10-15T20:26:06.359768Z,0.095581,1.054871,-0.341248
2018-10-15T20:26:06.551768Z,-0.031982,0.585266,-0.196045
2018-10-15T20:26:06.754768Z,0.016907,0.324707,-0.452087
2018-10-15T20:26:07.104768Z,-0.016113,0.115479,-0.371521
2018-10-15T20:26:07.152768Z,-0.094055,0.10363800000000001,-0.7854
2018-10-15T20:26:07.350768Z,-0.24450700000000003,-0.084595,-0.628967
2018-10-15T20:26:07.550768Z,-0.225098,-0.02478,-0.620789
2018-10-15T20:26:07.750768Z,-0.493713,-0.21759,-0.616821
2018-10-15T20:26:07.952768Z,-0.228027,0.408936,0.11218299999999999
2018-10-15T20:26:08.152768Z,1.301941,0.914917,-0.479126
2018-10-15T20:26:08.374768Z,0.42401099999999997,-0.31243899999999997,-0.944702
2018-10-15T20:26:08.603768Z,0.07434099999999999,-1.2329709999999998,-0.41552700000000004
2018-10-15T20:26:08.768768Z,-0.216858,-0.334106,-0.271912
2018-10-15T20:26:08.967768Z,-0.823059,1.727905,0.833923
2018-10-15T20:26:09.163768Z,-0.28070100000000003,0.58606,-0.431458
2018-10-15T20:26:09.399768Z,-0.48736599999999997,-0.378296,-0.03241
2018-10-15T20:26:09.570768Z,0.651001,1.351868,-0.776917
2018-10-15T20:26:09.760768Z,0.11675999999999999,0.06689500000000001,-0.899719
2018-10-15T20:26:10.044768Z,0.067993,-0.899048,-0.9318850000000001
2018-10-15T20:26:10.171768Z,-0.346985,-0.041321,-0.291687
2018-10-15T20:26:10.377768Z,-0.143799,1.585693,0.018921
2018-10-15T20:26:10.570768Z,-0.262573,1.2192379999999998,0.190674
2018-10-15T20:26:10.804768Z,-0.366211,0.747375,-1.650146
2018-10-15T20:26:10.985768Z,-0.281494,0.33905,0.463074
2018-10-15T20:26:11.182768Z,-1.530884,0.676208,-0.036316
2018-10-15T20:26:11.498768Z,-0.413818,0.10180700000000001,-0.388245
2018-10-15T20:26:11.611768Z,-0.729126,-0.037659,-0.376404
2018-10-15T20:26:11.792768Z,-0.411438,0.195374,-0.614624
2018-10-15T20:26:11.992768Z,-0.795654,0.144348,-0.14624
2018-10-15T20:26:12.218768Z,-0.584229,0.35168499999999997,-0.32043499999999997
2018-10-15T20:26:12.400768Z,-0.14325,-0.028931000000000002,-0.461487
2018-10-15T20:26:12.600768Z,-0.41363500000000003,0.14819300000000002,-0.606934
2018-10-15T20:26:12.817768Z,0.17511,0.102905,-1.3764040000000002
2018-10-15T20:26:13.017768Z,-1.114502,-0.14093,-1.132996
2018-10-15T20:26:13.224768Z,-2.047729,-0.5488890000000001,-0.586792
2018-10-15T20:26:13.411768Z,-1.11261,0.199951,-0.705994
2018-10-15T20:26:13.615768Z,-0.8831180000000001,-1.426331,0.22845500000000002
2018-10-15T20:26:13.825768Z,-1.248901,2.334473,-1.5660399999999999
2018-10-15T20:26:14.011768Z,-1.5424799999999999,1.671448,0.075928
2018-10-15T20:26:14.214768Z,0.528992,0.814148,-1.44696
2018-10-15T20:26:14.414768Z,-0.73468,1.513306,-0.357178
2018-10-15T20:26:14.614768Z,-0.761108,1.07605,-0.593689
2018-10-15T20:26:14.812768Z,-0.588806,1.077209,0.030151
2018-10-15T20:26:15.011768Z,-0.286499,0.75531,-0.53894
2018-10-15T20:26:15.212768Z,-0.60083,0.660583,0.333923
2018-10-15T20:26:15.414768Z,-1.196228,0.622803,-0.59375
2018-10-15T20:26:15.615768Z,-2.475037,-0.333923,0.156006
2018-10-15T20:26:15.813768Z,0.912781,-2.725037,0.7089840000000001
2018-10-15T20:26:16.010768Z,0.983398,-1.6455080000000002,0.348267
2018-10-15T20:26:16.211768Z,-0.992554,0.49871800000000005,0.161377
2018-10-15T20:26:16.431768Z,-1.7403560000000002,1.874084,0.9923709999999999
2018-10-15T20:26:16.614768Z,1.568176,1.027344,-1.0599370000000001
2018-10-15T20:26:16.814768Z,-0.143433,1.187134,0.06488
2018-10-15T20:26:17.013768Z,-0.07757599999999999,0.8353879999999999,-0.39032
2018-10-15T20:26:17.213768Z,-0.058472,0.7794800000000001,-0.885742
2018-10-15T20:26:17.415768Z,-1.8425900000000002,1.560608,-0.569275
2018-10-15T20:26:17.615768Z,-0.728455,0.461182,-1.57251
2018-10-15T20:26:17.818768Z,-0.3125,-0.421997,0.786072
2018-10-15T20:26:18.013768Z,-0.5627439999999999,0.06854199999999999,1.4692379999999998
2018-10-15T20:26:18.212768Z,-0.588562,0.87323,-0.316956
2018-10-15T20:26:18.413768Z,-0.5448,0.648987,0.055969000000000005
2018-10-15T20:26:18.811768Z,-0.833801,0.583374,-0.23974600000000001
2018-10-15T20:26:19.013768Z,-0.726074,0.682678,-0.859375
2018-10-15T20:26:19.214768Z,0.031372000000000004,0.34259,-0.808289
2018-10-15T20:26:19.413768Z,1.3903809999999999,0.48413100000000003,-1.16095
2018-10-15T20:26:19.613768Z,-0.284058,0.822449,-1.6777950000000001
2018-10-15T20:26:19.813768Z,-1.476685,1.6039430000000001,0.071716
2018-10-15T20:26:20.013768Z,-0.532227,1.123413,0.8668819999999999
2018-10-15T20:26:20.214768Z,0.166931,-0.36883499999999997,0.347717
2018-10-15T20:26:20.424768Z,-0.66333,-0.195801,-0.218079
2018-10-15T20:26:20.614768Z,-0.735474,1.1011959999999998,-0.44061300000000003
2018-10-15T20:26:20.815768Z,-0.392029,1.44165,-0.275879
2018-10-15T20:26:21.037768Z,0.294617,-0.706055,-0.7615970000000001
2018-10-15T20:26:21.214768Z,-0.124695,0.655884,-1.8887330000000002
2018-10-15T20:26:21.420768Z,-1.137207,0.729797,0.092285
2018-10-15T20:26:21.624768Z,-1.6632689999999999,-1.506226,3.443542
2018-10-15T20:26:21.815768Z,-0.940796,-0.35498,-1.1616819999999999
2018-10-15T20:26:22.017768Z,-0.7773439999999999,0.7478640000000001,-0.089722
2018-10-15T20:26:22.214768Z,-0.580383,-0.271729,1.318298
2018-10-15T20:26:22.413768Z,-0.237244,0.010376,-2.1217040000000003
2018-10-15T20:26:22.619768Z,-0.878174,0.423523,-0.358765
2018-10-15T20:26:22.820768Z,-1.8975830000000002,-1.162354,1.6386720000000001
2018-10-15T20:26:23.015768Z,-1.540649,-0.181519,-1.998535
2018-10-15T20:26:23.216768Z,-1.178345,0.309998,0.022338999999999998
2018-10-15T20:26:23.415768Z,-1.557129,-0.74939,1.5183719999999998
2018-10-15T20:26:23.618768Z,-2.357483,-0.192444,-0.251465
2018-10-15T20:26:23.815768Z,-0.551331,0.041443,-0.851807
2018-10-15T20:26:24.014768Z,-1.5354,0.730957,-0.618286
2018-10-15T20:26:24.214768Z,-1.7725220000000002,1.538513,-0.969666
2018-10-15T20:26:24.413768Z,-1.068726,1.413757,0.10833699999999999
2018-10-15T20:26:24.616768Z,-0.337341,1.127014,0.478088
2018-10-15T20:26:24.822768Z,0.861145,-1.2090450000000001,1.8131099999999998
2018-10-15T20:26:25.038768Z,-0.689697,-0.040649,0.8276979999999999
2018-10-15T20:26:25.219768Z,0.41101099999999996,0.321411,-0.636841
2018-10-15T20:26:25.416768Z,0.066467,-0.9783940000000001,-0.28112800000000004
2018-10-15T20:26:25.640768Z,-0.10363800000000001,-0.5562739999999999,1.337402
2018-10-15T20:26:25.821768Z,-0.590698,-0.108276,-0.048523000000000004
2018-10-15T20:26:26.014768Z,0.132446,-1.095947,0.47467
2018-10-15T20:26:26.234768Z,0.228577,-0.161926,-0.034302
2018-10-15T20:26:26.414768Z,-0.343384,0.12951700000000002,-0.315308
2018-10-15T20:26:26.615768Z,0.452087,0.603699,0.137939
2018-10-15T20:26:26.814768Z,0.368958,0.594238,0.078064
2018-10-15T20:26:27.014768Z,0.334045,1.010315,-0.5622560000000001
2018-10-15T20:26:27.213768Z,0.46228,0.5346069999999999,-0.19989
2018-10-15T20:26:27.414768Z,0.246216,-0.600952,-0.231079
2018-10-15T20:26:27.614768Z,-0.24591100000000002,-0.922424,0.051025
2018-10-15T20:26:27.818768Z,-0.2323,-0.054443,-0.396973
2018-10-15T20:26:28.021768Z,0.018005,0.8427120000000001,-0.48492399999999997
2018-10-15T20:26:28.214768Z,0.741211,0.717896,-0.241333
2018-10-15T20:26:28.414768Z,1.051575,-0.5448,-0.305542
2018-10-15T20:26:28.614768Z,-0.20843499999999998,-0.10516400000000001,-0.22100799999999998
2018-10-15T20:26:28.814768Z,0.28009,0.433105,0.33215300000000003
2018-10-15T20:26:29.005768Z,-0.036864999999999995,-1.19574,1.7601930000000001
2018-10-15T20:26:29.227768Z,-0.145081,-1.6542970000000001,1.09491
2018-10-15T20:26:29.407768Z,-0.074646,-0.8704219999999999,1.383057
2018-10-15T20:26:29.621768Z,-0.342407,-0.240479,0.21423299999999998
2018-10-15T20:26:29.814768Z,-0.32959,-0.24353000000000002,-0.204346
2018-10-15T20:26:30.023768Z,-0.381042,-0.232422,-0.184387
2018-10-15T20:26:30.215768Z,-0.49957299999999993,-0.423828,-0.276489
2018-10-15T20:26:30.413768Z,-0.760376,0.190735,0.370789
2018-10-15T20:26:30.613768Z,-0.783203,0.269348,-0.139954
2018-10-15T20:26:30.814768Z,-0.18988,-0.483337,1.500916
2018-10-15T20:26:31.021768Z,0.622803,-0.200439,-0.15856900000000002
2018-10-15T20:26:31.220768Z,0.268677,0.263123,-0.074463
2018-10-15T20:26:31.413768Z,-0.050232,0.103394,-0.326599
2018-10-15T20:26:31.614768Z,-0.31543000000000004,-1.570496,-0.348206
2018-10-15T20:26:31.815768Z,-0.259033,-0.457581,-0.792175
2018-10-15T20:26:32.011768Z,-0.24102800000000002,-0.059204,0.20813
2018-10-15T20:26:32.215768Z,0.047791,-1.199402,0.227173
2018-10-15T20:26:32.415768Z,0.8980100000000001,-0.6598510000000001,0.13677999999999998
2018-10-15T20:26:32.817768Z,0.762207,-0.10430899999999999,0.678772
2018-10-15T20:26:33.016768Z,0.27563499999999996,-0.216614,-0.07867400000000001
2018-10-15T20:26:33.214768Z,0.066345,0.17724600000000001,-0.614319
2018-10-15T20:26:33.414768Z,0.152344,0.273499,-0.21887199999999998
2018-10-15T20:26:33.615768Z,-0.1203,0.159607,0.09399400000000001
2018-10-15T20:26:33.813768Z,0.294983,0.042725,-0.22650100000000004
2018-10-15T20:26:34.014768Z,-0.11645499999999999,0.204895,-0.078552
2018-10-15T20:26:34.213768Z,-0.129211,-0.0015869999999999999,0.471497
2018-10-15T20:26:34.417768Z,-0.031188999999999998,0.11456300000000001,0.039245999999999996
2018-10-15T20:26:34.615768Z,0.272827,0.11236600000000001,-1.026306
2018-10-15T20:26:34.814768Z,0.115906,0.157227,0.410095
2018-10-15T20:26:35.010768Z,0.12951700000000002,-0.160583,0.536499
2018-10-15T20:26:35.225768Z,0.12402300000000001,-0.006714,-0.748413
2018-10-15T20:26:35.414768Z,0.06579600000000001,0.07055700000000001,0.084351
2018-10-15T20:26:35.616768Z,-0.002747,0.041687,0.040833
2018-10-15T20:26:35.824768Z,0.201721,-0.14032,0.13208
2018-10-15T20:26:36.028768Z,0.171509,0.087402,-0.5957640000000001
2018-10-15T20:26:36.230768Z,0.23846399999999998,-0.125366,-0.098694
2018-10-15T20:26:36.429768Z,-0.135925,0.155884,-0.16802999999999998
2018-10-15T20:26:36.625768Z,0.552979,0.24005100000000001,-0.288208
2018-10-15T20:26:36.820768Z,-0.47540299999999996,0.28772,-0.384094
2018-10-15T20:26:37.023768Z,-0.36749299999999996,-0.14752200000000001,0.707092
2018-10-15T20:26:37.224768Z,-0.010193,-0.28527800000000003,0.07885700000000001
2018-10-15T20:26:37.431768Z,-0.24829099999999998,-0.202515,-0.144531
2018-10-15T20:26:37.636768Z,0.23083499999999998,-0.153137,0.5707399999999999
2018-10-15T20:26:37.823768Z,0.294739,0.16406199999999999,-0.49749799999999994
2018-10-15T20:26:38.041768Z,0.195374,-0.005188,-0.08667000000000001
2018-10-15T20:26:38.231768Z,0.041809,0.194946,-0.053833000000000006
2018-10-15T20:26:38.425768Z,0.33105500000000004,0.172974,-0.344421
2018-10-15T20:26:38.626768Z,1.437683,0.344177,-0.053223
2018-10-15T20:26:38.849768Z,0.454956,0.9118649999999999,-1.4155879999999998
2018-10-15T20:26:39.025768Z,1.579956,2.653198,1.265503
2018-10-15T20:26:39.226768Z,-0.511658,1.4402469999999998,-0.389709
2018-10-15T20:26:39.427768Z,-0.7562260000000001,-1.345825,-2.603088
2018-10-15T20:26:39.622768Z,-0.923767,-0.28424099999999997,-1.2994379999999999
2018-10-15T20:26:39.848768Z,0.182617,0.21783400000000003,0.316284
2018-10-15T20:26:40.021768Z,1.0277100000000001,-0.42230200000000007,1.907227
2018-10-15T20:26:40.222768Z,1.346985,0.41943400000000003,-1.7299799999999999
2018-10-15T20:26:40.434768Z,1.475403,0.231323,0.22399899999999998
2018-10-15T20:26:40.620768Z,1.284424,-0.768738,1.8856810000000002
2018-10-15T20:26:40.843768Z,1.453308,-0.091125,-0.360962
2018-10-15T20:26:41.044768Z,-0.056641,0.486084,0.246948
2018-10-15T20:26:41.254768Z,-0.043335000000000005,0.831909,-0.246216
2018-10-15T20:26:41.462768Z,0.653687,0.9716799999999999,-1.039185
2018-10-15T20:26:41.666768Z,1.3458860000000001,1.183044,-1.124573
2018-10-15T20:26:41.860768Z,1.16333,2.062134,-0.9741209999999999
2018-10-15T20:26:42.100768Z,0.836548,2.487793,-0.033202999999999996
2018-10-15T20:26:42.275768Z,0.089905,1.063416,-0.209106
2018-10-15T20:26:42.457768Z,-0.8034060000000001,-0.404907,-0.131226
2018-10-15T20:26:42.653768Z,-0.15240499999999998,0.5054930000000001,-0.273376
2018-10-15T20:26:42.879768Z,-0.425598,1.259888,-0.074768
2018-10-15T20:26:43.076768Z,0.7304689999999999,-0.07470700000000001,0.9611209999999999
2018-10-15T20:26:43.299768Z,0.151367,1.0420530000000001,-0.2771
2018-10-15T20:26:43.455768Z,0.338806,1.5420530000000001,-0.26306199999999996
2018-10-15T20:26:43.654768Z,-0.152527,0.498047,-0.33618200000000004
2018-10-15T20:26:43.854768Z,-0.48877,0.5308229999999999,0.074463
2018-10-15T20:26:44.055768Z,-0.229248,0.450928,-0.48382600000000003
2018-10-15T20:26:44.255768Z,0.280029,0.631714,0.228394
2018-10-15T20:26:44.458768Z,0.71991,0.636292,-2.317993
2018-10-15T20:26:44.652768Z,0.370422,0.6094970000000001,-0.004761
2018-10-15T20:26:44.858768Z,0.0979,1.471619,0.102539
2018-10-15T20:26:45.059768Z,-0.208862,-0.32568400000000003,1.626343
2018-10-15T20:26:45.254768Z,-0.503418,-0.156372,-1.336914
2018-10-15T20:26:45.454768Z,-0.269348,0.656433,0.39318800000000004
2018-10-15T20:26:45.652768Z,-1.2033690000000001,0.676941,-0.371521
2018-10-15T20:26:45.862768Z,-0.7141109999999999,-0.565125,-1.200928
2018-10-15T20:26:46.064768Z,-0.505554,-0.388,0.31549099999999997
2018-10-15T20:26:46.265768Z,-0.824097,0.239441,-1.462341
2018-10-15T20:26:46.458768Z,-0.9137569999999999,-0.779541,-0.6561279999999999
2018-10-15T20:26:46.651768Z,-0.825684,-0.831177,0.443359
2018-10-15T20:26:46.851768Z,-0.5661010000000001,-0.397888,0.425171
2018-10-15T20:26:47.052768Z,-0.9696040000000001,-0.053162,0.022278
2018-10-15T20:26:47.269768Z,-0.6060180000000001,0.30188000000000004,-0.9481809999999999
2018-10-15T20:26:47.452768Z,-0.41705299999999995,0.408447,-0.458313
2018-10-15T20:26:47.658768Z,-0.25824,0.453796,-0.523315
2018-10-15T20:26:47.896768Z,-0.566772,0.595337,-0.9691770000000001
2018-10-15T20:26:48.053768Z,-2.045715,1.029785,-4.1334230000000005
2018-10-15T20:26:48.270768Z,-0.520996,1.037292,-0.192749
2018-10-15T20:26:48.451768Z,-0.655273,1.417786,0.915283
2018-10-15T20:26:48.651768Z,0.873108,-1.4776610000000001,2.724609
2018-10-15T20:26:48.845768Z,-0.178833,-0.261719,-0.183533
2018-10-15T20:26:49.051768Z,-0.8973389999999999,0.6937260000000001,0.038696
2018-10-15T20:26:49.258768Z,-0.954651,-1.630798,3.449951
2018-10-15T20:26:49.452768Z,-1.679138,-1.244385,-0.07525599999999999
2018-10-15T20:26:49.650768Z,-1.605408,0.024291999999999998,-0.198364
2018-10-15T20:26:49.857768Z,-1.601501,0.222229,-2.290161
2018-10-15T20:26:50.065768Z,-1.527832,-0.246704,-0.356567
2018-10-15T20:26:50.259768Z,-1.354675,1.015259,-5.760376
2018-10-15T20:26:50.453768Z,-1.404175,0.23864699999999997,-0.8570559999999999
2018-10-15T20:26:50.656768Z,-1.866943,-0.9301149999999999,-0.293457
2018-10-15T20:26:50.927768Z,-0.956787,1.262268,-0.140076
2018-10-15T20:26:51.054768Z,-0.776123,0.76825,-0.396667
2018-10-15T20:26:51.253768Z,-0.721985,-0.645447,0.241821
2018-10-15T20:26:51.454768Z,-1.411743,0.805237,-0.7577510000000001
2018-10-15T20:26:51.655768Z,-1.655823,0.030823000000000003,-0.511108
2018-10-15T20:26:51.857768Z,-1.206238,0.023254,0.464661
2018-10-15T20:26:52.053768Z,-1.309082,0.837219,-0.21557600000000002
2018-10-15T20:26:52.252768Z,-1.019775,0.211304,1.730225
2018-10-15T20:26:52.457768Z,-0.26159699999999997,-0.044556,-1.6746830000000001
2018-10-15T20:26:52.656768Z,-0.257263,0.128418,-0.47857700000000003
2018-10-15T20:26:52.853768Z,-0.118469,-1.61438,1.041931
2018-10-15T20:26:53.254768Z,-0.258484,-1.173157,0.275146
2018-10-15T20:26:53.453768Z,-0.591431,-0.8715209999999999,-1.403259
2018-10-15T20:26:53.650768Z,-0.291565,0.197937,-0.596252
2018-10-15T20:26:53.855768Z,0.12506099999999998,0.21215799999999999,-0.38659699999999997
2018-10-15T20:26:54.055768Z,-0.101074,0.579407,-0.8257450000000001
2018-10-15T20:26:54.262768Z,-0.499329,0.166626,0.9595950000000001
2018-10-15T20:26:54.456768Z,-0.331909,-0.8909299999999999,0.35742199999999996
2018-10-15T20:26:54.659768Z,0.026917,-0.406921,0.037231
2018-10-15T20:26:54.854768Z,-0.209412,-0.386963,0.068604
2018-10-15T20:26:55.055768Z,0.354797,-0.47753900000000005,0.415466
2018-10-15T20:26:55.254768Z,-0.002441,-0.127808,-0.201416
2018-10-15T20:26:55.453768Z,-0.347839,-0.002747,-0.444763
2018-10-15T20:26:55.654768Z,-0.16131600000000001,0.021973,0.007935
2018-10-15T20:26:55.850768Z,-0.253601,0.192688,-0.217896
2018-10-15T20:26:56.054768Z,-0.23199499999999998,0.137939,-0.061462
2018-10-15T20:26:56.255768Z,-0.11554,-0.031127999999999996,-0.029602
2018-10-15T20:26:56.453768Z,0.269043,-0.16314700000000001,-0.261658
2018-10-15T20:26:56.650768Z,0.9534299999999999,0.366516,-0.893799
2018-10-15T20:26:56.861768Z,0.227478,0.777039,0.50415
2018-10-15T20:26:57.063768Z,0.043091000000000004,1.464294,-0.134521
2018-10-15T20:26:57.263768Z,-0.034607,0.41131599999999996,-0.395203
2018-10-15T20:26:57.459768Z,0.17040999999999998,-0.993958,1.546753
2018-10-15T20:26:57.655768Z,0.282654,0.21600300000000003,0.063965
2018-10-15T20:26:57.863768Z,0.100342,0.16272,-0.8555299999999999
2018-10-15T20:26:58.053768Z,-0.533142,-0.7382810000000001,-0.9296260000000001
2018-10-15T20:26:58.253768Z,-0.7814939999999999,-0.255798,-0.235596
2018-10-15T20:26:58.455768Z,-0.524475,-0.11346400000000001,0.052428999999999996
2018-10-15T20:26:58.661768Z,-0.44519,0.10693399999999999,-0.377625
2018-10-15T20:26:58.856768Z,0.02887,-0.473022,-0.9072879999999999
2018-10-15T20:26:59.058768Z,-0.20959499999999998,-0.664062,1.1616819999999999
2018-10-15T20:26:59.256768Z,-0.187317,-0.358215,-0.13030999999999998
2018-10-15T20:26:59.454768Z,1.090149,-0.381958,-0.6304930000000001
2018-10-15T20:26:59.654768Z,-0.154419,-0.299133,-1.7244259999999998
2018-10-15T20:26:59.854768Z,-0.725586,0.253418,-0.21929899999999997
2018-10-15T20:27:00.050768Z,-1.012634,0.166138,-0.742554
2018-10-15T20:27:00.254768Z,-1.775879,0.790039,-0.890869
2018-10-15T20:27:00.493768Z,-0.19860799999999998,-0.803284,3.172791
2018-10-15T20:27:00.660768Z,-0.113159,0.337646,-2.232605
2018-10-15T20:27:00.860768Z,-0.01825,0.18066400000000002,-0.464722
2018-10-15T20:27:01.061768Z,-0.503235,-0.085327,0.404175
2018-10-15T20:27:01.256768Z,-0.5974119999999999,-1.390198,-1.105225
2018-10-15T20:27:01.454768Z,-0.315002,-0.522705,-0.0023190000000000003
2018-10-15T20:27:01.654768Z,-0.235168,-1.064392,0.940125
2018-10-15T20:27:01.854768Z,0.27301,-0.596558,1.220032
2018-10-15T20:27:02.062768Z,0.21844499999999997,0.164673,-0.16351300000000002
2018-10-15T20:27:02.256768Z,-0.084961,0.715515,-0.10430899999999999
2018-10-15T20:27:02.456768Z,0.513245,0.102112,1.423096
2018-10-15T20:27:02.645768Z,0.5588989999999999,-1.158752,0.32757600000000003
2018-10-15T20:27:02.861768Z,0.356873,-1.371887,0.488403
2018-10-15T20:27:03.054768Z,-0.848877,0.46106,-0.245056
2018-10-15T20:27:03.253768Z,-0.11969,0.783569,-0.44244399999999995
2018-10-15T20:27:03.453768Z,0.031006,0.08154299999999999,0.033569
2018-10-15T20:27:03.656768Z,0.731323,-0.033447000000000005,0.547852
2018-10-15T20:27:03.880768Z,1.152039,0.491638,-0.018677000000000003
2018-10-15T20:27:04.060768Z,0.8341059999999999,0.86554,0.343567
2018-10-15T20:27:04.260768Z,0.599792,-1.35321,-1.423157
2018-10-15T20:27:04.460768Z,0.675049,-0.347107,0.46185299999999996
2018-10-15T20:27:04.656768Z,0.11718800000000001,-0.423096,-0.184082
2018-10-15T20:27:04.855768Z,0.21704099999999998,0.6471560000000001,0.07074
2018-10-15T20:27:05.054768Z,0.880127,-0.8179930000000001,0.498474
2018-10-15T20:27:05.255768Z,1.812927,-0.052185,0.749695
2018-10-15T20:27:05.455768Z,1.087524,-0.012024,0.42401099999999997
2018-10-15T20:27:05.656768Z,0.8129270000000001,1.145569,-0.811523
2018-10-15T20:27:05.862768Z,0.673706,0.919006,-0.979492
2018-10-15T20:27:06.061768Z,1.1401370000000002,0.648682,0.020263999999999997
2018-10-15T20:27:06.453768Z,0.710083,0.387024,-0.2323
2018-10-15T20:27:06.655768Z,0.721741,0.535095,-0.790894
2018-10-15T20:27:06.853768Z,0.9779049999999999,0.85144,-0.378052
2018-10-15T20:27:07.053768Z,0.6950069999999999,0.9579469999999999,-0.205994
2018-10-15T20:27:07.254768Z,0.466919,0.663513,0.45001199999999997
2018-10-15T20:27:07.451768Z,0.486023,-0.028992,0.9371950000000001
2018-10-15T20:27:07.653768Z,-0.702087,-0.87561,-1.080322
2018-10-15T20:27:07.854768Z,-0.220581,-0.336121,-0.6636350000000001
2018-10-15T20:27:08.053768Z,-0.416443,0.573242,0.399841
2018-10-15T20:27:08.268768Z,0.607971,-1.186584,-1.9421389999999998
2018-10-15T20:27:08.460768Z,0.653503,-0.065552,-1.355225
2018-10-15T20:27:08.659768Z,0.705811,0.227661,0.09314
2018-10-15T20:27:08.864768Z,0.091919,-0.443237,0.586304
2018-10-15T20:27:09.054768Z,-0.472839,-0.832031,0.830139
2018-10-15T20:27:09.255768Z,0.08404500000000001,0.517151,0.94165
2018-10-15T20:27:09.467768Z,0.22772199999999998,0.21862800000000002,1.061584
2018-10-15T20:27:09.654768Z,1.148132,-0.22296100000000002,-3.657104
2018-10-15T20:27:09.853768Z,0.478271,0.612915,-0.240234
2018-10-15T20:27:10.054768Z,0.20733600000000002,0.510864,-0.8639530000000001
2018-10-15T20:27:10.254768Z,0.308838,-1.6616819999999999,1.486816
2018-10-15T20:27:10.463768Z,-0.037415,-0.6912229999999999,-0.062622
2018-10-15T20:27:10.650768Z,0.296692,0.449829,-1.912109
2018-10-15T20:27:10.857768Z,1.0307620000000002,-0.13708499999999998,0.221375
2018-10-15T20:27:11.059768Z,0.697693,0.6784060000000001,-0.9050290000000001
2018-10-15T20:27:11.254768Z,0.376343,0.7307130000000001,0.284607
2018-10-15T20:27:11.454768Z,-0.072327,-1.833435,-0.144714
2018-10-15T20:27:11.656768Z,-1.396484,0.5432130000000001,0.0043950000000000005
2018-10-15T20:27:11.856768Z,-0.44928,-0.074768,0.517822
2018-10-15T20:27:12.054768Z,-0.473267,-1.259888,0.9814450000000001
2018-10-15T20:27:12.251768Z,-0.204346,-0.01178,-0.828674
2018-10-15T20:27:12.459768Z,-0.494507,-0.265625,-0.354736
2018-10-15T20:27:12.656768Z,-0.60907,-0.141541,-1.0177610000000001
2018-10-15T20:27:12.855768Z,-1.799438,-1.725281,-1.800903
2018-10-15T20:27:13.059768Z,-1.92041,-0.572083,0.310181
2018-10-15T20:27:13.260768Z,-1.059082,-0.09301799999999999,0.042908
2018-10-15T20:27:13.454768Z,-0.746033,-0.617188,0.312683
2018-10-15T20:27:13.665768Z,-1.052368,0.090271,0.967834
2018-10-15T20:27:13.868768Z,-0.9028930000000001,0.238342,-0.026611000000000003
2018-10-15T20:27:14.052768Z,-0.916626,0.100708,0.258789
2018-10-15T20:27:14.254768Z,-0.410095,-0.193359,-0.27813699999999997
2018-10-15T20:27:14.454768Z,-1.307983,0.9903559999999999,0.07019
2018-10-15T20:27:14.657768Z,-0.8190310000000001,0.452759,-0.24432399999999999
2018-10-15T20:27:14.854768Z,-0.3078,0.47906499999999996,-0.812866
2018-10-15T20:27:15.054768Z,0.11456300000000001,-0.22338899999999998,0.184937
2018-10-15T20:27:15.257768Z,0.499939,-0.355835,-1.027954
2018-10-15T20:27:15.454768Z,0.21655300000000002,0.8494870000000001,0.13104200000000002
2018-10-15T20:27:15.654768Z,-0.11456300000000001,1.192444,0.345947
2018-10-15T20:27:15.854768Z,-0.374268,-1.071655,0.516663
2018-10-15T20:27:16.051768Z,-0.9067379999999999,-0.378235,-1.28894
2018-10-15T20:27:16.254768Z,-0.5827640000000001,0.032104,1.124573
2018-10-15T20:27:16.453768Z,0.426392,-1.106018,-1.0557860000000001
2018-10-15T20:27:16.653768Z,0.158936,0.165588,-0.43218999999999996
2018-10-15T20:27:16.867768Z,-0.27374299999999996,-0.06274400000000001,1.071716
2018-10-15T20:27:17.054768Z,-1.169556,-1.6921389999999998,-0.752075
2018-10-15T20:27:17.244768Z,-0.9752200000000001,-0.40368699999999996,-0.525574
2018-10-15T20:27:17.453768Z,-0.741272,-0.325989,0.157532
2018-10-15T20:27:17.653768Z,-1.595642,-0.7928470000000001,1.836487
2018-10-15T20:27:17.854768Z,-1.326416,-0.8865360000000001,1.8123779999999998
2018-10-15T20:27:18.059768Z,-1.889038,-1.372986,-0.102539
2018-10-15T20:27:18.251768Z,-2.191406,-0.388306,0.323486
2018-10-15T20:27:18.455768Z,-1.329956,0.14978,-0.489807
2018-10-15T20:27:18.655768Z,-1.118835,0.27813699999999997,-0.7520140000000001
2018-10-15T20:27:18.855768Z,-1.445496,0.623352,-0.346558
2018-10-15T20:27:19.064768Z,-1.0403440000000002,0.599854,-0.021912
2018-10-15T20:27:19.262768Z,-0.290894,-0.9632569999999999,-1.016724
2018-10-15T20:27:19.455768Z,-1.222717,0.766296,0.12646500000000002
2018-10-15T20:27:19.655768Z,-0.605896,0.499634,0.094055
2018-10-15T20:27:19.855768Z,-0.984253,0.264893,-0.6096189999999999
2018-10-15T20:27:20.054768Z,-0.9833370000000001,0.49688699999999997,0.510193
2018-10-15T20:27:20.254768Z,-0.47186300000000003,0.6464840000000001,0.098022
2018-10-15T20:27:20.650768Z,-0.588623,0.213867,-2.783569
2018-10-15T20:27:20.853768Z,-0.491699,-0.512695,1.8934939999999998
2018-10-15T20:27:21.054768Z,-0.055786,-0.32409699999999997,1.318298
2018-10-15T20:27:21.255768Z,-0.25811799999999996,0.106445,0.159668
2018-10-15T20:27:21.461768Z,-0.20904499999999998,0.6521,0.515076
2018-10-15T20:27:21.665768Z,-0.45806899999999995,-0.6784060000000001,0.6663819999999999
2018-10-15T20:27:21.854768Z,-0.55481,-0.19531199999999999,-0.94165
2018-10-15T20:27:22.055768Z,-0.279358,0.058227999999999995,0.6522220000000001
2018-10-15T20:27:22.254768Z,0.198181,-0.7702640000000001,1.644409
2018-10-15T20:27:22.454768Z,0.5151979999999999,-0.567627,-1.243774
2018-10-15T20:27:22.668768Z,0.332642,-0.15625,-0.091248
2018-10-15T20:27:22.855768Z,-0.9242549999999999,-0.44610600000000006,1.575867
2018-10-15T20:27:23.056768Z,-0.231262,-0.9941409999999999,0.29199200000000003
2018-10-15T20:27:23.254768Z,-0.767456,-0.291565,0.444275
2018-10-15T20:27:23.453768Z,-0.08819600000000001,0.052612,-0.369873
2018-10-15T20:27:23.661768Z,0.34619099999999997,-1.47937,1.932373
2018-10-15T20:27:23.860768Z,0.469666,-1.174927,-0.257629
2018-10-15T20:27:24.058768Z,0.391785,-0.444641,-0.019104
2018-10-15T20:27:24.255768Z,0.808655,0.08618200000000001,-0.29870599999999997
2018-10-15T20:27:24.454768Z,0.429993,0.3703,0.026611000000000003
2018-10-15T20:27:24.655768Z,1.0745850000000001,0.18042,-0.042419
2018-10-15T20:27:24.860768Z,0.48748800000000003,0.675354,0.100037
2018-10-15T20:27:25.065768Z,0.426392,0.333252,0.100098
2018-10-15T20:27:25.270768Z,0.374268,-0.350891,1.493835
2018-10-15T20:27:25.463768Z,-0.5033569999999999,-0.807983,-0.41363500000000003
2018-10-15T20:27:25.654768Z,-0.046326,-0.004822,0.278748
2018-10-15T20:27:25.857768Z,-0.8924559999999999,0.16571,-0.023438
2018-10-15T20:27:26.055768Z,-0.41272,0.49902299999999994,0.688049
2018-10-15T20:27:26.256768Z,-0.410767,1.348083,0.011840999999999999
2018-10-15T20:27:26.454768Z,0.193359,0.287231,0.189575
2018-10-15T20:27:26.654768Z,0.9471440000000001,-0.310974,-3.183105
2018-10-15T20:27:26.853768Z,0.43811000000000005,0.090027,-0.08197
2018-10-15T20:27:27.054768Z,0.20282,0.7424930000000001,1.339417
2018-10-15T20:27:27.255768Z,-0.609192,-1.096069,1.087708
2018-10-15T20:27:27.455768Z,-0.460876,-0.130554,-1.6134030000000001
2018-10-15T20:27:27.676768Z,-0.800049,0.940308,0.281677
2018-10-15T20:27:27.853768Z,0.33374000000000004,-0.9769899999999999,2.621887
2018-10-15T20:27:28.053768Z,0.22405999999999998,0.064148,-0.000549
2018-10-15T20:27:28.254768Z,-0.200623,0.656738,0.423462
2018-10-15T20:27:28.454768Z,0.190857,-1.92395,1.7315060000000002
2018-10-15T20:27:28.655768Z,1.7052,-1.947815,2.218628
2018-10-15T20:27:28.854768Z,1.097351,-1.061951,0.9170530000000001
2018-10-15T20:27:29.053768Z,1.544067,-2.15918,1.682373
2018-10-15T20:27:29.326768Z,0.5004270000000001,-0.375793,-2.540527
2018-10-15T20:27:29.465768Z,1.164856,-0.4729,0.604919
2018-10-15T20:27:29.653768Z,0.001953,-0.046692000000000004,0.711975
2018-10-15T20:27:29.853768Z,0.353455,0.235779,0.39855999999999997
2018-10-15T20:27:30.056768Z,0.565247,0.485779,0.579346
2018-10-15T20:27:30.257768Z,0.920105,0.253357,0.112
2018-10-15T20:27:30.454768Z,0.65155,-0.030396,-0.28241
2018-10-15T20:27:30.653768Z,-0.307556,0.6828609999999999,-0.326538
2018-10-15T20:27:30.853768Z,0.568604,0.565552,0.384766
2018-10-15T20:27:31.053768Z,0.47949200000000003,0.579834,0.743225
2018-10-15T20:27:31.264768Z,1.20813,0.458862,-0.07696499999999999
2018-10-15T20:27:31.453768Z,0.774292,0.443359,0.520996
2018-10-15T20:27:31.656768Z,0.9580690000000001,0.981873,-0.06219500000000001
2018-10-15T20:27:31.866768Z,-0.0051270000000000005,0.982666,-0.480652
2018-10-15T20:27:32.057768Z,-0.204773,0.186462,-0.49676499999999996
2018-10-15T20:27:32.256768Z,-0.090637,-0.40075700000000003,-0.650879
2018-10-15T20:27:32.454768Z,0.302551,0.492554,0.278015
2018-10-15T20:27:32.654768Z,-0.051453,2.007141,0.20929
2018-10-15T20:27:32.846768Z,0.588989,0.127502,2.035828
2018-10-15T20:27:33.055768Z,0.6972659999999999,0.05304,1.301636
2018-10-15T20:27:33.255768Z,0.636658,0.5821529999999999,0.326965
2018-10-15T20:27:33.454768Z,0.802307,1.397278,0.10766600000000001
2018-10-15T20:27:33.657768Z,0.548828,0.48822,0.319824
2018-10-15T20:27:33.866768Z,-0.778931,0.121826,-0.282837
2018-10-15T20:27:34.054768Z,0.187866,0.275574,-0.8997799999999999
2018-10-15T20:27:34.256768Z,0.117493,1.329712,0.181946
2018-10-15T20:27:34.453768Z,1.462585,-0.125305,0.054015999999999995
2018-10-15T20:27:34.654768Z,1.0844120000000002,0.9454959999999999,-0.615417
2018-10-15T20:27:34.854768Z,0.8417969999999999,0.574036,0.42651400000000006
2018-10-15T20:27:35.054768Z,0.26965300000000003,-0.019531,-0.349792
2018-10-15T20:27:35.255768Z,0.246094,-0.082275,0.24706999999999998
2018-10-15T20:27:35.451768Z,-0.07470700000000001,0.37616,-0.266602
2018-10-15T20:27:35.657768Z,0.355652,-0.001221,0.764038
2018-10-15T20:27:35.866768Z,-0.0045780000000000005,0.772339,-0.180359
2018-10-15T20:27:36.060768Z,-0.38116500000000003,0.8794559999999999,-0.784424
2018-10-15T20:27:36.262768Z,-0.690918,1.954651,0.442993
2018-10-15T20:27:36.454768Z,-0.22296100000000002,1.00177,0.40387
2018-10-15T20:27:36.654768Z,0.563416,0.283875,-1.895447
2018-10-15T20:27:36.853768Z,1.05481,0.346558,0.08313
2018-10-15T20:27:37.054768Z,0.499329,1.141602,0.884216
2018-10-15T20:27:37.459768Z,0.23584000000000002,-0.559021,1.989929
2018-10-15T20:27:37.661768Z,0.631104,-0.592346,-0.361755
2018-10-15T20:27:37.859768Z,-0.8336790000000001,1.6002809999999998,-1.114746
2018-10-15T20:27:38.054768Z,0.070251,0.78656,0.971252
2018-10-15T20:27:38.255768Z,0.946106,-0.46368400000000004,0.658203
2018-10-15T20:27:38.454768Z,-0.11413599999999999,1.661621,0.879028
2018-10-15T20:27:38.654768Z,-0.335022,-1.4245,3.997864
2018-10-15T20:27:38.854768Z,0.484375,-0.33361799999999997,-1.75708
2018-10-15T20:27:39.054768Z,-0.173523,0.9639280000000001,0.21759
2018-10-15T20:27:39.251768Z,0.7143550000000001,-0.244812,0.358582
2018-10-15T20:27:39.465768Z,0.342896,0.38445999999999997,-2.796143
2018-10-15T20:27:39.676768Z,-0.89856,1.749573,1.310059
2018-10-15T20:27:39.856768Z,-0.09765599999999999,-0.608643,-5.36377
2018-10-15T20:27:40.056768Z,-1.226685,0.9481200000000001,-1.6976930000000001
2018-10-15T20:27:40.263768Z,1.321228,0.48113999999999996,1.105042
2018-10-15T20:27:40.453768Z,0.738586,-0.048889,-3.179138
2018-10-15T20:27:40.654768Z,-0.063416,0.492188,-0.746033
2018-10-15T20:27:40.854768Z,0.275269,1.081299,0.9272459999999999
2018-10-15T20:27:41.054768Z,-0.328735,-0.335388,-1.221436
2018-10-15T20:27:41.257768Z,-0.209106,-0.331177,-0.784119
2018-10-15T20:27:41.459768Z,-0.80542,0.572815,0.522766
2018-10-15T20:27:41.656768Z,0.23779299999999998,-0.23980700000000002,2.310669
2018-10-15T20:27:41.854768Z,0.236206,0.34057600000000005,2.7509770000000002
2018-10-15T20:27:42.057768Z,-0.060486,1.447998,0.247986
2018-10-15T20:27:42.255768Z,0.646667,1.324158,0.566711
2018-10-15T20:27:42.469768Z,-0.273926,-0.222046,1.032715
2018-10-15T20:27:42.653768Z,-0.46362299999999995,0.149902,-0.37439
2018-10-15T20:27:42.853768Z,0.067444,1.131165,0.10430899999999999
2018-10-15T20:27:43.052768Z,0.05651900000000001,0.844543,-1.2810059999999999
2018-10-15T20:27:43.268768Z,-0.05719,-0.106628,1.464172
2018-10-15T20:27:43.460768Z,0.290222,1.065125,-0.022888
2018-10-15T20:27:43.661768Z,-0.280029,0.107117,1.083801
2018-10-15T20:27:43.860768Z,-0.39172399999999996,-0.756714,-0.137329
2018-10-15T20:27:44.054768Z,-0.040405,-0.330872,0.145264
2018-10-15T20:27:44.254768Z,0.189026,0.389099,-0.061217999999999995
2018-10-15T20:27:44.453768Z,-0.075317,0.591858,-0.079041
2018-10-15T20:27:44.654768Z,0.145874,0.41723599999999994,-0.898315
2018-10-15T20:27:44.854768Z,0.51886,0.496399,-0.351074
2018-10-15T20:27:45.055768Z,0.25244099999999997,0.676331,-0.204346
2018-10-15T20:27:45.268768Z,-0.120056,0.072632,-0.27124000000000004
2018-10-15T20:27:45.460768Z,-0.501343,-0.020386,-0.10675
2018-10-15T20:27:45.663768Z,0.277893,0.059448,0.585938
2018-10-15T20:27:45.854768Z,0.13324,-0.096863,-1.052124
2018-10-15T20:27:46.054768Z,-0.889465,0.77771,-0.170532
2018-10-15T20:27:46.254768Z,0.945557,-0.047546,0.540161
2018-10-15T20:27:46.459768Z,0.7696529999999999,0.010986,-0.168579
2018-10-15T20:27:46.657768Z,0.42230200000000007,0.15826400000000002,0.6872560000000001
2018-10-15T20:27:46.856768Z,-0.250427,1.050232,-0.701294
2018-10-15T20:27:47.056768Z,-0.118896,0.848633,0.16351300000000002
2018-10-15T20:27:47.256768Z,0.175781,0.772766,-0.087036
2018-10-15T20:27:47.454768Z,0.8441770000000001,-0.480103,0.22296100000000002
2018-10-15T20:27:47.652768Z,1.442017,-0.132935,2.942749
2018-10-15T20:27:47.845768Z,1.169556,0.686157,0.476013
2018-10-15T20:27:48.063768Z,0.35681199999999996,0.683533,0.43603500000000006
2018-10-15T20:27:48.254768Z,0.44628900000000005,-0.483459,1.350647
2018-10-15T20:27:48.455768Z,0.101868,-0.9026489999999999,0.198975
2018-10-15T20:27:48.654768Z,-0.595276,0.161377,-0.082642
2018-10-15T20:27:48.854768Z,0.24542199999999997,1.003662,-0.318604
2018-10-15T20:27:49.056768Z,-0.174988,1.168579,0.049194
2018-10-15T20:27:49.255768Z,1.48584,0.115845,-1.028809
2018-10-15T20:27:49.454768Z,1.226807,0.578491,-2.160156
2018-10-15T20:27:49.654768Z,0.9359129999999999,1.009766,-0.013123
2018-10-15T20:27:49.859768Z,0.5065310000000001,1.2052,-0.993591
2018-10-15T20:27:50.060768Z,-0.478821,-0.47143599999999997,-0.47747799999999996
2018-10-15T20:27:50.256768Z,-0.374023,0.293335,-1.077148
2018-10-15T20:27:50.455768Z,-0.271179,0.719604,-1.006104
2018-10-15T20:27:50.655768Z,0.797913,0.9652709999999999,-0.368896
2018-10-15T20:27:50.853768Z,1.6754759999999997,-0.16430699999999998,-1.2357790000000002
2018-10-15T20:27:51.072768Z,1.418274,0.319763,-1.099609
2018-10-15T20:27:51.260768Z,1.230774,0.799133,-0.044006
2018-10-15T20:27:51.453768Z,-0.11480699999999999,0.028442000000000002,-0.499878
2018-10-15T20:27:51.858768Z,-0.144592,0.5672,-0.371765
2018-10-15T20:27:52.053768Z,-0.133545,0.934998,-0.596741
2018-10-15T20:27:52.254768Z,0.120178,1.487671,-0.540894
2018-10-15T20:27:52.454768Z,0.488647,0.9554440000000001,-0.516907
2018-10-15T20:27:52.654768Z,1.243591,1.6451419999999999,-0.7797850000000001
2018-10-15T20:27:52.995768Z,1.308838,1.9655759999999998,-0.6152340000000001
2018-10-15T20:27:53.051768Z,0.689697,2.314148,-1.547852
2018-10-15T20:27:53.251768Z,0.11566199999999999,0.19506800000000002,1.581421
2018-10-15T20:27:53.454768Z,-0.135071,0.39855999999999997,-1.107483
2018-10-15T20:27:53.669768Z,-0.43267799999999995,1.240784,1.654175
2018-10-15T20:27:53.854768Z,-0.170471,0.15631099999999998,3.3283690000000004
2018-10-15T20:27:54.054768Z,0.057250999999999996,0.155579,-1.0322879999999999
2018-10-15T20:27:54.254768Z,0.294617,0.423584,0.015015
2018-10-15T20:27:54.453768Z,1.056152,-0.11633299999999999,-0.8261719999999999
2018-10-15T20:27:54.656768Z,-2.1396479999999998,-0.168518,-2.15564
2018-10-15T20:27:54.858768Z,-1.072266,-0.365906,-1.97522
2018-10-15T20:27:55.053768Z,-0.722229,0.669434,-1.068604
2018-10-15T20:27:55.253768Z,0.236511,0.6350100000000001,0.220642
2018-10-15T20:27:55.454768Z,0.049194,-0.727112,1.698914
2018-10-15T20:27:55.654768Z,-0.398071,-0.449097,-0.14868199999999998
2018-10-15T20:27:55.854768Z,-0.33551,-0.404175,0.249939
2018-10-15T20:27:56.051768Z,-0.453064,-0.013428,-0.188782
2018-10-15T20:27:56.258768Z,-0.197693,-0.131287,0.7750239999999999
2018-10-15T20:27:56.457768Z,-0.31359899999999996,0.347351,0.32019000000000003
2018-10-15T20:27:56.660768Z,-0.469116,0.9511719999999999,-0.712769
2018-10-15T20:27:56.853768Z,0.36554000000000003,0.900085,-0.9370120000000001
2018-10-15T20:27:57.053768Z,0.28833000000000003,1.4067379999999998,-0.571655
2018-10-15T20:27:57.255768Z,-0.7150880000000001,0.991394,-0.9057620000000001
2018-10-15T20:27:57.463768Z,-0.893921,-0.77179,0.164734
2018-10-15T20:27:57.654768Z,-1.4368290000000001,1.441406,-0.525818
2018-10-15T20:27:57.853768Z,-0.5507810000000001,1.081909,-0.027710000000000002
2018-10-15T20:27:58.050768Z,-0.184326,-0.440796,-1.692749
2018-10-15T20:27:58.254768Z,-0.9898680000000001,-0.22906500000000002,-0.890442
2018-10-15T20:27:58.454768Z,0.733459,0.264893,0.7696529999999999
2018-10-15T20:27:58.653768Z,-2.169983,-1.170166,-2.615234
2018-10-15T20:27:58.853768Z,-3.1846919999999996,0.31750500000000004,-0.776428
2018-10-15T20:27:59.053768Z,-2.423462,-0.747742,0.55481
2018-10-15T20:27:59.292768Z,-1.262451,0.530029,0.037781
2018-10-15T20:27:59.457768Z,-1.0825200000000001,1.454468,1.6611330000000002
2018-10-15T20:27:59.671768Z,-1.8950200000000001,0.987671,-1.643066
2018-10-15T20:27:59.861768Z,-1.6602169999999998,1.612488,-1.243225
2018-10-15T20:28:00.055768Z,-0.956177,1.427063,-0.247498
2018-10-15T20:28:00.256768Z,-0.5846560000000001,0.136047,0.014771000000000001
2018-10-15T20:28:00.454768Z,0.484558,-0.789246,0.26861599999999997
2018-10-15T20:28:00.655768Z,-0.360168,1.08551,1.118164
2018-10-15T20:28:00.854768Z,-0.14288299999999998,0.716431,-0.010193
2018-10-15T20:28:01.054768Z,-1.043579,-1.68396,-0.21716300000000002
2018-10-15T20:28:01.270768Z,0.22332800000000003,-0.375916,-0.9722290000000001
2018-10-15T20:28:01.454768Z,-0.008484,0.080627,0.334167
2018-10-15T20:28:01.661768Z,0.22607399999999997,-1.474121,0.6388550000000001
2018-10-15T20:28:01.859768Z,0.978699,-0.528076,-0.581177
2018-10-15T20:28:02.054768Z,1.118164,-0.378723,0.600952
2018-10-15T20:28:02.254768Z,1.233032,1.150513,1.6384279999999998
2018-10-15T20:28:02.454768Z,-0.824829,0.48736599999999997,0.559998
2018-10-15T20:28:02.654768Z,-0.10199,-0.436279,-0.254578
2018-10-15T20:28:02.855768Z,-0.406982,0.741272,0.064209
2018-10-15T20:28:03.055768Z,-0.298279,1.6934810000000002,-0.9471440000000001
2018-10-15T20:28:03.255768Z,0.679932,0.43432600000000005,-0.254395
2018-10-15T20:28:03.446768Z,0.8583370000000001,-0.069275,1.058533
2018-10-15T20:28:03.652768Z,0.8954469999999999,1.621704,0.216125
2018-10-15T20:28:03.857768Z,0.420349,1.11676,0.235779
2018-10-15T20:28:04.060768Z,-0.129333,-1.663086,0.255432
2018-10-15T20:28:04.261768Z,-0.32519499999999996,-0.161743,-0.39563000000000004
2018-10-15T20:28:04.454768Z,-0.793091,0.744873,-0.352905
2018-10-15T20:28:04.654768Z,0.070129,0.734009,0.654846
2018-10-15T20:28:04.862768Z,0.5405270000000001,-0.17944300000000002,-0.14447000000000002
2018-10-15T20:28:05.059768Z,0.050598000000000004,0.30700700000000003,-1.208618
2018-10-15T20:28:05.254768Z,0.426392,1.422424,0.063721
2018-10-15T20:28:05.454768Z,-0.071289,-0.888489,2.242432
2018-10-15T20:28:05.666768Z,0.059021000000000004,-0.345154,0.068176
2018-10-15T20:28:05.860768Z,-0.40869099999999997,0.9779049999999999,-0.329468
2018-10-15T20:28:06.059768Z,0.451111,1.146484,0.682068
2018-10-15T20:28:06.255768Z,1.803711,-1.439087,0.46984899999999996
2018-10-15T20:28:06.466768Z,0.20575,0.498413,2.207825
2018-10-15T20:28:06.652768Z,-0.757568,1.009521,-0.721802
2018-10-15T20:28:07.060768Z,0.054626,-1.061523,-1.8391110000000002
2018-10-15T20:28:07.254768Z,-0.177307,-0.714294,-0.790833
2018-10-15T20:28:07.456768Z,0.22998000000000002,-0.178894,-0.486755
2018-10-15T20:28:07.655768Z,0.019409,-0.088867,0.395874
2018-10-15T20:28:07.853768Z,1.306091,-0.068298,-0.022765999999999998
2018-10-15T20:28:08.053768Z,0.980957,0.26318400000000003,0.480652
2018-10-15T20:28:08.253768Z,0.837341,0.736267,-0.39209
2018-10-15T20:28:08.455768Z,0.193176,1.169861,0.7051390000000001
2018-10-15T20:28:08.661768Z,0.6228640000000001,-0.120056,0.800964
2018-10-15T20:28:08.859768Z,-0.280396,-0.12329100000000001,0.11450199999999999
2018-10-15T20:28:09.059768Z,-0.768188,0.669678,0.34362800000000004
2018-10-15T20:28:09.253768Z,-0.7775880000000001,1.85022,0.381287
2018-10-15T20:28:09.455768Z,0.098999,-0.040649,1.213379
2018-10-15T20:28:09.668768Z,-0.052368,0.25195300000000004,-1.0185549999999999
2018-10-15T20:28:09.856768Z,-0.5036010000000001,0.69696,-0.050842
2018-10-15T20:28:10.057768Z,-1.1156620000000002,-0.740784,-0.565918
2018-10-15T20:28:10.261768Z,-2.507141,-1.954163,-0.284546
2018-10-15T20:28:10.453768Z,-1.050537,-0.605164,-0.080688
2018-10-15T20:28:10.651768Z,-0.165466,0.18548599999999998,0.13983199999999998
2018-10-15T20:28:10.852768Z,-0.46020500000000003,-0.560791,1.005798
2018-10-15T20:28:11.055768Z,-0.43463100000000005,-0.553589,0.095337
2018-10-15T20:28:11.254768Z,-0.601318,-0.295288,-0.251221
2018-10-15T20:28:11.454768Z,-0.555786,0.5193479999999999,0.203979
2018-10-15T20:28:11.653768Z,-0.123596,0.946106,-0.49762
2018-10-15T20:28:11.853768Z,0.068787,1.1414790000000001,-0.482971
2018-10-15T20:28:12.054768Z,-0.20233199999999998,0.765686,-0.711731
2018-10-15T20:28:12.254768Z,-1.264526,-0.654602,-1.489319
2018-10-15T20:28:12.453768Z,-0.778259,-0.10650599999999999,-0.9526370000000001
2018-10-15T20:28:12.665768Z,-0.840088,0.447571,-0.037964
2018-10-15T20:28:12.853768Z,-0.261658,0.144104,-0.563171
2018-10-15T20:28:13.054768Z,0.24731399999999998,-1.121582,-2.213684
2018-10-15T20:28:13.254768Z,-0.39502,-0.12219200000000001,-0.472656
2018-10-15T20:28:13.453768Z,-0.342346,0.517212,-0.148071
2018-10-15T20:28:13.651768Z,0.6228640000000001,0.049011,-0.640625
2018-10-15T20:28:13.851768Z,0.042358,-0.1604,-0.910217
2018-10-15T20:28:14.055768Z,-2.699097,-1.416992,0.007812
2018-10-15T20:28:14.255768Z,-0.397156,-0.118774,0.376221
2018-10-15T20:28:14.454768Z,-1.8638919999999999,-0.555847,0.981201
2018-10-15T20:28:14.655768Z,-3.255676,-0.60083,-0.536438
2018-10-15T20:28:14.853768Z,-2.822632,-0.627686,0.43096899999999994
2018-10-15T20:28:15.053768Z,-1.783813,-0.241089,-0.529602
2018-10-15T20:28:15.255768Z,-0.334839,-0.460876,0.7224119999999999
2018-10-15T20:28:15.453768Z,0.768616,0.541077,-1.5258180000000001
2018-10-15T20:28:15.659768Z,-0.03595,1.261475,-0.979614
2018-10-15T20:28:15.857768Z,-0.041625999999999996,1.2866819999999999,-0.344727
2018-10-15T20:28:16.059768Z,1.710388,-1.6408080000000003,0.49334700000000004
2018-10-15T20:28:16.253768Z,-1.7874759999999998,0.639954,0.456787
2018-10-15T20:28:16.454768Z,-1.7169189999999999,0.450867,0.225098
2018-10-15T20:28:16.655768Z,1.042175,-0.47613500000000003,-2.137512
2018-10-15T20:28:16.876768Z,1.186951,0.10345499999999999,-0.309448
2018-10-15T20:28:17.057768Z,-0.376465,0.744202,0.528687
2018-10-15T20:28:17.258768Z,0.94104,-1.164185,0.393982
2018-10-15T20:28:17.456768Z,-0.23645,-0.809937,1.058044
2018-10-15T20:28:17.654768Z,-1.2833860000000001,0.776428,0.13458299999999998
2018-10-15T20:28:17.854768Z,-0.257141,0.9486690000000001,0.48895299999999997
2018-10-15T20:28:18.054768Z,0.701599,-0.39117399999999997,-0.360535
2018-10-15T20:28:18.244768Z,-0.11969,0.655945,-2.5612790000000003
2018-10-15T20:28:18.453768Z,0.32782,1.752502,-0.326965
2018-10-15T20:28:18.653768Z,-0.310181,0.0045780000000000005,1.4865110000000001
2018-10-15T20:28:18.871768Z,-1.472656,-0.026672,-0.9539790000000001
2018-10-15T20:28:19.059768Z,0.1073,0.497253,1.044189
2018-10-15T20:28:19.260768Z,-0.40802,-0.7125239999999999,1.9688720000000002
2018-10-15T20:28:19.455768Z,-0.7655029999999999,0.277954,0.110229
2018-10-15T20:28:19.653768Z,0.8161010000000001,0.9162600000000001,-0.761536
2018-10-15T20:28:19.854768Z,-0.9504389999999999,-0.572571,-1.335022
2018-10-15T20:28:20.057768Z,-0.747314,0.08429,-0.462585
2018-10-15T20:28:20.259768Z,-0.609009,0.8734129999999999,0.8598020000000001
2018-10-15T20:28:20.452768Z,0.4198,0.037048000000000005,-1.7626950000000001
2018-10-15T20:28:20.656768Z,0.38147,-0.219543,-0.523071
2018-10-15T20:28:20.854768Z,-0.050537,0.565002,0.45752
2018-10-15T20:28:21.053768Z,0.001099,-0.506897,0.516296
2018-10-15T20:28:21.255768Z,-0.151428,-0.737915,-0.24346900000000002
2018-10-15T20:28:21.455768Z,-0.279907,0.070374,0.103699
2018-10-15T20:28:21.653768Z,-0.376038,0.47876,-0.286438
2018-10-15T20:28:21.853768Z,-0.089478,0.088684,-0.562317
2018-10-15T20:28:22.053768Z,-1.285339,-1.424683,-0.881958
2018-10-15T20:28:22.253768Z,1.591125,0.5825199999999999,-1.123718
2018-10-15T20:28:22.453768Z,-0.17865,0.11944600000000001,-0.881592
2018-10-15T20:28:22.654768Z,-0.748779,-0.374695,3.4317629999999997
2018-10-15T20:28:22.853768Z,-0.90979,0.41485600000000006,-1.229614
2018-10-15T20:28:23.053768Z,-0.18975799999999998,0.110596,0.195251
2018-10-15T20:28:23.254768Z,-0.013306,0.134521,-0.493896
2018-10-15T20:28:23.454768Z,0.401794,-0.126343,0.251038
2018-10-15T20:28:23.853768Z,-0.360657,0.476013,-0.013733
2018-10-15T20:28:24.065768Z,-0.15448,0.052979,-0.25616500000000003
2018-10-15T20:28:24.258768Z,-0.321228,0.239197,-0.400146
2018-10-15T20:28:24.455768Z,-1.986084,0.142456,0.458679
2018-10-15T20:28:24.655768Z,-2.7800290000000003,0.065063,-0.678589
2018-10-15T20:28:24.859768Z,0.140198,-1.268311,1.7932740000000003
2018-10-15T20:28:25.056768Z,-0.9558719999999999,-0.875122,-0.272095
2018-10-15T20:28:25.256768Z,-2.536194,-0.752197,0.484009
2018-10-15T20:28:25.453768Z,-2.196533,1.041138,-2.1340939999999997
2018-10-15T20:28:25.662768Z,-2.23822,1.205322,0.045288
2018-10-15T20:28:25.850768Z,-0.8464360000000001,-0.45105,1.30072
2018-10-15T20:28:26.062768Z,-0.294373,0.26379400000000003,-0.128357
2018-10-15T20:28:26.254768Z,-1.363281,0.807739,-0.25756799999999996
2018-10-15T20:28:26.454768Z,-1.907471,-0.5212399999999999,-0.993469
2018-10-15T20:28:26.654768Z,-1.226807,0.211731,-0.262207
2018-10-15T20:28:26.852768Z,-0.8216549999999999,0.199768,-0.462341
2018-10-15T20:28:27.055768Z,-1.09375,0.176331,0.026244999999999997
2018-10-15T20:28:27.266768Z,-1.256836,0.579773,-1.142578
2018-10-15T20:28:27.457768Z,-0.9490360000000001,0.509521,0.042480000000000004
2018-10-15T20:28:27.654768Z,-1.894409,0.8925780000000001,-1.256348
2018-10-15T20:28:27.854768Z,-1.277893,1.288269,-0.488342
2018-10-15T20:28:28.055768Z,-1.8504639999999999,1.009277,0.439087
2018-10-15T20:28:28.259768Z,-1.11969,0.7358399999999999,-0.24163800000000002
2018-10-15T20:28:28.454768Z,0.16278099999999998,0.917114,1.262451
2018-10-15T20:28:28.653768Z,1.326782,1.318848,-1.115479
2018-10-15T20:28:28.860768Z,0.6541140000000001,1.5908200000000001,-0.645386
2018-10-15T20:28:29.053768Z,0.678467,-0.307373,1.518494
2018-10-15T20:28:29.261768Z,1.005859,0.318176,-1.0296020000000001
2018-10-15T20:28:29.462768Z,1.589905,0.46581999999999996,-0.150024
2018-10-15T20:28:29.661768Z,1.982849,0.11834700000000001,-0.129578
2018-10-15T20:28:29.854768Z,0.37817399999999995,0.7536619999999999,-0.5817869999999999
2018-10-15T20:28:30.057768Z,-0.364502,0.760864,-0.342834
2018-10-15T20:28:30.254768Z,-0.559448,-0.18042,0.83429
2018-10-15T20:28:30.454768Z,-0.6306149999999999,1.1258540000000001,-0.050963999999999995
2018-10-15T20:28:30.656768Z,-0.076172,1.474487,-0.9135129999999999
2018-10-15T20:28:30.854768Z,-0.359802,1.057007,-0.627808
2018-10-15T20:28:31.065768Z,0.586182,-0.175293,0.657654
2018-10-15T20:28:31.255768Z,-0.147644,0.263123,-0.780884
2018-10-15T20:28:31.446768Z,0.388245,0.9790040000000001,0.118591
2018-10-15T20:28:31.654768Z,0.771667,0.963623,0.201355
2018-10-15T20:28:31.853768Z,0.221558,1.059814,0.259888
2018-10-15T20:28:32.053768Z,-0.277283,0.407043,0.11370799999999999
2018-10-15T20:28:32.254768Z,-0.544678,-0.088074,-0.07110599999999999
2018-10-15T20:28:32.453768Z,-0.375916,0.282776,0.21148699999999998
2018-10-15T20:28:32.663768Z,-0.524414,0.8799440000000001,0.166992
2018-10-15T20:28:32.853768Z,-0.07885700000000001,1.2527469999999998,-0.12658699999999998
2018-10-15T20:28:33.053768Z,0.009766,-0.17388900000000002,0.306091
2018-10-15T20:28:33.253768Z,-0.174438,-0.8705440000000001,2.1026
2018-10-15T20:28:33.454768Z,-0.14819300000000002,-0.47522,0.8571780000000001
2018-10-15T20:28:33.662768Z,0.30438200000000004,-0.54657,0.121216
2018-10-15T20:28:33.860768Z,0.100342,0.122253,-0.185974
2018-10-15T20:28:34.056768Z,-0.48126199999999997,0.12793,1.484436
2018-10-15T20:28:34.260768Z,-0.13830599999999998,0.256531,-0.92981
2018-10-15T20:28:34.455768Z,0.125366,0.094238,-0.90448
2018-10-15T20:28:34.654768Z,-0.12365699999999999,0.596436,0.35742199999999996
2018-10-15T20:28:34.854768Z,-0.359558,0.639526,-0.36444099999999996
2018-10-15T20:28:35.054768Z,-0.013123,0.796387,-0.349121
2018-10-15T20:28:35.253768Z,-0.131287,0.662048,-0.100464
2018-10-15T20:28:35.454768Z,-0.29180900000000004,-0.694153,1.601135
2018-10-15T20:28:35.660768Z,0.6818850000000001,-0.866943,0.003418
2018-10-15T20:28:35.860768Z,0.285156,-0.24353000000000002,-0.24780300000000002
2018-10-15T20:28:36.066768Z,0.26617399999999997,0.277344,0.23706100000000002
2018-10-15T20:28:36.454768Z,-0.673035,-1.0494379999999999,-0.488708
2018-10-15T20:28:36.655768Z,-0.8735350000000001,-0.686218,-0.992432
2018-10-15T20:28:36.854768Z,-0.538147,-0.427917,-0.600159
2018-10-15T20:28:37.057768Z,-0.126526,0.064087,-0.261169
2018-10-15T20:28:37.256768Z,-0.33758499999999997,-0.49883999999999995,-0.261047
2018-10-15T20:28:37.454768Z,-0.160156,-0.738708,-0.46746800000000005
2018-10-15T20:28:37.654768Z,0.218567,-0.169373,-0.41101099999999996
2018-10-15T20:28:37.858768Z,0.278015,-0.238708,-1.3116459999999999
2018-10-15T20:28:38.054768Z,-0.629456,-0.032104,-0.201965
2018-10-15T20:28:38.253768Z,-0.129822,-0.19812000000000002,0.106262
2018-10-15T20:28:38.452768Z,-0.287903,-0.001221,-0.284851
2018-10-15T20:28:38.656768Z,-0.11993399999999999,-0.208252,-0.19506800000000002
2018-10-15T20:28:38.892768Z,-0.07366900000000001,-0.09564199999999999,-0.25824
2018-10-15T20:28:39.051768Z,-0.019409,-0.028381,-0.43048100000000006
2018-10-15T20:28:39.252768Z,-0.272522,0.748901,0.501221
2018-10-15T20:28:39.451768Z,-0.07666,0.222473,0.187134
2018-10-15T20:28:39.654768Z,-1.030151,-0.365967,-1.375549
2018-10-15T20:28:39.853768Z,-1.587524,-0.55011,-1.152283
2018-10-15T20:28:40.054768Z,-0.745056,0.134155,-0.97821
2018-10-15T20:28:40.253768Z,-1.261292,0.433533,-0.7514649999999999
2018-10-15T20:28:40.453768Z,-0.8483280000000001,1.081238,-0.800415
2018-10-15T20:28:40.653768Z,-1.106079,0.812195,0.168152
2018-10-15T20:28:40.869768Z,-0.74231,-0.561829,-0.000488
2018-10-15T20:28:41.055768Z,-0.277161,0.0021969999999999997,-1.255615
2018-10-15T20:28:41.256768Z,-0.680298,0.9949950000000001,0.246155
2018-10-15T20:28:41.458768Z,-0.141296,0.96405,0.518738
2018-10-15T20:28:41.653768Z,-1.8539430000000001,-1.232605,-0.808716
2018-10-15T20:28:41.850768Z,-1.0942379999999998,-0.5093989999999999,-1.171509
2018-10-15T20:28:42.054768Z,-1.251343,0.35144000000000003,-0.13092
2018-10-15T20:28:42.258768Z,-0.49853500000000006,-1.581482,2.82019
2018-10-15T20:28:42.455768Z,-1.050293,-0.735596,0.41851800000000006
2018-10-15T20:28:42.661768Z,-0.31445300000000004,-0.639832,-0.315369
2018-10-15T20:28:42.853768Z,-0.23779299999999998,-0.8627319999999999,0.6391600000000001
2018-10-15T20:28:43.053768Z,-1.21405,-0.355957,-0.9274899999999999
2018-10-15T20:28:43.269768Z,-0.8783569999999999,-0.127747,-0.947205
2018-10-15T20:28:43.458768Z,-0.59967,-0.293274,-0.75293
2018-10-15T20:28:43.653768Z,-1.052551,-0.125122,-0.460449
2018-10-15T20:28:43.854768Z,-1.3979489999999999,0.472412,-0.117676
2018-10-15T20:28:44.054768Z,0.182312,0.181274,-0.342163
2018-10-15T20:28:44.255768Z,-0.270752,-0.32666,0.16503900000000002
2018-10-15T20:28:44.471768Z,-0.599854,-0.21344000000000002,-0.043762
2018-10-15T20:28:44.652768Z,-0.553894,-0.29699699999999996,0.46136499999999997
2018-10-15T20:28:44.854768Z,-0.504517,-0.174377,-0.653015
2018-10-15T20:28:45.155768Z,-0.991943,0.248352,-0.291687
2018-10-15T20:28:45.256768Z,-0.502197,0.03125,0.23016399999999998
2018-10-15T20:28:45.473768Z,-0.544495,0.07110599999999999,-0.11914100000000001
2018-10-15T20:28:45.659768Z,-0.350037,0.021301,0.099365
2018-10-15T20:28:45.853768Z,-0.48181199999999996,0.147949,-0.10736099999999998
2018-10-15T20:28:46.053768Z,-1.039795,0.637817,-0.11731
2018-10-15T20:28:46.257768Z,-0.557678,0.632935,-0.335388
2018-10-15T20:28:46.457768Z,-0.48150600000000005,0.9981690000000001,-0.046143
2018-10-15T20:28:46.654768Z,0.073303,-0.648987,-0.19043
2018-10-15T20:28:46.853768Z,0.013611000000000002,-0.9838870000000001,-0.913452
2018-10-15T20:28:47.060768Z,-0.511841,-0.065125,-0.07019
2018-10-15T20:28:47.255768Z,-0.099365,0.237244,-0.833313
2018-10-15T20:28:47.444768Z,0.001709,0.596313,0.17981
2018-10-15T20:28:47.661768Z,-1.7632450000000002,-0.941528,3.2429200000000002
2018-10-15T20:28:47.856768Z,-1.866882,-1.220093,0.490417
2018-10-15T20:28:48.055768Z,-2.355652,-0.507568,-0.7886350000000001
2018-10-15T20:28:48.266768Z,-0.9686889999999999,-0.41851800000000006,0.584717
2018-10-15T20:28:48.452768Z,-1.755066,-0.020081,0.847168
2018-10-15T20:28:48.654768Z,-0.6765140000000001,-0.26763899999999996,-0.827881
2018-10-15T20:28:48.859768Z,-0.46136499999999997,-0.09320099999999999,-0.761475
2018-10-15T20:28:49.054768Z,-1.109802,-0.275818,0.515686
2018-10-15T20:28:49.260768Z,-1.038757,0.25183099999999997,0.810547
2018-10-15T20:28:49.454768Z,-1.698364,0.437195,-0.826965
2018-10-15T20:28:49.653768Z,-1.288269,0.616089,-0.711182
2018-10-15T20:28:49.854768Z,-0.716492,0.20013399999999998,-0.400513
2018-10-15T20:28:50.054768Z,-0.503052,0.22210700000000003,-0.003357
2018-10-15T20:28:50.254768Z,-1.267883,0.523254,-0.314575
2018-10-15T20:28:50.454768Z,-0.989624,1.2933350000000001,-0.010620000000000001
2018-10-15T20:28:50.654768Z,-0.770691,1.150146,-0.027344
2018-10-15T20:28:50.860768Z,0.10907,-0.39245599999999997,0.343079
2018-10-15T20:28:51.051768Z,-1.251831,-0.247192,0.27575700000000003
2018-10-15T20:28:51.259768Z,-0.195496,0.158142,0.277161
2018-10-15T20:28:51.661768Z,-0.054932,0.522705,0.9320069999999999
2018-10-15T20:28:51.859768Z,-0.616943,-1.045105,-0.11529500000000001
2018-10-15T20:28:52.054768Z,-0.591492,-0.375671,-1.214294
2018-10-15T20:28:52.253768Z,-0.830627,0.6834720000000001,0.273254
2018-10-15T20:28:52.454768Z,-0.596008,-0.13183599999999998,-0.5119630000000001
2018-10-15T20:28:52.654768Z,-0.154602,-0.763306,-0.161682
2018-10-15T20:28:52.854768Z,0.127136,-0.344116,0.112549
2018-10-15T20:28:53.060768Z,0.699829,0.096558,0.743286
2018-10-15T20:28:53.260768Z,0.22418200000000002,-0.493958,0.6484989999999999
2018-10-15T20:28:53.461768Z,0.170776,-0.856506,1.029724
2018-10-15T20:28:53.659768Z,-0.464294,0.7922359999999999,-0.237854
2018-10-15T20:28:53.854768Z,-0.09552000000000001,0.945068,-0.244446
2018-10-15T20:28:54.054768Z,-0.037415,-0.853333,1.836182
2018-10-15T20:28:54.256768Z,-0.633545,0.31237800000000004,1.254883
2018-10-15T20:28:54.454768Z,-0.25488299999999997,-0.586731,-0.514832
2018-10-15T20:28:54.654768Z,-3.9846190000000004,-1.090881,-0.755127
2018-10-15T20:28:54.855768Z,-0.296448,-0.151001,1.33313
2018-10-15T20:28:55.054768Z,0.05499299999999999,-0.069763,0.012695
2018-10-15T20:28:55.261768Z,-1.106934,-0.827209,0.45568800000000004
2018-10-15T20:28:55.457768Z,0.46557600000000005,-1.453186,0.9680790000000001
2018-10-15T20:28:55.657768Z,-0.836548,-1.048645,2.1011349999999998
2018-10-15T20:28:55.854768Z,-2.23938,1.655334,0.773804
2018-10-15T20:28:56.055768Z,-1.7872919999999999,0.48303199999999996,-0.840088
2018-10-15T20:28:56.253768Z,-1.9131470000000002,1.0668950000000001,-0.22113000000000002
2018-10-15T20:28:56.454768Z,-1.63324,0.368774,-0.208679
2018-10-15T20:28:56.653768Z,-1.914062,0.30541999999999997,0.884094
2018-10-15T20:28:56.854768Z,-2.459839,0.45892299999999997,0.038757
2018-10-15T20:28:57.053768Z,-1.9364009999999998,0.49310299999999996,0.12243699999999999
2018-10-15T20:28:57.253768Z,-0.102905,0.358337,0.334167
2018-10-15T20:28:57.456768Z,-1.58374,0.192749,0.512451
2018-10-15T20:28:57.655768Z,-1.449768,0.044739,1.190369
2018-10-15T20:28:57.855768Z,-1.420715,0.352844,-0.558655
2018-10-15T20:28:58.053768Z,-1.047668,-0.021544999999999998,0.9349370000000001
2018-10-15T20:28:58.254768Z,-0.39056399999999997,0.122498,0.964966
2018-10-15T20:28:58.455768Z,-1.875305,0.939941,0.12341300000000001
2018-10-15T20:28:58.655768Z,-4.273926,2.27002,-0.7262569999999999
2018-10-15T20:28:58.855768Z,0.656311,-3.1071779999999998,2.34259
2018-10-15T20:28:59.054768Z,-2.174866,0.850525,-0.592102
2018-10-15T20:28:59.254768Z,-0.7087399999999999,1.077209,0.024902
2018-10-15T20:28:59.454768Z,-0.94165,1.658936,-0.523071
2018-10-15T20:28:59.653768Z,-1.525696,1.23938,-0.063354
2018-10-15T20:28:59.854768Z,-1.3604129999999999,1.25,-0.202209
2018-10-15T20:29:00.062768Z,-1.8706049999999999,0.9074709999999999,-2.951111
2018-10-15T20:29:00.250768Z,-1.491638,0.966614,-0.5119630000000001
2018-10-15T20:29:00.450768Z,-0.551819,0.799744,-0.34686300000000003
2018-10-15T20:29:00.653768Z,0.368225,0.7093510000000001,0.220825
2018-10-15T20:29:00.854768Z,-0.062561,1.183838,-1.128113
2018-10-15T20:29:01.054768Z,0.088013,1.8456419999999998,-0.41314700000000004
2018-10-15T20:29:01.253768Z,-1.439087,0.201477,1.554565
2018-10-15T20:29:01.465768Z,0.285339,0.327515,-1.6843869999999999
2018-10-15T20:29:01.655768Z,-0.30127,1.062195,-0.59729
2018-10-15T20:29:01.854768Z,-0.559998,0.224304,0.327087
2018-10-15T20:29:02.054768Z,-1.185669,-0.23278800000000002,-1.8951419999999999
2018-10-15T20:29:02.254768Z,-0.49865699999999996,0.530457,-0.5872189999999999
2018-10-15T20:29:02.454768Z,-2.3881229999999998,2.709961,1.7037349999999998
2018-10-15T20:29:02.653768Z,-0.061035,-0.7183229999999999,-2.7943729999999998
2018-10-15T20:29:02.853768Z,-0.307556,-1.429382,-2.373535
2018-10-15T20:29:03.044768Z,-2.479248,1.016418,1.9173580000000001
2018-10-15T20:29:03.253768Z,-0.151611,0.878784,1.8064580000000001
2018-10-15T20:29:03.454768Z,2.494324,0.775818,-2.927673
2018-10-15T20:29:03.660768Z,1.2098389999999999,0.076782,2.7307740000000003
2018-10-15T20:29:03.861768Z,-5.033691,2.0793459999999997,-0.366577
2018-10-15T20:29:04.054768Z,-2.7127689999999998,-0.518005,-0.876648
2018-10-15T20:29:04.256768Z,-0.564941,1.3812870000000002,3.833069
2018-10-15T20:29:04.454768Z,-0.23797600000000002,1.679138,-0.30304000000000003
2018-10-15T20:29:04.655768Z,0.26061999999999996,1.6256709999999999,-2.579224
2018-10-15T20:29:04.857768Z,-1.8248900000000001,-0.500732,-1.263123
2018-10-15T20:29:05.054768Z,-1.141235,1.788574,-3.215881
2018-10-15T20:29:05.253768Z,-0.14562999999999998,-0.714905,0.650208
2018-10-15T20:29:05.453768Z,-1.390015,-0.24115,-1.627686
2018-10-15T20:29:05.654768Z,-1.0439450000000001,0.011108,-1.107178
2018-10-15T20:29:05.854768Z,-1.356323,1.1254879999999998,-1.6644290000000002
2018-10-15T20:29:06.257768Z,-0.001709,0.802917,-0.8300780000000001
2018-10-15T20:29:06.455768Z,-0.551331,0.5715939999999999,1.7059939999999998
2018-10-15T20:29:06.664768Z,-0.812317,0.48339799999999994,-0.45965600000000006
2018-10-15T20:29:06.859768Z,-0.175049,0.817505,-0.674438
2018-10-15T20:29:07.054768Z,-0.12207,0.9042969999999999,-0.768677
2018-10-15T20:29:07.253768Z,-0.46630900000000003,0.320129,-3.034302
2018-10-15T20:29:07.454768Z,-1.086243,1.286316,-2.833679
2018-10-15T20:29:07.655768Z,-0.678711,1.816711,-0.5707399999999999
2018-10-15T20:29:07.863768Z,-0.720459,-0.985657,3.5934449999999996
2018-10-15T20:29:08.054768Z,-1.317444,0.8892209999999999,-1.734436
2018-10-15T20:29:08.253768Z,-0.510437,0.16375699999999999,-0.7462770000000001
2018-10-15T20:29:08.454768Z,-0.127563,0.861084,-1.2415770000000002
2018-10-15T20:29:08.656768Z,0.190613,-1.1450200000000001,2.383667
2018-10-15T20:29:08.857768Z,-0.284851,0.10461400000000001,-0.700806
2018-10-15T20:29:09.055768Z,-0.926575,0.194885,-0.48327600000000004
2018-10-15T20:29:09.264768Z,-1.2047729999999999,0.761169,-0.675293
2018-10-15T20:29:09.461768Z,0.247864,-0.8262940000000001,0.941406
2018-10-15T20:29:09.660768Z,-0.894287,0.049805,-1.039185
2018-10-15T20:29:09.860768Z,-1.0447389999999999,0.6987300000000001,-0.721252
2018-10-15T20:29:10.061768Z,-0.7792359999999999,1.250183,0.631042
2018-10-15T20:29:10.254768Z,0.039917,-1.9140009999999998,0.35693400000000003
2018-10-15T20:29:10.453768Z,-0.7733760000000001,-0.232239,-0.599182
2018-10-15T20:29:10.651768Z,-0.533203,0.218994,0.7601319999999999
2018-10-15T20:29:10.852768Z,-0.246521,-0.419128,0.64325
2018-10-15T20:29:11.055768Z,0.583679,-0.183228,-1.180542
2018-10-15T20:29:11.257768Z,-0.08313,0.832031,-0.511047
2018-10-15T20:29:11.454768Z,-0.420654,-0.16802999999999998,-0.03418
2018-10-15T20:29:11.656768Z,-0.45556599999999997,-1.252502,-1.357178
2018-10-15T20:29:11.854768Z,-0.17565899999999998,-0.47698999999999997,-0.408325
2018-10-15T20:29:12.061768Z,-0.158875,0.09729,0.39386
2018-10-15T20:29:12.263768Z,-0.6997680000000001,0.144836,-0.051819000000000004
2018-10-15T20:29:12.466768Z,-0.234802,-0.744873,0.298157
2018-10-15T20:29:12.663768Z,1.1572879999999999,-0.9266969999999999,0.9312739999999999
2018-10-15T20:29:12.855768Z,0.5820310000000001,0.899292,-0.012329000000000001
2018-10-15T20:29:13.054768Z,0.048279,0.8922120000000001,-0.010315000000000001
2018-10-15T20:29:13.254768Z,0.399292,0.879883,-0.028258999999999996
2018-10-15T20:29:13.453768Z,0.436584,0.662231,-0.23388699999999998
2018-10-15T20:29:13.654768Z,0.7597659999999999,0.9259639999999999,-0.709595
2018-10-15T20:29:13.854768Z,0.5512699999999999,1.197754,0.38574200000000003
2018-10-15T20:29:14.059768Z,-0.208313,0.011536,0.649414
2018-10-15T20:29:14.260768Z,-1.049377,-0.889526,0.198669
2018-10-15T20:29:14.465768Z,-0.431824,0.45996099999999995,-0.49279799999999996
2018-10-15T20:29:14.696768Z,-0.129639,0.794983,0.771362
2018-10-15T20:29:14.848768Z,1.082703,-0.967041,-2.9213259999999996
2018-10-15T20:29:15.060768Z,0.68866,-0.39355500000000004,-0.47583000000000003
2018-10-15T20:29:15.254768Z,-0.391907,0.545532,0.997192
2018-10-15T20:29:15.453768Z,0.255676,-0.747742,1.398193
2018-10-15T20:29:15.656768Z,-0.08367899999999999,0.05127,-1.357178
2018-10-15T20:29:15.856768Z,-0.407593,0.554199,-0.596619
2018-10-15T20:29:16.056768Z,-0.074646,0.38269000000000003,0.738586
2018-10-15T20:29:16.333768Z,0.606934,-0.12799100000000002,0.9110719999999999
2018-10-15T20:29:16.456768Z,0.532837,0.674561,-1.051941
2018-10-15T20:29:16.661768Z,0.23571799999999998,0.773071,0.113647
2018-10-15T20:29:16.860768Z,-0.555054,-0.8358760000000001,1.78302
2018-10-15T20:29:17.062768Z,-0.224854,-0.687683,-0.7609859999999999
2018-10-15T20:29:17.255768Z,-0.401062,0.504517,-0.520508
2018-10-15T20:29:17.459768Z,0.7867430000000001,-0.374695,0.143005
2018-10-15T20:29:17.649768Z,0.351196,-0.351074,-1.4837040000000001
2018-10-15T20:29:17.853768Z,0.416199,0.544678,0.861023
2018-10-15T20:29:18.053768Z,-0.830261,-0.7463380000000001,0.682617
2018-10-15T20:29:18.314768Z,-0.110596,-0.723572,-2.009827
2018-10-15T20:29:18.459768Z,-0.562561,0.601318,-0.19927999999999998
2018-10-15T20:29:18.657768Z,0.6507569999999999,-0.306702,-0.39355500000000004
2018-10-15T20:29:18.855768Z,0.045105,-0.439453,-0.054749
2018-10-15T20:29:19.262768Z,-0.159485,0.202942,0.838074
2018-10-15T20:29:19.452768Z,-0.109375,-0.07623300000000001,1.45105
2018-10-15T20:29:19.653768Z,-0.7064819999999999,-1.391785,-0.708557
2018-10-15T20:29:19.852768Z,-0.359375,-0.020263999999999997,-0.879639
2018-10-15T20:29:20.053768Z,-0.097412,0.363892,0.331482
2018-10-15T20:29:20.252768Z,0.11608900000000001,-0.758789,0.564575
2018-10-15T20:29:20.450768Z,0.317871,-0.93042,-1.157715
2018-10-15T20:29:20.657768Z,0.190979,0.193115,-0.47735600000000006
2018-10-15T20:29:20.853768Z,-0.42071499999999995,1.119202,0.9985350000000001
2018-10-15T20:29:21.053768Z,-0.091248,-1.590027,-1.3447879999999999
2018-10-15T20:29:21.261768Z,-0.134521,-1.0181879999999999,-0.918335
2018-10-15T20:29:21.454768Z,-0.030518,-0.875732,-0.6057739999999999
2018-10-15T20:29:21.654768Z,-0.152954,-1.283508,-0.830566
2018-10-15T20:29:21.856768Z,1.64093,-1.054749,-2.848389
2018-10-15T20:29:22.054768Z,-0.5646359999999999,0.5642699999999999,0.20751999999999998
2018-10-15T20:29:22.254768Z,0.06072999999999999,0.10437,-0.024231
2018-10-15T20:29:22.454768Z,-0.7421260000000001,0.814758,-1.551575
2018-10-15T20:29:22.654768Z,0.937683,0.02887,-0.486023
2018-10-15T20:29:22.855768Z,0.773254,-0.221252,-1.061768
2018-10-15T20:29:23.059768Z,0.470825,-0.077026,-0.329651
2018-10-15T20:29:23.253768Z,0.277954,-0.059387,-0.711121
2018-10-15T20:29:23.459768Z,-0.10082999999999999,0.043151999999999996,-0.506836
2018-10-15T20:29:23.664768Z,0.153809,-0.100098,-0.087524
2018-10-15T20:29:23.859768Z,-0.696533,0.587097,0.203796
2018-10-15T20:29:24.055768Z,-1.132874,0.678162,-0.431335
2018-10-15T20:29:24.253768Z,-0.533997,0.930176,0.263306
2018-10-15T20:29:24.453768Z,-0.373108,0.6953739999999999,-0.20739699999999997
2018-10-15T20:29:24.654768Z,1.168457,-0.23345900000000003,-1.849121
2018-10-15T20:29:24.854768Z,0.407715,0.308044,-1.309326
2018-10-15T20:29:25.054768Z,0.394348,0.140015,-0.122375
2018-10-15T20:29:25.254768Z,-0.06225599999999999,-1.372375,0.391052
2018-10-15T20:29:25.458768Z,-0.060974,-0.37182600000000005,-1.119263
2018-10-15T20:29:25.660768Z,-0.032288,-0.583496,-0.6526489999999999
2018-10-15T20:29:25.861768Z,0.224548,0.931335,1.0802
2018-10-15T20:29:26.052768Z,-0.104553,-1.19458,2.41095
2018-10-15T20:29:26.254768Z,-0.042358,0.196777,-0.405212
2018-10-15T20:29:26.454768Z,0.3927,0.799316,-1.007996
2018-10-15T20:29:26.654768Z,0.040405,-1.3116459999999999,0.8305049999999999
2018-10-15T20:29:26.864768Z,0.922058,-1.479492,-2.372864
2018-10-15T20:29:27.053768Z,-0.197144,-0.9829709999999999,0.375977
2018-10-15T20:29:27.253768Z,-0.302612,-0.097351,0.120117
2018-10-15T20:29:27.450768Z,0.32263200000000003,-0.300415,-0.41107200000000005
2018-10-15T20:29:27.667768Z,0.049744,0.014159999999999999,0.25506599999999996
2018-10-15T20:29:27.855768Z,0.14440899999999998,0.154602,0.029358
2018-10-15T20:29:28.063768Z,0.604553,-0.03717,-0.456604
2018-10-15T20:29:28.254768Z,1.496399,0.009155,1.351379
2018-10-15T20:29:28.457768Z,1.130554,1.5354,0.993042
2018-10-15T20:29:28.654768Z,1.2838129999999999,1.16333,0.544983
2018-10-15T20:29:28.845768Z,-0.791443,-1.12384,-1.118042
2018-10-15T20:29:29.054768Z,-0.44256599999999996,0.011840999999999999,-0.799683
2018-10-15T20:29:29.254768Z,-0.392151,1.059326,0.19104000000000002
2018-10-15T20:29:29.459768Z,0.851562,-0.247009,1.210999
2018-10-15T20:29:29.653768Z,-0.006531,0.529724,0.732727
2018-10-15T20:29:29.858768Z,0.248352,1.021606,0.446167
2018-10-15T20:29:30.061768Z,0.402649,-0.8837280000000001,0.665588
2018-10-15T20:29:30.261768Z,-1.404175,-1.292969,-0.818237
2018-10-15T20:29:30.454768Z,-1.068298,-0.339294,-0.333435
2018-10-15T20:29:30.654768Z,-0.707336,0.11926300000000001,1.913757
2018-10-15T20:29:30.854768Z,-0.9866940000000001,0.99585,0.656311
2018-10-15T20:29:31.054768Z,-0.47595200000000004,-0.008423,1.3920290000000002
2018-10-15T20:29:31.254768Z,0.25293000000000004,-0.9782709999999999,1.327026
2018-10-15T20:29:31.455768Z,0.183838,0.6870729999999999,0.108948
2018-10-15T20:29:31.663768Z,0.106628,0.7303470000000001,-0.077271
2018-10-15T20:29:31.861768Z,-1.385315,-1.874512,-1.502258
2018-10-15T20:29:32.060768Z,-0.8905639999999999,-0.261047,-0.7562260000000001
2018-10-15T20:29:32.310768Z,-0.9108280000000001,0.385498,0.494812
2018-10-15T20:29:32.458768Z,-0.052489999999999995,-1.7574459999999998,2.068665
2018-10-15T20:29:32.860768Z,-0.415405,-1.185425,0.052917
2018-10-15T20:29:33.054768Z,-0.274536,-0.583191,0.279663
2018-10-15T20:29:33.256768Z,-0.132629,-0.24395799999999998,-0.442688
2018-10-15T20:29:33.454768Z,-0.06543,-0.674377,-1.16864
2018-10-15T20:29:33.653768Z,-0.41674799999999995,-0.859741,-0.6168819999999999
2018-10-15T20:29:33.853768Z,-0.6818850000000001,-0.179504,0.125183
2018-10-15T20:29:34.054768Z,-1.4701540000000002,-0.27831999999999996,-0.09472699999999999
2018-10-15T20:29:34.256768Z,-0.484314,-0.192078,-0.701233
2018-10-15T20:29:34.462768Z,-0.8690190000000001,0.189148,0.531738
2018-10-15T20:29:34.660768Z,-0.572388,-0.076599,-0.656799
2018-10-15T20:29:34.854768Z,-1.792847,0.106201,-0.088562
2018-10-15T20:29:35.056768Z,-2.087097,0.22229000000000002,-0.029113999999999998
2018-10-15T20:29:35.256768Z,-0.350464,-0.764709,3.091125
2018-10-15T20:29:35.454768Z,0.9141239999999999,-0.722168,-1.1403809999999999
2018-10-15T20:29:35.670768Z,0.20977800000000002,-0.551697,0.529358
2018-10-15T20:29:35.854768Z,0.506409,0.080872,-0.113098
2018-10-15T20:29:36.054768Z,0.08367899999999999,-1.7463380000000002,0.270874
2018-10-15T20:29:36.254768Z,-0.070251,-1.1571040000000001,-0.596069
2018-10-15T20:29:36.454768Z,-0.43640100000000004,-0.396912,-0.16351300000000002
2018-10-15T20:29:36.654768Z,-0.869873,-1.2079469999999999,-0.30395500000000003
2018-10-15T20:29:36.872768Z,0.77478,-1.4170530000000001,-0.9810180000000001
2018-10-15T20:29:37.059768Z,0.148621,-0.814697,0.286438
2018-10-15T20:29:37.264768Z,0.33569299999999996,-0.400452,-0.13458299999999998
2018-10-15T20:29:37.465768Z,-0.017151,0.10418699999999999,0.879395
2018-10-15T20:29:37.671768Z,0.23797600000000002,-0.242615,-0.161926
2018-10-15T20:29:37.878768Z,0.071838,-0.099915,-0.10723900000000001
2018-10-15T20:29:38.065768Z,0.069092,-0.153137,-0.187927
2018-10-15T20:29:38.263768Z,0.094788,-0.005065999999999999,-0.284546
2018-10-15T20:29:38.463768Z,0.441833,0.09491000000000001,0.167725
2018-10-15T20:29:38.665768Z,0.23846399999999998,0.680542,-0.28424099999999997
2018-10-15T20:29:38.863768Z,0.689209,1.028931,-0.20306400000000002
2018-10-15T20:29:39.064768Z,0.549561,0.743591,0.125916
2018-10-15T20:29:39.265768Z,-0.80481,-1.760376,1.056152
2018-10-15T20:29:39.466768Z,-0.5755,-0.925171,-1.026367
2018-10-15T20:29:39.663768Z,-0.5237430000000001,0.433228,0.147827
2018-10-15T20:29:39.863768Z,0.409729,-0.22894299999999998,-0.062805
2018-10-15T20:29:40.061768Z,0.993347,-1.187195,0.2771
2018-10-15T20:29:40.270768Z,0.306213,0.703918,0.24212600000000004
2018-10-15T20:29:40.465768Z,-0.40625,-0.12725799999999998,1.278381
2018-10-15T20:29:40.668768Z,-0.08136,-1.4259030000000001,1.783813
2018-10-15T20:29:40.864768Z,0.332336,-0.100647,-0.36694299999999996
2018-10-15T20:29:41.064768Z,1.253723,-1.338013,1.422424
2018-10-15T20:29:41.270768Z,0.8085939999999999,-0.978088,-0.299683
2018-10-15T20:29:41.465768Z,1.100159,-0.95105,0.341614
2018-10-15T20:29:41.664768Z,1.011292,0.7597659999999999,-0.100647
2018-10-15T20:29:41.866768Z,0.978699,-0.5620729999999999,0.989807
2018-10-15T20:29:42.064768Z,-0.125366,-1.566406,-0.291321
2018-10-15T20:29:42.261768Z,-0.656433,-1.3416139999999999,-0.890747
2018-10-15T20:29:42.464768Z,0.676758,-0.635681,-0.598267
2018-10-15T20:29:42.666768Z,0.06689500000000001,0.700012,1.547302
2018-10-15T20:29:42.866768Z,0.637939,-0.48480200000000007,-0.667419
2018-10-15T20:29:43.063768Z,0.577454,-0.122498,0.745544
2018-10-15T20:29:43.265768Z,0.449646,-0.149048,-0.39263899999999996
2018-10-15T20:29:43.466768Z,1.081299,-0.533813,-0.441284
2018-10-15T20:29:43.663768Z,0.466003,-0.159119,-0.236511
2018-10-15T20:29:43.862768Z,0.48553500000000005,-0.313477,-0.385925
2018-10-15T20:29:44.063768Z,0.373657,-0.208923,-0.394592
2018-10-15T20:29:44.265768Z,-0.125122,0.262573,1.520935
2018-10-15T20:29:44.463768Z,0.282898,-0.173096,-0.062805
2018-10-15T20:29:44.675768Z,-0.128723,0.095276,0.700806
2018-10-15T20:29:44.854768Z,0.30835,0.00061,0.5428470000000001
2018-10-15T20:29:45.068768Z,0.826782,-0.320312,-0.31012
2018-10-15T20:29:45.263768Z,0.412109,-0.06189,-0.27368200000000004
2018-10-15T20:29:45.463768Z,0.200317,0.090698,0.003906
2018-10-15T20:29:45.664768Z,0.150635,-0.045105,-0.228821
2018-10-15T20:29:45.886768Z,-0.0015869999999999999,-0.520691,-1.414368
2018-10-15T20:29:46.065768Z,0.19659400000000002,-0.204346,-0.234436
2018-10-15T20:29:46.281768Z,0.5454100000000001,-0.328857,-0.589233
2018-10-15T20:29:46.465768Z,0.730164,-0.21344000000000002,0.27301
2018-10-15T20:29:46.672768Z,0.257996,-0.187622,0.219971
2018-10-15T20:29:46.863768Z,0.392151,-0.5387569999999999,0.41943400000000003
2018-10-15T20:29:47.063768Z,0.522766,-0.663025,-0.730591
2018-10-15T20:29:47.268768Z,0.425842,-0.864807,0.118408
2018-10-15T20:29:47.465768Z,0.431091,-0.554016,0.133301
2018-10-15T20:29:47.663768Z,0.44519,-0.40924099999999997,-0.156616
2018-10-15T20:29:47.863768Z,0.69696,0.728333,0.48516800000000004
2018-10-15T20:29:48.063768Z,0.530334,0.7995,0.013306
2018-10-15T20:29:48.267768Z,1.070557,1.17334,-4.593689
2018-10-15T20:29:48.461768Z,0.438721,0.830933,-1.094116
2018-10-15T20:29:48.662768Z,0.384521,0.9311520000000001,-0.092651
2018-10-15T20:29:48.866768Z,0.488525,0.319092,0.7913819999999999
2018-10-15T20:29:49.064768Z,0.122314,1.2289430000000001,-0.664856
2018-10-15T20:29:49.263768Z,-0.7539060000000001,1.328064,-0.064087
2018-10-15T20:29:49.470768Z,-0.612671,0.456726,2.092651
2018-10-15T20:29:49.864768Z,0.271973,0.340698,-0.35925300000000004
2018-10-15T20:29:50.092768Z,0.89386,0.194153,2.277405
2018-10-15T20:29:50.269768Z,0.384583,0.8627319999999999,-0.49176000000000003
2018-10-15T20:29:50.466768Z,1.1691280000000002,1.6206049999999999,-7.388306
2018-10-15T20:29:50.664768Z,0.19561800000000001,0.291443,-0.896912
2018-10-15T20:29:50.866768Z,-0.6681520000000001,0.999268,0.001953
2018-10-15T20:29:51.063768Z,-0.9404299999999999,0.785522,-1.048645
2018-10-15T20:29:51.264768Z,-1.285767,0.236816,-0.464966
2018-10-15T20:29:51.464768Z,0.6365970000000001,0.036316,-0.589233
2018-10-15T20:29:51.664768Z,0.9360959999999999,-0.8314819999999999,0.21405
2018-10-15T20:29:51.864768Z,0.436096,0.508606,0.28186
2018-10-15T20:29:52.066768Z,0.9785159999999999,0.936401,-0.187805
2018-10-15T20:29:52.264768Z,-0.39050300000000004,0.453003,0.8483280000000001
2018-10-15T20:29:52.470768Z,-1.294434,-0.790283,-0.700134
2018-10-15T20:29:52.671768Z,-1.015259,0.31311,-0.5646359999999999
2018-10-15T20:29:52.869768Z,-0.061035,0.818542,-0.782837
2018-10-15T20:29:53.064768Z,-0.175293,-0.46368400000000004,1.332336
2018-10-15T20:29:53.266768Z,0.032898000000000004,-0.606812,1.926636
2018-10-15T20:29:53.464768Z,-0.18823199999999998,0.32611100000000004,0.5531010000000001
2018-10-15T20:29:53.664768Z,-0.639709,0.562988,0.488831
2018-10-15T20:29:53.945768Z,-0.10546900000000001,-1.067078,0.712158
2018-10-15T20:29:54.069768Z,-0.349609,-0.25549299999999997,-1.1761469999999998
2018-10-15T20:29:54.270768Z,-0.575623,0.18823199999999998,-0.401489
2018-10-15T20:29:54.470768Z,-0.528503,-0.019653,-0.46106
2018-10-15T20:29:54.664768Z,0.461182,-0.068359,-0.218567
2018-10-15T20:29:54.864768Z,0.7655029999999999,-0.25,0.21581999999999998
2018-10-15T20:29:55.064768Z,0.8253780000000001,0.981934,0.563599
2018-10-15T20:29:55.263768Z,1.206116,1.136292,-0.173767
2018-10-15T20:29:55.466768Z,0.8327030000000001,0.743896,0.9802860000000001
2018-10-15T20:29:55.664768Z,-0.637573,0.209473,1.154175
2018-10-15T20:29:55.866768Z,-0.409546,-1.187927,0.305359
2018-10-15T20:29:56.088768Z,-0.048583999999999995,0.24780300000000002,-0.863403
2018-10-15T20:29:56.262768Z,0.480774,0.06427000000000001,0.06366000000000001
2018-10-15T20:29:56.464768Z,1.0319209999999999,-0.118469,-1.211792
2018-10-15T20:29:56.663768Z,0.067322,0.6914060000000001,-0.30188000000000004
2018-10-15T20:29:56.864768Z,0.936768,1.37085,-0.633057
2018-10-15T20:29:57.064768Z,0.09149199999999999,0.7894899999999999,0.518494
2018-10-15T20:29:57.262768Z,-0.706543,-0.972656,-0.0035399999999999997
2018-10-15T20:29:57.486768Z,-1.147766,-0.456909,-0.019592
2018-10-15T20:29:57.664768Z,-0.021362,-0.590454,0.12396199999999999
2018-10-15T20:29:57.864768Z,-0.469604,0.187622,-0.042969
2018-10-15T20:29:58.064768Z,-1.087708,-0.173584,-0.031127999999999996
2018-10-15T20:29:58.264768Z,-1.157349,0.105774,-0.198303
2018-10-15T20:29:58.463768Z,-0.831299,0.213745,-0.343445
2018-10-15T20:29:58.663768Z,0.347717,-0.498962,2.849243
2018-10-15T20:29:58.864768Z,1.87146,-0.21539299999999997,-0.727661
2018-10-15T20:29:59.054768Z,0.484741,-0.090942,0.045226999999999996
2018-10-15T20:29:59.264768Z,1.002502,0.5859989999999999,0.9953
2018-10-15T20:29:59.472768Z,0.469055,1.006226,0.606323
2018-10-15T20:29:59.676768Z,-0.486267,-1.737915,1.182739
2018-10-15T20:29:59.877768Z,-1.1536870000000001,-0.7231449999999999,0.94458
2018-10-15T20:30:00.062768Z,-1.429138,0.350647,-0.65741
2018-10-15T20:30:00.267768Z,-0.682983,0.338013,1.248779
2018-10-15T20:30:00.464768Z,-0.131165,-1.012512,-1.8461299999999998
2018-10-15T20:30:00.663768Z,-0.763672,0.291199,-0.11639400000000001
2018-10-15T20:30:00.863768Z,-0.32806399999999997,0.378296,1.087952
2018-10-15T20:30:01.064768Z,-0.469971,-1.741638,3.044922
2018-10-15T20:30:01.266768Z,-1.32135,-2.1471560000000003,1.581848
2018-10-15T20:30:01.486768Z,-1.598999,-0.6522220000000001,0.730591
2018-10-15T20:30:01.671768Z,-0.9301149999999999,-0.32513400000000003,0.637695
2018-10-15T20:30:01.871768Z,-1.546265,-0.719727,0.31543000000000004
2018-10-15T20:30:02.070768Z,-1.364319,0.09820599999999999,0.259033
2018-10-15T20:30:02.265768Z,-1.350708,0.157898,-0.043945
2018-10-15T20:30:02.466768Z,-2.298889,0.559937,-0.30658
2018-10-15T20:30:02.664768Z,-1.347168,0.117737,0.525146
2018-10-15T20:30:02.865768Z,-0.745667,-0.615784,1.093689
2018-10-15T20:30:03.264768Z,-0.43493699999999996,-0.754822,1.082275
2018-10-15T20:30:03.471768Z,-0.615173,-0.101074,0.042602999999999995
2018-10-15T20:30:03.669768Z,-0.511353,0.8695069999999999,-0.243896
2018-10-15T20:30:03.863768Z,-0.684021,1.377197,-0.169189
2018-10-15T20:30:04.082768Z,-0.956177,-1.761414,1.20105
2018-10-15T20:30:04.268768Z,-0.294006,-1.373108,-1.252625
2018-10-15T20:30:04.464768Z,-1.014404,-0.07489,0.748657
2018-10-15T20:30:04.663768Z,-1.192566,-0.369202,0.18395999999999998
2018-10-15T20:30:04.865768Z,-1.392517,0.421204,-0.09301799999999999
2018-10-15T20:30:05.064768Z,-1.517578,1.113098,-0.6831050000000001
2018-10-15T20:30:05.263768Z,-0.640137,0.479919,0.296631
2018-10-15T20:30:05.463768Z,-0.284302,0.091187,-0.718933
2018-10-15T20:30:05.664768Z,-0.496033,-0.553528,0.386108
2018-10-15T20:30:05.868768Z,-0.356506,0.5585939999999999,-0.552307
2018-10-15T20:30:06.066768Z,-0.371582,0.6072390000000001,-0.140808
2018-10-15T20:30:06.264768Z,-1.3619379999999999,-0.7929689999999999,-1.3520510000000001
2018-10-15T20:30:06.485768Z,-0.889099,-0.374268,-1.11792
2018-10-15T20:30:06.661768Z,-0.991943,0.349182,-0.525574
2018-10-15T20:30:06.878768Z,-0.386536,-0.053223,-0.8643190000000001
2018-10-15T20:30:07.065768Z,-0.279785,-0.940002,-0.190063
2018-10-15T20:30:07.264768Z,0.487,-0.455933,-1.924316
2018-10-15T20:30:07.464768Z,-0.9006959999999999,0.8378909999999999,-0.48101800000000006
2018-10-15T20:30:07.663768Z,1.8665770000000002,-0.188477,-0.321716
2018-10-15T20:30:07.862768Z,-0.116272,1.1214600000000001,1.287842
2018-10-15T20:30:08.063768Z,0.759216,-0.304199,1.189331
2018-10-15T20:30:08.265768Z,-0.40368699999999996,-0.146545,0.097107
2018-10-15T20:30:08.463768Z,-0.373352,-0.708557,0.7148439999999999
2018-10-15T20:30:08.664768Z,-0.954285,0.35968,0.24115
2018-10-15T20:30:08.863768Z,-0.316833,1.023132,0.049683
2018-10-15T20:30:09.063768Z,-0.032349,-1.3329469999999999,1.712341
2018-10-15T20:30:09.271768Z,0.6774899999999999,-0.422913,-0.670959
2018-10-15T20:30:09.464768Z,0.24273699999999998,0.535583,0.613586
2018-10-15T20:30:09.664768Z,-1.093872,-0.061401,2.211609
2018-10-15T20:30:09.864768Z,-1.340393,-0.571472,-1.553528
2018-10-15T20:30:10.065768Z,-0.389343,-0.08819600000000001,0.608093
2018-10-15T20:30:10.265768Z,-0.899658,-0.771423,1.6475830000000002
2018-10-15T20:30:10.464768Z,-0.394531,-0.728455,-0.549438
2018-10-15T20:30:10.664768Z,-0.071533,0.311646,0.32061799999999996
2018-10-15T20:30:10.874768Z,-0.25,-0.6812739999999999,1.530273
2018-10-15T20:30:11.060768Z,-1.355896,-1.052429,-2.323059
2018-10-15T20:30:11.274768Z,-0.274292,-1.1203,-0.474731
2018-10-15T20:30:11.466768Z,0.188538,-0.9729610000000001,-0.382324
2018-10-15T20:30:11.663768Z,0.7262569999999999,-1.2197879999999999,-0.326355
2018-10-15T20:30:11.864768Z,0.6254270000000001,0.349487,-0.905518
2018-10-15T20:30:12.065768Z,-0.032958999999999995,0.325439,-0.347961
2018-10-15T20:30:12.263768Z,0.541687,1.0639040000000002,0.474915
2018-10-15T20:30:12.464768Z,0.486328,0.9257200000000001,-0.067261
2018-10-15T20:30:12.682768Z,-0.6940310000000001,-0.274109,-1.4176030000000002
2018-10-15T20:30:12.860768Z,0.750916,-0.189026,-0.511047
2018-10-15T20:30:13.068768Z,-0.108521,0.598633,-0.767517
2018-10-15T20:30:13.269768Z,0.214966,0.651428,0.439575
2018-10-15T20:30:13.470768Z,0.332458,-0.415588,1.315552
2018-10-15T20:30:13.664768Z,0.797485,0.182068,0.5271
2018-10-15T20:30:13.865768Z,0.510315,0.758606,-0.065308
2018-10-15T20:30:14.065768Z,0.8713989999999999,0.897766,1.328125
2018-10-15T20:30:14.288768Z,0.925842,-1.280823,-0.025330000000000002
2018-10-15T20:30:14.466768Z,0.595398,-0.607056,-1.002869
2018-10-15T20:30:14.865768Z,0.433167,0.09149199999999999,-0.284912
2018-10-15T20:30:15.064768Z,0.07104500000000001,0.565491,0.628174
2018-10-15T20:30:15.264768Z,2.125427,-1.030945,-0.228149
2018-10-15T20:30:15.464768Z,1.458008,0.6518550000000001,0.641296
2018-10-15T20:30:15.664768Z,0.887085,0.6754760000000001,0.552917
2018-10-15T20:30:15.863768Z,1.053223,1.5599370000000001,-1.2005
2018-10-15T20:30:16.067768Z,1.46344,0.648682,-0.08325199999999999
2018-10-15T20:30:16.263768Z,0.21093800000000001,-0.353821,-0.279968
2018-10-15T20:30:16.470768Z,-0.073608,0.767883,-0.7575069999999999
2018-10-15T20:30:16.671768Z,0.271484,1.155945,0.23962399999999998
2018-10-15T20:30:16.908768Z,0.012816999999999999,1.269714,0.253784
2018-10-15T20:30:17.074768Z,0.666443,-0.353455,0.8201290000000001
2018-10-15T20:30:17.265768Z,0.842834,0.7246090000000001,-0.9165040000000001
2018-10-15T20:30:17.462768Z,0.14013699999999998,1.140076,-0.014525999999999999
2018-10-15T20:30:17.661768Z,1.11145,1.226135,0.44622799999999996
2018-10-15T20:30:17.868768Z,0.319763,-0.797363,0.186401
2018-10-15T20:30:18.065768Z,0.553345,-1.695984,0.746155
2018-10-15T20:30:18.263768Z,0.702209,-0.835938,1.288208
2018-10-15T20:30:18.474768Z,0.535583,-0.655151,0.188904
2018-10-15T20:30:18.664768Z,-0.337097,-0.135742,0.19201700000000002
2018-10-15T20:30:18.863768Z,-0.683411,0.578064,-0.48681599999999997
2018-10-15T20:30:19.069768Z,-0.30847199999999997,0.6327510000000001,0.038086
2018-10-15T20:30:19.270768Z,-0.47772200000000004,0.794678,0.259644
2018-10-15T20:30:19.472768Z,-0.074585,0.30993699999999996,0.298218
2018-10-15T20:30:19.664768Z,0.266968,-0.34668000000000004,-0.644775
2018-10-15T20:30:19.867768Z,0.74939,-0.070923,-0.883667
2018-10-15T20:30:20.067768Z,-0.288208,0.41674799999999995,-1.920593
2018-10-15T20:30:20.264768Z,0.564758,1.123535,0.559509
2018-10-15T20:30:20.464768Z,-0.889893,-1.6209719999999999,-1.8663330000000002
2018-10-15T20:30:20.665768Z,-0.952026,-0.88385,-2.282715
2018-10-15T20:30:20.944768Z,-0.6860350000000001,-0.8521120000000001,3.882568
2018-10-15T20:30:21.073768Z,-0.373108,-0.262268,0.07757599999999999
2018-10-15T20:30:21.270768Z,0.303467,-0.9233399999999999,-1.51886
2018-10-15T20:30:21.469768Z,-0.455383,-0.09887699999999999,-1.018677
2018-10-15T20:30:21.664768Z,-0.41107200000000005,-0.37506100000000003,0.52356
2018-10-15T20:30:21.864768Z,-0.5356449999999999,-0.193848,-0.183777
2018-10-15T20:30:22.064768Z,0.111755,-0.588074,-0.183167
2018-10-15T20:30:22.276768Z,-0.6012569999999999,0.039734,-0.27313200000000004
2018-10-15T20:30:22.463768Z,-0.24847399999999997,-0.020447,0.090698
2018-10-15T20:30:22.665768Z,-0.381226,-0.233765,0.048767000000000005
2018-10-15T20:30:22.867768Z,-0.195984,-0.033386,-0.045105
2018-10-15T20:30:23.070768Z,-0.005005,-0.190979,-0.04187
2018-10-15T20:30:23.266768Z,-0.23974600000000001,0.098694,-0.08984400000000001
2018-10-15T20:30:23.464768Z,-0.080261,-0.046204,-0.272522
2018-10-15T20:30:23.664768Z,-0.033264,0.255859,-0.24395799999999998
2018-10-15T20:30:23.864768Z,-0.130798,0.19403099999999998,-0.300232
2018-10-15T20:30:24.056768Z,-0.406677,0.29986599999999997,0.08203099999999999
2018-10-15T20:30:24.269768Z,-0.31567399999999995,0.08429,0.22912600000000002
2018-10-15T20:30:24.464768Z,-0.7689819999999999,0.84967,0.20105
2018-10-15T20:30:24.663768Z,0.156372,0.324219,0.498047
2018-10-15T20:30:24.863768Z,0.384094,-0.20385699999999998,-2.4186400000000003
2018-10-15T20:30:25.063768Z,0.47021499999999994,-0.333679,-1.0460209999999999
2018-10-15T20:30:25.261768Z,0.10656700000000001,0.42688000000000004,1.174072
2018-10-15T20:30:25.464768Z,-0.5348510000000001,-0.493835,1.054749
2018-10-15T20:30:25.671768Z,-0.684204,-1.0371700000000001,-1.083313
2018-10-15T20:30:25.863768Z,-0.377258,-0.265808,-0.721497
2018-10-15T20:30:26.070768Z,0.419128,-0.411438,0.604614
2018-10-15T20:30:26.265768Z,-0.288879,-1.744751,4.622559
2018-10-15T20:30:26.464768Z,0.270325,-0.753845,0.595459
2018-10-15T20:30:26.704768Z,0.240234,-0.021912,-0.102112
2018-10-15T20:30:26.865768Z,-0.25293000000000004,-1.550232,1.151306
2018-10-15T20:30:27.070768Z,-0.42126499999999995,-0.5224,-1.487976
2018-10-15T20:30:27.272768Z,-0.303528,0.339844,0.268127
2018-10-15T20:30:27.665768Z,1.0014040000000002,-1.747437,1.9213259999999999
2018-10-15T20:30:27.865768Z,-0.539185,0.44696,-0.916748
2018-10-15T20:30:28.066768Z,0.795898,-0.557739,0.8104859999999999
2018-10-15T20:30:28.262768Z,-1.290039,-1.6386720000000001,2.342957
2018-10-15T20:30:28.463768Z,-0.670044,-1.4326780000000001,0.798706
2018-10-15T20:30:28.667768Z,-0.8848879999999999,-0.923645,0.196838
2018-10-15T20:30:28.870768Z,-0.667603,-0.40441900000000003,0.277161
2018-10-15T20:30:29.065768Z,-1.026245,-0.8452149999999999,0.655029
2018-10-15T20:30:29.260768Z,-0.43463100000000005,-1.153625,-0.169067
2018-10-15T20:30:29.463768Z,-0.747925,-0.807739,0.125977
2018-10-15T20:30:29.676768Z,-0.32611100000000004,-0.5896,-0.421021
2018-10-15T20:30:29.870768Z,-1.846191,-0.557068,-1.135315
2018-10-15T20:30:30.066768Z,-3.439026,1.229858,-1.682678
2018-10-15T20:30:30.264768Z,-1.157837,0.7651979999999999,0.433228
2018-10-15T20:30:30.471768Z,0.06854199999999999,-1.213135,0.397339
2018-10-15T20:30:30.664768Z,-1.0816649999999999,0.117004,-0.6774899999999999
2018-10-15T20:30:30.863768Z,-1.043579,0.6002810000000001,-0.304749
2018-10-15T20:30:31.064768Z,-1.496399,0.811646,0.244995
2018-10-15T20:30:31.266768Z,-2.112732,-0.215027,-1.667664
2018-10-15T20:30:31.519768Z,-1.58197,0.8223879999999999,-2.616638
2018-10-15T20:30:31.664768Z,-2.249756,1.217163,-0.756775
2018-10-15T20:30:31.864768Z,-1.468201,1.026917,0.16003399999999998
2018-10-15T20:30:32.063768Z,-0.991333,-0.170898,-2.5178830000000003
2018-10-15T20:30:32.264768Z,-1.4976200000000002,0.43011499999999997,0.5672
2018-10-15T20:30:32.464768Z,-3.7699580000000004,0.63678,-0.639893
2018-10-15T20:30:32.663768Z,-3.04071,-0.504089,0.570557
2018-10-15T20:30:32.863768Z,-2.222656,1.255249,-1.128052
2018-10-15T20:30:33.066768Z,-0.283997,1.012268,0.45806899999999995
2018-10-15T20:30:33.264768Z,-1.537598,0.45428500000000005,1.031677
2018-10-15T20:30:33.464768Z,-0.653259,1.36676,-1.017578
2018-10-15T20:30:33.666768Z,-0.86145,1.9468990000000002,-0.344727
2018-10-15T20:30:33.866768Z,-0.585815,-0.48706099999999997,1.11499
2018-10-15T20:30:34.065768Z,-0.8218989999999999,-0.384155,-0.7797850000000001
2018-10-15T20:30:34.264768Z,-1.443848,0.721863,0.018127
2018-10-15T20:30:34.462768Z,-1.9667970000000001,1.487671,0.030639999999999997
2018-10-15T20:30:34.664768Z,-0.9996950000000001,0.513428,-1.7115479999999998
2018-10-15T20:30:34.863768Z,-1.333008,1.4291989999999999,-1.999207
2018-10-15T20:30:35.069768Z,-0.417908,1.8065189999999998,-1.050537
2018-10-15T20:30:35.264768Z,-1.826355,0.895386,1.284668
2018-10-15T20:30:35.464768Z,-0.9261469999999999,-0.254211,-0.090088
2018-10-15T20:30:35.663768Z,-0.413391,1.1100459999999999,0.11987300000000001
2018-10-15T20:30:35.870768Z,0.157166,0.623169,-0.804565
2018-10-15T20:30:36.068768Z,-0.5422359999999999,0.24084499999999998,0.093811
2018-10-15T20:30:36.263768Z,0.06018099999999999,1.252014,-0.964966
2018-10-15T20:30:36.512768Z,-0.713928,1.234985,-0.9954219999999999
2018-10-15T20:30:36.665768Z,-2.1007689999999997,0.637451,-1.749573
2018-10-15T20:30:36.856768Z,-1.033325,1.400391,-2.055908
2018-10-15T20:30:37.064768Z,-0.4552,0.984985,0.270264
2018-10-15T20:30:37.274768Z,-1.481506,0.439026,0.342407
2018-10-15T20:30:37.470768Z,-0.9385379999999999,0.928833,-0.174011
2018-10-15T20:30:37.665768Z,-2.396484,0.858215,-0.304749
2018-10-15T20:30:37.864768Z,-2.621216,0.07605,0.586182
2018-10-15T20:30:38.065768Z,-2.062927,1.108765,1.090027
2018-10-15T20:30:38.263768Z,-0.993469,1.954163,0.579834
2018-10-15T20:30:38.463768Z,-0.463379,0.465454,1.209473
2018-10-15T20:30:38.663768Z,-0.525818,0.07788099999999999,-0.368225
2018-10-15T20:30:38.870768Z,-0.361145,1.518494,-1.4573969999999998
2018-10-15T20:30:39.069768Z,-1.1304319999999999,1.507141,-1.065796
2018-10-15T20:30:39.264768Z,-2.1453860000000002,0.19458,0.8929440000000001
2018-10-15T20:30:39.475768Z,-0.8472290000000001,0.640076,-0.240173
2018-10-15T20:30:39.663768Z,-0.823364,1.1608889999999998,0.614624
2018-10-15T20:30:39.931768Z,-1.086853,0.766174,-0.348206
2018-10-15T20:30:40.286768Z,-1.234558,1.041138,-1.175232
2018-10-15T20:30:40.471768Z,-0.823425,0.629272,0.7502439999999999
2018-10-15T20:30:40.664768Z,0.01355,-1.45166,0.5627439999999999
2018-10-15T20:30:40.866768Z,-2.071899,1.344482,0.35534699999999997
2018-10-15T20:30:41.064768Z,-0.8408200000000001,1.559998,-0.074951
2018-10-15T20:30:41.265768Z,-0.500305,1.345032,0.43878199999999995
2018-10-15T20:30:41.464768Z,-0.7617189999999999,1.220947,-0.317749
2018-10-15T20:30:41.664768Z,-0.337463,0.889282,-1.584351
2018-10-15T20:30:41.866768Z,-0.100159,1.042542,-1.078064
2018-10-15T20:30:42.069768Z,-0.517212,1.518921,-0.42675799999999997
2018-10-15T20:30:42.261768Z,-0.052489999999999995,0.617004,0.08606
2018-10-15T20:30:42.489768Z,-0.6427,-0.522095,-1.943359
2018-10-15T20:30:42.677768Z,-0.66803,0.191101,-0.9907229999999999
2018-10-15T20:30:42.863768Z,-0.246094,0.116943,-1.9445189999999999
2018-10-15T20:30:43.063768Z,0.049011,-0.038147,-0.46154799999999996
2018-10-15T20:30:43.270768Z,-0.06329299999999999,-0.275513,-0.655518
2018-10-15T20:30:43.466768Z,-0.261841,0.487122,0.38031
2018-10-15T20:30:43.664768Z,-0.003235,0.9528200000000001,0.049011
2018-10-15T20:30:43.864768Z,-0.60968,-0.589966,0.587036
2018-10-15T20:30:44.066768Z,-0.229492,0.068176,0.267273
2018-10-15T20:30:44.265768Z,-1.021606,0.859558,-0.246277
2018-10-15T20:30:44.469768Z,-0.19586199999999998,0.8223879999999999,0.525208
2018-10-15T20:30:44.665768Z,1.070862,-1.644836,1.6490479999999998
2018-10-15T20:30:44.871768Z,-0.14788800000000002,0.066589,0.97998
2018-10-15T20:30:45.076768Z,-0.263733,-0.369751,-0.9794309999999999
2018-10-15T20:30:45.267768Z,0.247131,-1.512451,-1.612061
2018-10-15T20:30:45.463768Z,-0.141479,0.130615,-0.56958
2018-10-15T20:30:45.664768Z,-0.098083,0.324524,0.572205
2018-10-15T20:30:45.863768Z,0.579407,-0.414307,-0.28125
2018-10-15T20:30:46.062768Z,1.189331,-0.031311,-1.140625
2018-10-15T20:30:46.262768Z,0.671143,0.7905270000000001,-0.016907
2018-10-15T20:30:46.465768Z,0.439453,-0.055115,0.378052
2018-10-15T20:30:46.664768Z,-0.328613,-1.428894,-0.11969
2018-10-15T20:30:46.866768Z,0.033752,-0.661499,-0.322144
2018-10-15T20:30:47.082768Z,0.167236,0.36730999999999997,-0.501099
2018-10-15T20:30:47.271768Z,0.411926,0.902954,0.580872
2018-10-15T20:30:47.463768Z,1.3528440000000002,-0.83429,-0.094788
2018-10-15T20:30:47.671768Z,0.8863530000000001,0.42474399999999995,-1.7219240000000002
2018-10-15T20:30:47.869768Z,1.031128,1.603638,-0.32324200000000003
2018-10-15T20:30:48.078768Z,0.400574,-0.192322,1.799927
2018-10-15T20:30:48.270768Z,0.872986,-0.867065,-0.536255
2018-10-15T20:30:48.463768Z,-0.080627,0.882202,-0.5620729999999999
2018-10-15T20:30:48.663768Z,0.27655,1.19574,0.6127319999999999
2018-10-15T20:30:48.856768Z,1.087158,-0.619629,0.022156
2018-10-15T20:30:49.074768Z,1.1312870000000002,0.696289,-2.269714
2018-10-15T20:30:49.271768Z,0.7441409999999999,1.740234,0.485046
2018-10-15T20:30:49.470768Z,0.202881,-0.604004,2.220825
2018-10-15T20:30:49.676768Z,0.8217770000000001,-1.199707,-1.145752
2018-10-15T20:30:49.870768Z,0.060974,0.694641,-0.46984899999999996
2018-10-15T20:30:50.068768Z,0.62561,0.811157,0.942261
2018-10-15T20:30:50.266768Z,1.385132,-0.778076,-0.24096700000000001
2018-10-15T20:30:50.464768Z,1.841248,0.587036,-1.365417
2018-10-15T20:30:50.664768Z,1.261169,1.851257,0.220703
2018-10-15T20:30:50.866768Z,0.454529,-0.23773200000000003,3.194336
2018-10-15T20:30:51.071768Z,1.107361,-0.750061,-0.353516
2018-10-15T20:30:51.328768Z,0.585144,0.744019,-0.5588380000000001
2018-10-15T20:30:51.672768Z,1.220947,0.104004,2.0317380000000003
2018-10-15T20:30:52.065768Z,1.3335569999999999,0.986267,-2.980347
2018-10-15T20:30:52.266768Z,0.959167,2.956055,-0.564209
2018-10-15T20:30:52.478768Z,0.626892,0.715759,3.309021
2018-10-15T20:30:52.663768Z,1.015686,-0.310303,-0.67572
2018-10-15T20:30:52.868768Z,0.579041,1.8153689999999998,-0.587463
2018-10-15T20:30:53.071768Z,0.977844,2.177734,0.973633
2018-10-15T20:30:53.272768Z,1.4761959999999998,1.037048,-1.593323
2018-10-15T20:30:53.473768Z,1.0849,1.8426509999999998,-1.768188
2018-10-15T20:30:53.666768Z,0.183228,2.358276,0.410156
2018-10-15T20:30:53.860768Z,0.365845,0.557129,-2.497314
2018-10-15T20:30:54.074768Z,0.18756099999999998,1.321045,-1.7611689999999998
2018-10-15T20:30:54.260768Z,-0.170898,2.328003,0.384827
2018-10-15T20:30:54.465768Z,0.44830299999999995,0.500916,2.8754880000000003
2018-10-15T20:30:54.680768Z,0.258362,1.6611939999999998,-3.045593
2018-10-15T20:30:54.870768Z,0.44451899999999994,2.86322,-0.306702
2018-10-15T20:30:55.064768Z,0.273376,1.072449,2.646667
2018-10-15T20:30:55.264768Z,1.67157,-0.47564700000000004,0.129944
2018-10-15T20:30:55.464768Z,0.10845899999999999,1.434998,-0.42572
2018-10-15T20:30:55.663768Z,0.5093989999999999,1.795349,0.012085
2018-10-15T20:30:55.863768Z,1.81958,0.089111,-2.396362
2018-10-15T20:30:56.064768Z,0.6235350000000001,1.4067379999999998,-1.173401
2018-10-15T20:30:56.264768Z,-0.653748,2.8255,-0.197876
2018-10-15T20:30:56.470768Z,0.091675,0.575623,1.0042719999999998
2018-10-15T20:30:56.669768Z,-0.564392,0.760193,-2.1741330000000003
2018-10-15T20:30:56.864768Z,-1.139893,2.074219,-0.770569
2018-10-15T20:30:57.065768Z,-0.05426,2.289551,-1.11322
2018-10-15T20:30:57.264768Z,0.381836,-0.151123,0.18042
2018-10-15T20:30:57.464768Z,-1.114258,2.206238,-0.5505979999999999
2018-10-15T20:30:57.668768Z,-0.077209,2.061035,0.336853
2018-10-15T20:30:57.863768Z,-0.983276,0.040527,-1.0161129999999998
2018-10-15T20:30:58.064768Z,-0.522583,0.6892699999999999,-1.017822
2018-10-15T20:30:58.264768Z,-1.028564,1.816711,-1.109558
2018-10-15T20:30:58.464768Z,-0.401672,1.771729,0.16961700000000002
2018-10-15T20:30:58.680768Z,-0.62439,-0.193298,1.6903689999999998
2018-10-15T20:30:58.863768Z,-0.12396199999999999,0.9417110000000001,-1.377258
2018-10-15T20:30:59.063768Z,-0.428284,2.18512,-0.9541629999999999
2018-10-15T20:30:59.266768Z,-0.9646610000000001,0.342102,1.563721
2018-10-15T20:30:59.464768Z,0.053954999999999996,0.24084499999999998,-0.41088900000000006
2018-10-15T20:30:59.659768Z,-1.33136,-0.705688,0.999084
2018-10-15T20:30:59.867768Z,-0.121582,0.969482,-1.749573
2018-10-15T20:31:00.060768Z,-0.8681639999999999,0.915955,-1.622131
2018-10-15T20:31:00.268768Z,1.004456,-0.39074699999999996,0.673279
2018-10-15T20:31:00.470768Z,-1.097961,1.208862,-0.412476
2018-10-15T20:31:00.665768Z,-0.425415,1.022034,-0.017883
2018-10-15T20:31:00.873768Z,-0.077454,1.127991,-1.053833
2018-10-15T20:31:01.072768Z,-0.74408,1.765869,-1.146179
2018-10-15T20:31:01.264768Z,-0.55365,-0.018799,2.387451
2018-10-15T20:31:01.464768Z,-1.668396,1.588379,0.427917
2018-10-15T20:31:01.664768Z,-0.24462899999999999,0.710815,0.11731
2018-10-15T20:31:01.864768Z,-0.577087,1.405273,0.211731
2018-10-15T20:31:02.060768Z,-0.020508000000000002,-0.73645,1.0546879999999998
2018-10-15T20:31:02.269768Z,0.122375,0.48645,-0.624695
2018-10-15T20:31:02.472768Z,0.13531500000000002,0.806946,-0.288574
2018-10-15T20:31:02.663768Z,-0.168518,0.8278200000000001,-0.11413599999999999
2018-10-15T20:31:02.863768Z,-0.7737430000000001,-0.8308719999999999,-0.326538
2018-10-15T20:31:03.064768Z,-1.885376,0.9637450000000001,-0.408447
2018-10-15T20:31:03.264768Z,-1.342163,0.341553,-0.663574
2018-10-15T20:31:03.472768Z,-1.185059,0.6990970000000001,-0.449341
2018-10-15T20:31:03.663768Z,-0.59906,0.719971,1.205444
2018-10-15T20:31:03.864768Z,-0.069458,-0.798279,-0.07110599999999999
2018-10-15T20:31:04.063768Z,-0.162048,-0.558411,0.6264649999999999
2018-10-15T20:31:04.272768Z,-0.40570100000000003,-0.370056,0.360046
2018-10-15T20:31:04.464768Z,-0.35388200000000003,0.21557600000000002,-0.295166
2018-10-15T20:31:04.664768Z,-0.240662,0.175476,0.134338
2018-10-15T20:31:04.890768Z,-0.155334,0.487183,-0.731812
2018-10-15T20:31:05.061768Z,-0.569946,0.330383,-0.069397
2018-10-15T20:31:05.466768Z,-0.8088380000000001,0.058899,0.718689
2018-10-15T20:31:05.663768Z,-0.982239,0.174561,-0.192932
2018-10-15T20:31:05.861768Z,-0.390259,0.977966,-0.296265
2018-10-15T20:31:06.063768Z,-0.691772,0.745789,-0.800171
2018-10-15T20:31:06.263768Z,-0.209473,-0.638428,0.9675290000000001
2018-10-15T20:31:06.463768Z,0.23406999999999997,-0.687195,0.740479
2018-10-15T20:31:06.663768Z,0.71814,-0.836792,-0.352478
2018-10-15T20:31:06.866768Z,0.102539,0.112549,-0.763977
2018-10-15T20:31:07.064768Z,1.329651,-0.202271,0.530273
2018-10-15T20:31:07.264768Z,0.280518,-0.371338,-0.21887199999999998
2018-10-15T20:31:07.463768Z,-0.240234,0.125244,-0.582886
2018-10-15T20:31:07.663768Z,-2.6098630000000003,1.590027,0.460571
2018-10-15T20:31:07.864768Z,-2.618286,2.75769,-0.101074
2018-10-15T20:31:08.064768Z,-1.105042,1.528198,-1.085693
2018-10-15T20:31:08.267768Z,0.056701999999999995,1.156433,0.530518
2018-10-15T20:31:08.467768Z,-0.020935,-0.198669,-2.067505
2018-10-15T20:31:08.663768Z,-1.4760739999999999,-0.221802,-1.087402
2018-10-15T20:31:08.864768Z,-1.01355,-0.39032,-0.546021
2018-10-15T20:31:09.064768Z,0.055237,-1.237061,0.103394
2018-10-15T20:31:09.286768Z,0.191772,-0.5935060000000001,-1.555725
2018-10-15T20:31:09.463768Z,-0.057373,0.21270799999999998,0.186401
2018-10-15T20:31:09.663768Z,-0.552856,0.8658450000000001,-0.754456
2018-10-15T20:31:09.863768Z,0.23449699999999998,0.28241,-1.1807860000000001
2018-10-15T20:31:10.060768Z,-0.65094,0.48950200000000005,0.049622
2018-10-15T20:31:10.260768Z,-0.897644,0.5935060000000001,0.8084720000000001
2018-10-15T20:31:10.478768Z,-0.620056,0.6957399999999999,0.08557100000000001
2018-10-15T20:31:10.679768Z,-0.38293499999999997,0.373962,-0.330322
2018-10-15T20:31:10.865768Z,-0.515076,0.35736100000000004,-0.18335
2018-10-15T20:31:11.064768Z,-0.701965,0.373291,-0.203369
2018-10-15T20:31:11.267768Z,-1.241333,0.423767,-0.654541
2018-10-15T20:31:11.465768Z,-1.1312870000000002,0.082214,-0.723328
2018-10-15T20:31:11.665768Z,-1.554993,0.47772200000000004,-0.6149899999999999
2018-10-15T20:31:11.864768Z,0.553894,-0.451294,1.891357
2018-10-15T20:31:12.067768Z,3.405701,-0.6857300000000001,-1.2710569999999999
2018-10-15T20:31:12.269768Z,1.3133540000000001,-1.1942139999999999,0.44470200000000004
2018-10-15T20:31:12.465768Z,-0.168701,-0.313843,3.387085
2018-10-15T20:31:12.668768Z,0.187317,0.100952,1.412903
2018-10-15T20:31:12.863768Z,-0.177124,-0.066467,-0.318054
2018-10-15T20:31:13.064768Z,0.059142999999999994,0.026855,-0.87677
2018-10-15T20:31:13.264768Z,0.613953,-0.5,-0.107483
2018-10-15T20:31:13.461768Z,-0.050232,-0.275879,0.166931
2018-10-15T20:31:13.663768Z,-0.41516099999999995,0.21826199999999998,0.5688479999999999
2018-10-15T20:31:13.861768Z,-0.547668,-0.234314,-0.431274
2018-10-15T20:31:14.066768Z,0.345825,-0.29370100000000005,0.46380600000000005
2018-10-15T20:31:14.266768Z,0.132141,-0.287354,0.079163
2018-10-15T20:31:14.464768Z,-0.22979699999999997,-0.22912600000000002,-0.297241
2018-10-15T20:31:14.666768Z,0.547241,-0.6908569999999999,1.695984
2018-10-15T20:31:14.863768Z,0.005005,-0.22912600000000002,-0.012634000000000001
2018-10-15T20:31:15.083768Z,0.065735,-0.11035199999999999,0.308228
2018-10-15T20:31:15.263768Z,-0.030333999999999996,0.312866,-0.948975
2018-10-15T20:31:15.520768Z,-0.205017,0.187317,0.854187
2018-10-15T20:31:15.674768Z,-0.095337,-0.122498,-0.072693
2018-10-15T20:31:15.872768Z,-0.06134,0.07836900000000001,-0.386902
2018-10-15T20:31:16.075768Z,0.13623,0.28009,0.115173
2018-10-15T20:31:16.265768Z,0.618225,-0.138672,-0.10919200000000001
2018-10-15T20:31:16.463768Z,0.535034,0.91925,0.105225
2018-10-15T20:31:16.666768Z,0.96283,1.0802,0.131287
2018-10-15T20:31:16.863768Z,0.27636700000000003,-1.064087,1.51001
2018-10-15T20:31:17.071768Z,-1.397888,-1.7059330000000001,-0.9818120000000001
2018-10-15T20:31:17.265768Z,-0.7281489999999999,-0.84552,-0.331665
2018-10-15T20:31:17.473768Z,-0.681519,0.32818600000000003,-0.246033
2018-10-15T20:31:17.670768Z,-0.495667,0.435852,0.006409000000000001
2018-10-15T20:31:17.856768Z,0.619324,-1.205078,0.13623
2018-10-15T20:31:18.071768Z,0.626282,-0.48321499999999995,0.449219
2018-10-15T20:31:18.275768Z,0.9850459999999999,-0.23980700000000002,0.355103
2018-10-15T20:31:18.471768Z,0.580078,0.820557,-0.195496
2018-10-15T20:31:18.669768Z,-0.528748,-0.250793,0.528931
2018-10-15T20:31:18.870768Z,-2.177124,-1.20813,0.041687
2018-10-15T20:31:19.063768Z,-1.973511,-0.385803,0.578613
2018-10-15T20:31:19.264768Z,-0.920715,0.1604,0.050963999999999995
2018-10-15T20:31:19.466768Z,-0.9995729999999999,-0.408875,-0.191101
2018-10-15T20:31:19.663768Z,-1.158752,-0.886719,1.018921
2018-10-15T20:31:19.879768Z,-0.9508059999999999,-0.44256599999999996,0.506287
2018-10-15T20:31:20.270768Z,-0.636475,-0.48773199999999994,0.284851
2018-10-15T20:31:20.469768Z,-1.145569,0.14209000000000002,0.9072879999999999
2018-10-15T20:31:20.664768Z,-0.57312,-0.780457,0.10943599999999999
2018-10-15T20:31:20.864768Z,-1.6974490000000002,-1.342163,-1.864075
2018-10-15T20:31:21.064768Z,-3.450684,1.3365479999999998,0.806091
2018-10-15T20:31:21.264768Z,-1.5958860000000001,-0.07714800000000001,-0.989807
2018-10-15T20:31:21.465768Z,-2.1534419999999996,1.230225,0.435242
2018-10-15T20:31:21.664768Z,-1.041687,-0.123047,-0.221375
2018-10-15T20:31:21.864768Z,-1.0021360000000001,-0.07110599999999999,-0.585938
2018-10-15T20:31:22.068768Z,-0.978333,0.092285,-0.448425
2018-10-15T20:31:22.264768Z,-0.592529,0.061035,-0.513733
2018-10-15T20:31:22.467768Z,-0.762085,0.28979499999999997,0.059937
2018-10-15T20:31:22.664768Z,-0.635071,0.11645499999999999,0.014159999999999999
2018-10-15T20:31:22.869768Z,0.511841,-1.113159,-0.085083
2018-10-15T20:31:23.063768Z,-1.420654,1.388855,0.676025
2018-10-15T20:31:23.263768Z,-0.153809,-0.23596199999999998,-0.512451
2018-10-15T20:31:23.466768Z,-0.5672,0.25616500000000003,-0.559082
2018-10-15T20:31:23.664768Z,0.014465,-0.287598,-0.045105
2018-10-15T20:31:23.868768Z,0.021544999999999998,0.046875,-0.298401
2018-10-15T20:31:24.063768Z,-0.469788,0.6012569999999999,-0.448853
2018-10-15T20:31:24.282768Z,-0.153076,0.739136,-0.774353
2018-10-15T20:31:24.470768Z,-0.36743200000000004,0.875549,-0.765076
2018-10-15T20:31:24.664768Z,-0.545044,0.546509,-1.022705
2018-10-15T20:31:24.864768Z,0.292969,-0.79187,-1.775391
2018-10-15T20:31:25.065768Z,0.186096,-0.6596069999999999,-1.254944
2018-10-15T20:31:25.264768Z,1.267822,-1.666626,-1.7181400000000002
2018-10-15T20:31:25.467768Z,-0.39306599999999997,1.27655,0.13372799999999999
2018-10-15T20:31:25.664768Z,0.98761,-0.673523,0.756409
2018-10-15T20:31:25.864768Z,-0.48736599999999997,-0.9512940000000001,-0.26745599999999997
2018-10-15T20:31:26.069768Z,-0.383728,-0.351562,-0.9638059999999999
2018-10-15T20:31:26.270768Z,-0.599487,0.2005,0.339966
2018-10-15T20:31:26.476768Z,0.445312,-0.32818600000000003,-0.22314499999999998
2018-10-15T20:31:26.669768Z,-0.21337899999999999,-1.439514,0.555298
2018-10-15T20:31:26.869768Z,0.092651,-0.560608,-1.241638
2018-10-15T20:31:27.068768Z,0.936218,-0.277954,0.794556
2018-10-15T20:31:27.264768Z,0.199524,-0.595093,-0.067688
2018-10-15T20:31:27.464768Z,-0.8892209999999999,-1.095459,-1.18103
2018-10-15T20:31:27.664768Z,-0.779297,-0.240479,-0.6130979999999999
2018-10-15T20:31:27.873768Z,-0.334717,-0.132385,-0.43096899999999994
2018-10-15T20:31:28.064768Z,-0.028442000000000002,0.237854,-0.906128
2018-10-15T20:31:28.266768Z,-0.065613,-0.484558,1.47522
2018-10-15T20:31:28.466768Z,1.079651,-1.9915770000000002,0.579834
2018-10-15T20:31:28.664768Z,-1.246094,0.777405,0.43078599999999995
2018-10-15T20:31:28.863768Z,0.774048,-1.0454709999999998,-0.29632600000000003
2018-10-15T20:31:29.065768Z,0.072876,-0.101624,-0.31262199999999996
2018-10-15T20:31:29.265768Z,-0.063904,-0.672729,-0.852356
2018-10-15T20:31:29.464768Z,-0.437317,-0.474792,-0.510254
2018-10-15T20:31:29.663768Z,-0.527954,-0.30658,-0.187866
2018-10-15T20:31:29.863768Z,-0.546204,-0.393005,-0.011475
2018-10-15T20:31:30.073768Z,-0.944519,0.340515,0.269043
2018-10-15T20:31:30.270768Z,-0.588928,0.080505,-0.247437
2018-10-15T20:31:30.471768Z,-0.34936500000000004,0.536987,-0.110229
2018-10-15T20:31:30.669768Z,0.543579,-0.32495100000000005,-0.348022
2018-10-15T20:31:30.855768Z,-0.22418200000000002,-1.094666,0.7011109999999999
2018-10-15T20:31:31.073768Z,0.397095,-0.901489,0.389771
2018-10-15T20:31:31.271768Z,-0.23168899999999998,-0.394287,-0.032166
2018-10-15T20:31:31.464768Z,0.312256,-1.054749,-0.667603
2018-10-15T20:31:31.665768Z,-0.095886,-0.132874,-0.130249
2018-10-15T20:31:31.864768Z,-2.393616,1.253906,1.850891
2018-10-15T20:31:32.070768Z,-0.196838,-0.988037,-0.440979
2018-10-15T20:31:32.271768Z,-0.7773439999999999,-1.057129,-0.813782
2018-10-15T20:31:32.471768Z,-0.053711,-0.52771,-0.866516
2018-10-15T20:31:32.665768Z,-0.389893,-0.33813499999999996,0.095947
2018-10-15T20:31:32.863768Z,0.346497,-1.0139770000000001,-0.31134
2018-10-15T20:31:33.063768Z,-0.968018,0.621948,0.5469970000000001
2018-10-15T20:31:33.263768Z,-0.103027,-0.469666,-0.630249
2018-10-15T20:31:33.465768Z,-0.401794,-0.007384999999999999,0.062622
2018-10-15T20:31:33.663768Z,0.445251,0.149536,0.462341
2018-10-15T20:31:33.864768Z,-0.18243399999999999,0.588623,0.34265100000000004
2018-10-15T20:31:34.063768Z,0.451416,0.752075,1.0113530000000002
2018-10-15T20:31:34.263768Z,-0.0061649999999999995,-1.027832,0.9961549999999999
2018-10-15T20:31:34.465768Z,-1.636108,-1.327332,0.227478
2018-10-15T20:31:34.666768Z,-0.694458,-0.500793,-0.268494
2018-10-15T20:31:34.863768Z,-0.555908,0.31866500000000003,-0.197205
2018-10-15T20:31:35.064768Z,-0.097412,-1.1279299999999999,0.6752319999999999
2018-10-15T20:31:35.264768Z,-0.10345499999999999,-1.361572,1.1190799999999999
2018-10-15T20:31:35.665768Z,-0.374084,-0.763672,-0.924744
2018-10-15T20:31:35.865768Z,-0.643494,0.043823,-0.054504
2018-10-15T20:31:36.064768Z,0.7617189999999999,-0.608643,0.403381
2018-10-15T20:31:36.264768Z,-0.227173,-0.47698999999999997,-0.09277300000000001
2018-10-15T20:31:36.465768Z,-2.055847,-0.569397,-0.08081100000000001
2018-10-15T20:31:36.670768Z,-1.208191,-0.136597,-0.32611100000000004
2018-10-15T20:31:36.888768Z,-0.460388,0.044433999999999994,-0.435913
2018-10-15T20:31:37.067768Z,-0.19134500000000002,0.468262,-0.338379
2018-10-15T20:31:37.267768Z,-0.850159,0.563171,-0.010803
2018-10-15T20:31:37.470768Z,-6.1e-05,-0.719116,-2.2490229999999998
2018-10-15T20:31:37.664768Z,-0.265259,-0.035522000000000005,-1.080078
2018-10-15T20:31:37.865768Z,-1.298401,-0.242981,0.761169
2018-10-15T20:31:38.065768Z,-0.567383,-1.432129,-1.619629
2018-10-15T20:31:38.265768Z,-1.301575,0.225098,-1.276245
2018-10-15T20:31:38.465768Z,-1.258362,0.460266,0.746582
2018-10-15T20:31:38.665768Z,-1.440918,-1.099365,1.210876
2018-10-15T20:31:38.868768Z,-0.997375,-0.179749,-0.236511
2018-10-15T20:31:39.066768Z,-0.731506,0.26055900000000004,1.22052
2018-10-15T20:31:39.270768Z,-1.3393549999999999,0.16571,0.9547120000000001
2018-10-15T20:31:39.464768Z,-2.1693119999999997,-0.6875,-1.943909
2018-10-15T20:31:39.664768Z,-1.626709,-0.191833,-0.8417969999999999
2018-10-15T20:31:39.884768Z,-1.6195680000000001,0.453491,-0.097961
2018-10-15T20:31:40.064768Z,-1.087158,-0.43096899999999994,0.9718629999999999
2018-10-15T20:31:40.263768Z,-0.703796,-0.900574,0.765259
2018-10-15T20:31:40.463768Z,-1.8065189999999998,0.8871459999999999,-4.038635
2018-10-15T20:31:40.663768Z,-1.614624,-0.038086,-2.174561
2018-10-15T20:31:40.863768Z,-2.017029,0.696533,-0.66217
2018-10-15T20:31:41.063768Z,-0.565308,-0.446716,0.5626220000000001
2018-10-15T20:31:41.264768Z,-1.741699,-0.5120239999999999,-0.264221
2018-10-15T20:31:41.463768Z,-1.5774540000000001,-0.0063479999999999995,-0.80658
2018-10-15T20:31:41.664768Z,-0.7390140000000001,0.026672,-0.432129
2018-10-15T20:31:41.867768Z,-1.190491,-0.44043000000000004,0.523438
2018-10-15T20:31:42.065768Z,-0.655945,-1.376587,0.470703
2018-10-15T20:31:42.265768Z,-1.193542,-0.608032,1.128052
2018-10-15T20:31:42.463768Z,-0.7112430000000001,0.654907,1.9821779999999998
2018-10-15T20:31:42.669768Z,-1.2944950000000002,0.217712,1.4754639999999999
2018-10-15T20:31:42.863768Z,-0.21814,0.34191900000000003,-0.088745
2018-10-15T20:31:43.065768Z,-0.159485,0.256592,-0.599548
2018-10-15T20:31:43.264768Z,-0.15673800000000002,0.34674099999999997,-0.783569
2018-10-15T20:31:43.459768Z,-0.527039,0.2276,-0.875366
2018-10-15T20:31:43.662768Z,1.222229,-0.50647,-0.747681
2018-10-15T20:31:43.863768Z,0.362122,-0.520508,-0.247925
2018-10-15T20:31:44.063768Z,-0.7071529999999999,0.05719,-0.276062
2018-10-15T20:31:44.263768Z,0.3703,-1.125,1.372498
2018-10-15T20:31:44.464768Z,-0.312866,0.752258,0.319336
2018-10-15T20:31:44.664768Z,-0.341553,0.836426,-2.005859
2018-10-15T20:31:44.864768Z,-0.43060299999999996,0.260437,-0.579407
2018-10-15T20:31:45.062768Z,-0.7772220000000001,0.193176,-0.519165
2018-10-15T20:31:45.265768Z,-0.165405,-0.21453899999999998,-0.364929
2018-10-15T20:31:45.461768Z,-0.053833000000000006,-0.395142,1.814087
2018-10-15T20:31:45.664768Z,-0.558044,0.229553,-0.49542200000000003
2018-10-15T20:31:45.869768Z,0.028198,0.00238,0.051879999999999996
2018-10-15T20:31:46.074768Z,-0.303589,-0.199829,1.1214600000000001
2018-10-15T20:31:46.265768Z,-0.22894299999999998,0.13256800000000002,-0.21783400000000003
2018-10-15T20:31:46.462768Z,-0.572571,0.5221560000000001,-0.807129
2018-10-15T20:31:46.664768Z,-0.64856,0.22937,0.22656199999999999
2018-10-15T20:31:46.863768Z,-0.655396,0.23400900000000002,0.5872189999999999
2018-10-15T20:31:47.054768Z,-0.422241,0.06543,-0.194641
2018-10-15T20:31:47.263768Z,-0.346497,0.005493,1.4067379999999998
2018-10-15T20:31:47.465768Z,-0.60022,0.338318,-0.476929
2018-10-15T20:31:47.676768Z,-0.9526979999999999,1.8018189999999998,-5.872192
2018-10-15T20:31:47.864768Z,0.10418699999999999,0.028137,0.056396
2018-10-15T20:31:48.083768Z,-0.181274,0.8302,-0.370544
2018-10-15T20:31:48.271768Z,-0.041809,0.246948,-0.25561500000000004
2018-10-15T20:31:48.465768Z,0.129883,-0.556335,-0.734375
2018-10-15T20:31:48.663768Z,-1.9353639999999999,1.6513669999999998,-0.372681
2018-10-15T20:31:48.864768Z,-1.902466,1.394714,0.514343
2018-10-15T20:31:49.065768Z,0.025695999999999997,0.180359,1.556824
2018-10-15T20:31:49.268768Z,-0.028442000000000002,-0.33666999999999997,-0.585205
2018-10-15T20:31:49.465768Z,-0.130493,0.180847,0.00415
2018-10-15T20:31:49.664768Z,-0.044189,0.31494099999999997,-0.276489
2018-10-15T20:31:50.098768Z,-0.854309,-0.919739,-1.202026
2018-10-15T20:31:50.266768Z,0.633789,-1.756592,3.658264
2018-10-15T20:31:50.464768Z,-0.026062000000000002,-0.445496,0.12854000000000002
2018-10-15T20:31:50.670768Z,-0.351379,-0.823486,0.219421
2018-10-15T20:31:50.878768Z,1.9220580000000003,-1.852112,5.933533000000001
2018-10-15T20:31:51.072768Z,0.884094,-1.1900629999999999,1.496765
2018-10-15T20:31:51.269768Z,-0.772217,0.568298,0.923035
2018-10-15T20:31:51.464768Z,0.881409,0.227661,-0.680603
2018-10-15T20:31:51.669768Z,1.203308,1.140625,-0.021301
2018-10-15T20:31:51.867768Z,1.130005,0.729553,-0.424622
2018-10-15T20:31:52.064768Z,0.932312,0.743835,-0.35375999999999996
2018-10-15T20:31:52.264768Z,0.743286,0.12109400000000001,-0.84967
2018-10-15T20:31:52.467768Z,0.8142699999999999,-0.134888,1.419434
2018-10-15T20:31:52.665768Z,-0.085266,1.0608520000000001,-1.59314
2018-10-15T20:31:52.878768Z,0.330811,1.0396729999999998,0.008971999999999999
2018-10-15T20:31:53.071768Z,-0.220886,1.539734,0.132935
2018-10-15T20:31:53.266768Z,0.8651120000000001,0.223694,-2.890381
2018-10-15T20:31:53.464768Z,0.881287,0.5938720000000001,-2.165466
2018-10-15T20:31:53.663768Z,0.950073,1.461365,0.267395
2018-10-15T20:31:53.863768Z,0.057555999999999996,0.052979,1.62384
2018-10-15T20:31:54.064768Z,-0.155212,-0.723022,0.9084469999999999
2018-10-15T20:31:54.264768Z,-0.017639,0.5100100000000001,-0.21411100000000002
2018-10-15T20:31:54.464768Z,0.32922399999999996,0.8608399999999999,-0.547668
2018-10-15T20:31:54.678768Z,0.162109,-0.21051,1.103699
2018-10-15T20:31:54.863768Z,1.11499,-0.725708,0.633911
2018-10-15T20:31:55.064768Z,0.48754899999999995,-0.29943800000000004,-0.24456799999999998
2018-10-15T20:31:55.264768Z,-3.38269,1.1091309999999999,0.806702
2018-10-15T20:31:55.465768Z,-1.456726,-1.141785,0.391907
2018-10-15T20:31:55.665768Z,-0.616272,-1.768616,1.0200200000000001
2018-10-15T20:31:55.864768Z,1.4566649999999999,-1.8771360000000001,1.7773439999999998
2018-10-15T20:31:56.061768Z,0.980713,-0.8723139999999999,0.43823199999999995
2018-10-15T20:31:56.293768Z,-0.38861100000000004,0.015075999999999999,-0.036011
2018-10-15T20:31:56.465768Z,-0.018311,-0.482605,0.014403999999999998
2018-10-15T20:31:56.665768Z,-0.6293949999999999,-0.21936,0.11224400000000001
2018-10-15T20:31:56.873768Z,0.7497560000000001,0.543579,-1.161316
2018-10-15T20:31:57.063768Z,0.753113,0.161194,-0.967041
2018-10-15T20:31:57.263768Z,-0.38445999999999997,-0.19342,0.004211
2018-10-15T20:31:57.463768Z,-0.225098,-0.988281,-0.6156010000000001
2018-10-15T20:31:57.671768Z,-0.5349729999999999,-0.311096,2.834045
2018-10-15T20:31:57.869768Z,0.24731399999999998,0.19458,0.088074
2018-10-15T20:31:58.064768Z,0.453613,0.198975,-0.46405
2018-10-15T20:31:58.267768Z,-0.23822,0.7131350000000001,0.090271
2018-10-15T20:31:58.479768Z,0.5120239999999999,0.551697,-0.350891
2018-10-15T20:31:58.671768Z,0.43512,0.137146,-0.133972
2018-10-15T20:31:58.870768Z,0.281555,0.371582,0.415894
2018-10-15T20:31:59.061768Z,1.341431,-1.664368,-1.134583
2018-10-15T20:31:59.264768Z,1.8778080000000001,0.36486799999999997,0.796326
2018-10-15T20:31:59.464768Z,2.0145869999999997,0.75592,1.2182620000000002
2018-10-15T20:31:59.665768Z,1.255676,1.362976,-0.32019000000000003
2018-10-15T20:31:59.865768Z,0.322937,0.674438,1.351868
2018-10-15T20:32:00.064768Z,-0.9385379999999999,0.678345,1.876221
2018-10-15T20:32:00.264768Z,0.122925,0.72522,0.318481
2018-10-15T20:32:00.467768Z,0.45843500000000004,1.19751,-0.805298
2018-10-15T20:32:00.678768Z,0.919434,0.8212280000000001,0.67688
2018-10-15T20:32:00.869768Z,0.7096560000000001,0.443237,-1.223877
2018-10-15T20:32:01.069768Z,0.459717,1.154541,-0.4021
2018-10-15T20:32:01.254768Z,0.246765,1.9994509999999999,0.216309
2018-10-15T20:32:01.464768Z,-0.211548,-0.604248,2.240234
2018-10-15T20:32:01.664768Z,0.741394,0.743286,-1.139038
2018-10-15T20:32:01.863768Z,0.274597,1.207886,-0.186279
2018-10-15T20:32:02.065768Z,0.6203609999999999,0.9957280000000001,-0.792542
2018-10-15T20:32:02.265768Z,0.747681,-0.366333,1.1877440000000001
2018-10-15T20:32:02.465768Z,0.07666,1.49823,0.045776
2018-10-15T20:32:02.670768Z,0.719238,1.065918,0.340942
2018-10-15T20:32:02.870768Z,0.002441,-0.778076,1.6838990000000003
2018-10-15T20:32:03.072768Z,-1.220337,-0.19043,0.807434
2018-10-15T20:32:03.273768Z,-0.124573,0.335938,0.12262
2018-10-15T20:32:03.666768Z,-0.100647,0.890808,0.117737
