Datetime,accx,accy,accz
2018-10-10T23:00:03.754097Z,0.0,0.0,0.0
2018-10-10T23:00:03.910097Z,-0.013475999999999998,0.146504,-0.078585
2018-10-10T23:00:04.204097Z,-0.085457,0.045176999999999995,0.135569
2018-10-10T23:00:04.377097Z,0.21032399999999998,-0.103048,0.352688
2018-10-10T23:00:04.574097Z,-0.084953,-0.549668,0.439935
2018-10-10T23:00:04.795097Z,-0.361087,-0.9985440000000001,-0.47442
2018-10-10T23:00:04.978097Z,-0.286929,0.05537,-0.73124
2018-10-10T23:00:05.174097Z,0.574919,0.178048,0.495824
2018-10-10T23:00:05.374097Z,0.41784899999999997,0.904553,0.5175029999999999
2018-10-10T23:00:05.575097Z,0.394233,-1.0885049999999998,-0.026286
2018-10-10T23:00:05.775097Z,0.333284,-0.610002,-0.739925
2018-10-10T23:00:05.972097Z,-0.20286500000000002,0.013973,0.5462779999999999
2018-10-10T23:00:06.175097Z,0.196028,-0.394189,0.8619600000000001
2018-10-10T23:00:06.419097Z,0.37932,-0.899906,-0.7180340000000001
2018-10-10T23:00:06.576097Z,-0.057624,-0.342085,0.040871
2018-10-10T23:00:06.799097Z,0.148247,-0.383319,0.9716889999999999
2018-10-10T23:00:06.979097Z,0.467973,-0.819685,-0.514332
2018-10-10T23:00:07.180097Z,0.317996,-0.214821,-0.913795
2018-10-10T23:00:07.376097Z,-0.6788890000000001,0.805461,0.457217
2018-10-10T23:00:07.575097Z,0.32648,-0.239092,1.216008
2018-10-10T23:00:07.776097Z,-0.073475,-0.063301,-1.321091
2018-10-10T23:00:07.975097Z,0.081317,0.17544,0.167325
2018-10-10T23:00:08.175097Z,-0.174595,-0.306265,1.032632
2018-10-10T23:00:08.375097Z,0.044072,-1.288027,-0.587915
2018-10-10T23:00:08.576097Z,-0.358914,-0.068948,-0.9332280000000001
2018-10-10T23:00:08.791097Z,0.16858399999999998,0.42808500000000005,1.3031139999999999
2018-10-10T23:00:08.999097Z,0.270521,-1.238055,1.068459
2018-10-10T23:00:09.177097Z,-0.18074400000000002,-1.040247,-1.225266
2018-10-10T23:00:09.377097Z,-0.133825,0.08959500000000001,-0.300471
2018-10-10T23:00:09.577097Z,0.239981,0.05295,1.1943629999999998
2018-10-10T23:00:09.778097Z,0.216531,-0.583166,0.015957
2018-10-10T23:00:09.975097Z,0.485408,0.166338,-1.255667
2018-10-10T23:00:10.176097Z,-0.159428,0.684808,0.393726
2018-10-10T23:00:10.375097Z,-0.212245,-0.55093,1.236608
2018-10-10T23:00:10.576097Z,-0.535412,-1.0957139999999999,-1.004315
2018-10-10T23:00:10.779097Z,-0.12971400000000002,0.29907100000000003,-0.45051
2018-10-10T23:00:10.978097Z,0.335431,0.965399,0.7737109999999999
2018-10-10T23:00:11.180097Z,0.8029430000000001,-1.272748,0.640575
2018-10-10T23:00:11.376097Z,0.064329,-0.36054200000000003,-1.211101
2018-10-10T23:00:11.576097Z,0.403873,0.151657,0.243792
2018-10-10T23:00:11.796097Z,0.992661,-0.67877,1.9647150000000002
2018-10-10T23:00:12.000097Z,1.829379,-2.005227,-0.160439
2018-10-10T23:00:12.179097Z,1.390477,-1.019531,-0.184352
2018-10-10T23:00:12.379097Z,0.12726300000000001,-0.192555,0.115087
2018-10-10T23:00:12.579097Z,-0.430335,-0.7840239999999999,0.871532
2018-10-10T23:00:12.778097Z,0.833393,-1.454421,0.09112
2018-10-10T23:00:12.977097Z,0.20147,-0.43679300000000004,-0.27589
2018-10-10T23:00:13.179097Z,-0.274214,-0.12546400000000002,0.379907
2018-10-10T23:00:13.379097Z,-0.438147,-0.9318280000000001,0.884711
2018-10-10T23:00:13.580097Z,-0.122886,-1.118158,-0.763464
2018-10-10T23:00:13.781097Z,-0.068521,0.123313,-0.44778
2018-10-10T23:00:13.980097Z,0.317108,-0.279344,1.7187299999999999
2018-10-10T23:00:14.179097Z,1.0277399999999999,-1.7434900000000002,0.31288499999999997
2018-10-10T23:00:14.379097Z,-0.070525,-0.637808,-1.288602
2018-10-10T23:00:14.580097Z,-0.658633,-0.367314,1.055943
2018-10-10T23:00:14.779097Z,-0.511397,-1.198762,0.7070930000000001
2018-10-10T23:00:14.982097Z,-0.47934399999999994,-0.905982,-0.999286
2018-10-10T23:00:15.180097Z,-0.169345,0.549995,-0.18190699999999999
2018-10-10T23:00:15.382097Z,-0.082826,-0.728326,1.5357459999999998
2018-10-10T23:00:15.581097Z,0.51057,-1.4900440000000001,0.131993
2018-10-10T23:00:15.782097Z,0.08926,-0.346746,-0.930192
2018-10-10T23:00:15.982097Z,0.142673,0.310677,0.433109
2018-10-10T23:00:16.185097Z,-0.141541,-0.608492,1.274953
2018-10-10T23:00:16.381097Z,0.070655,-0.767216,-0.506872
2018-10-10T23:00:16.580097Z,-0.11009000000000001,-0.32316500000000004,-0.300819
2018-10-10T23:00:16.780097Z,-0.102013,0.048958,0.45533999999999997
2018-10-10T23:00:16.981097Z,0.666953,-0.503278,0.8229190000000001
2018-10-10T23:00:17.181097Z,0.21066999999999997,-0.781674,-0.311803
2018-10-10T23:00:17.382097Z,0.310992,-0.220507,-0.23398000000000002
2018-10-10T23:00:17.582097Z,0.021204,0.253843,0.402014
2018-10-10T23:00:17.812097Z,0.020641999999999997,-0.48635200000000006,0.271554
2018-10-10T23:00:17.983097Z,-0.679272,-0.59302,-0.505888
2018-10-10T23:00:18.184097Z,-0.522517,0.005029,-0.16735799999999998
2018-10-10T23:00:18.383097Z,0.158083,0.26938,0.312738
2018-10-10T23:00:18.582097Z,1.171965,-0.691016,0.818277
2018-10-10T23:00:18.782097Z,0.110367,-0.047819,-0.9604729999999999
2018-10-10T23:00:18.983097Z,0.334052,0.5493020000000001,-0.165719
2018-10-10T23:00:19.184097Z,-0.313958,-0.283875,1.548805
2018-10-10T23:00:19.395097Z,-0.50548,-1.383524,0.124358
2018-10-10T23:00:19.585097Z,-0.006258,-0.5383600000000001,-0.7684300000000001
2018-10-10T23:00:19.784097Z,-0.002277,-0.19772699999999999,0.368892
2018-10-10T23:00:19.984097Z,-0.025954,-0.590288,0.757047
2018-10-10T23:00:20.194097Z,0.139485,-0.735441,-0.446482
2018-10-10T23:00:20.400097Z,-0.704869,0.173381,-0.752153
2018-10-10T23:00:20.601097Z,-0.631308,0.45288500000000004,0.28737399999999996
2018-10-10T23:00:20.785097Z,-0.667937,-0.5123270000000001,1.288527
2018-10-10T23:00:20.986097Z,-0.31902600000000003,-0.978951,-0.54828
2018-10-10T23:00:21.186097Z,0.17753,0.130432,-0.741406
2018-10-10T23:00:21.385097Z,-0.08108,0.372037,0.584056
2018-10-10T23:00:21.585097Z,-0.188958,-0.393279,1.007893
2018-10-10T23:00:21.787097Z,0.576435,-1.009377,0.09896
2018-10-10T23:00:21.987097Z,-0.268435,-0.617203,-0.380755
2018-10-10T23:00:22.187097Z,-0.419501,0.177958,-0.26248299999999997
2018-10-10T23:00:22.386097Z,0.395214,-0.32603699999999997,0.514601
2018-10-10T23:00:22.587097Z,1.125285,-0.689084,0.305133
2018-10-10T23:00:22.787097Z,0.840842,-0.098333,0.037825
2018-10-10T23:00:23.036097Z,0.278013,0.076713,-0.028349
2018-10-10T23:00:23.187097Z,0.625318,-0.867192,0.872124
2018-10-10T23:00:23.387097Z,1.089439,-0.290049,-0.028584
2018-10-10T23:00:23.589097Z,0.653684,0.19398900000000002,0.374594
2018-10-10T23:00:23.791097Z,1.130276,0.150778,0.040285
2018-10-10T23:00:24.032097Z,1.004257,0.44818800000000003,-0.34425700000000004
2018-10-10T23:00:24.192097Z,1.044549,0.779625,-0.165911
2018-10-10T23:00:24.392097Z,1.257447,0.677834,-0.20603600000000002
2018-10-10T23:00:24.634097Z,0.907824,0.215732,0.013588999999999999
2018-10-10T23:00:24.790097Z,0.638971,0.11246199999999999,-0.040244999999999996
2018-10-10T23:00:24.990097Z,0.243713,0.20606,-0.017454
2018-10-10T23:00:25.193097Z,0.313382,0.231791,0.06029400000000001
2018-10-10T23:00:25.392097Z,0.42097799999999996,0.044077,-0.051833000000000004
2018-10-10T23:00:25.589097Z,0.626794,0.123082,0.165245
2018-10-10T23:00:25.793097Z,0.634359,0.0979,-0.019186
2018-10-10T23:00:25.990097Z,0.004595,-0.122368,-0.05753200000000001
2018-10-10T23:00:26.190097Z,0.300369,0.10367699999999999,-0.042477999999999995
2018-10-10T23:00:26.392097Z,0.10491199999999999,0.03261,-0.012712000000000001
2018-10-10T23:00:26.590097Z,0.45501400000000003,0.091563,0.03721
2018-10-10T23:00:26.790097Z,0.495179,0.282181,0.005602
2018-10-10T23:00:27.009097Z,-0.055321,-0.024233,0.102123
2018-10-10T23:00:27.191097Z,0.13706,0.24342600000000003,-0.23861300000000002
2018-10-10T23:00:27.395097Z,-0.181584,-0.188922,0.13996
2018-10-10T23:00:27.591097Z,0.082263,-0.103173,0.097428
2018-10-10T23:00:27.827097Z,0.114482,-0.037098,0.021036000000000003
2018-10-10T23:00:27.989097Z,0.437741,0.026808,0.021044999999999998
2018-10-10T23:00:28.221097Z,0.289473,-0.256206,0.23848699999999998
2018-10-10T23:00:28.391097Z,0.629151,-0.339119,0.047893
2018-10-10T23:00:28.591097Z,1.141468,0.015013999999999998,-0.042581
2018-10-10T23:00:28.791097Z,1.103219,0.195444,0.150881
2018-10-10T23:00:28.992097Z,0.72006,0.134669,0.266164
2018-10-10T23:00:29.192097Z,0.61364,0.214594,-0.030437
2018-10-10T23:00:29.392097Z,0.484275,0.083634,0.160327
2018-10-10T23:00:29.592097Z,0.530409,0.024554,-0.004031
2018-10-10T23:00:29.808097Z,0.438162,0.15445899999999999,-0.045013
2018-10-10T23:00:30.007097Z,0.261248,0.108626,0.088621
2018-10-10T23:00:30.192097Z,0.8415879999999999,-0.011475,0.126174
2018-10-10T23:00:30.393097Z,0.74388,-0.085704,-0.023425
2018-10-10T23:00:30.594097Z,0.7346229999999999,-0.364255,0.24648299999999998
2018-10-10T23:00:30.813097Z,-0.16004300000000002,-0.300874,-0.15474100000000002
2018-10-10T23:00:30.993097Z,-0.767187,-0.091641,0.31481
2018-10-10T23:00:31.194097Z,-0.440352,-0.364691,0.259349
2018-10-10T23:00:31.394097Z,0.01784,-0.31390100000000004,0.045745
2018-10-10T23:00:31.595097Z,-0.054041,-0.391702,0.261191
2018-10-10T23:00:31.795097Z,0.376506,-0.358532,0.018553999999999998
2018-10-10T23:00:31.994097Z,0.333503,-0.5698350000000001,0.338062
2018-10-10T23:00:32.195097Z,0.651961,-0.7570859999999999,0.27528600000000003
2018-10-10T23:00:32.398097Z,0.18556,-0.8329030000000001,0.3445
2018-10-10T23:00:32.595097Z,-0.048317,-0.643227,0.525451
2018-10-10T23:00:32.793097Z,-0.569563,-0.34173600000000004,0.12268499999999999
2018-10-10T23:00:32.994097Z,-0.10905999999999999,-0.338901,0.266355
2018-10-10T23:00:33.195097Z,0.18967,-0.650701,0.41204300000000005
2018-10-10T23:00:33.396097Z,0.459766,-0.256707,-0.407275
2018-10-10T23:00:33.596097Z,-0.5595060000000001,0.13033599999999998,0.039639
2018-10-10T23:00:33.799097Z,-0.853404,0.030106,0.5472239999999999
2018-10-10T23:00:33.996097Z,-0.044686000000000003,-0.020119,1.193094
2018-10-10T23:00:34.198097Z,0.9621069999999999,-1.3876899999999999,0.547718
2018-10-10T23:00:34.397097Z,0.256058,-1.395853,-0.49390100000000003
2018-10-10T23:00:34.596097Z,1.037132,-0.450492,-0.280123
2018-10-10T23:00:34.821097Z,0.44738199999999995,0.465447,-0.244668
2018-10-10T23:00:35.013097Z,0.203155,0.455125,0.913889
2018-10-10T23:00:35.196097Z,0.105484,-1.640255,0.682077
2018-10-10T23:00:35.402097Z,0.479084,-1.013526,-0.32098499999999996
2018-10-10T23:00:35.599097Z,-0.46716499999999994,0.023019,-0.44869
2018-10-10T23:00:35.796097Z,-0.44283999999999996,0.6039359999999999,0.461021
2018-10-10T23:00:35.997097Z,0.435097,-0.7188859999999999,1.4680520000000001
2018-10-10T23:00:36.198097Z,1.221566,-1.1277139999999999,-0.628564
2018-10-10T23:00:36.397097Z,0.771889,-0.256793,-0.126005
2018-10-10T23:00:36.598097Z,0.392086,0.18632100000000001,0.14896099999999998
2018-10-10T23:00:36.799097Z,0.19484500000000002,-0.172938,0.839548
2018-10-10T23:00:36.997097Z,0.377313,-1.9678200000000001,1.058132
2018-10-10T23:00:37.198097Z,0.438967,-1.1403159999999999,-0.568233
2018-10-10T23:00:37.397097Z,0.02401,-0.112973,-0.153909
2018-10-10T23:00:37.598097Z,-0.072589,0.6546420000000001,0.360335
2018-10-10T23:00:37.799097Z,-0.7609239999999999,-0.708809,1.3725459999999998
2018-10-10T23:00:37.999097Z,-0.785335,-1.7461919999999997,-0.18696300000000002
2018-10-10T23:00:38.199097Z,-0.321748,-0.793931,-0.061217999999999995
2018-10-10T23:00:38.401097Z,-0.082439,-0.230525,0.34964
2018-10-10T23:00:38.676097Z,0.48385900000000004,-0.158594,0.185885
2018-10-10T23:00:38.798097Z,-0.010598,0.643785,-0.652623
2018-10-10T23:00:38.999097Z,0.503791,0.664888,0.5040979999999999
2018-10-10T23:00:39.199097Z,0.482638,-0.29186100000000004,0.430091
2018-10-10T23:00:39.399097Z,0.9263440000000001,-0.8615510000000001,-0.072643
2018-10-10T23:00:39.599097Z,0.758845,0.355008,-0.632127
2018-10-10T23:00:39.799097Z,0.424713,0.496795,0.334498
2018-10-10T23:00:39.999097Z,-0.7693,-0.184612,1.153878
2018-10-10T23:00:40.200097Z,0.063193,-1.4675120000000001,0.20499299999999998
2018-10-10T23:00:40.401097Z,-0.491015,-0.193165,-0.815559
2018-10-10T23:00:40.600097Z,-0.666155,0.377728,0.10770899999999999
2018-10-10T23:00:40.801097Z,-0.038168,0.106456,0.788679
2018-10-10T23:00:41.000097Z,0.41975,-1.2146569999999999,0.5204880000000001
2018-10-10T23:00:41.239097Z,0.397123,-0.570221,-0.6867989999999999
2018-10-10T23:00:41.401097Z,-0.5871529999999999,0.241569,-0.17642
2018-10-10T23:00:41.600097Z,-1.1491040000000001,0.457325,0.696471
2018-10-10T23:00:41.800097Z,-0.9840129999999999,-0.9090450000000001,0.424321
2018-10-10T23:00:42.018097Z,-1.648078,-0.663971,-0.5227
2018-10-10T23:00:42.203097Z,-0.7248560000000001,-0.319415,-0.015882
2018-10-10T23:00:42.402097Z,0.261337,0.12756199999999998,0.6128399999999999
2018-10-10T23:00:42.603097Z,0.33981,-0.068699,0.644246
2018-10-10T23:00:42.802097Z,0.844226,-1.026406,0.152594
2018-10-10T23:00:43.020097Z,0.989002,-0.526468,-0.425296
2018-10-10T23:00:43.211097Z,0.807754,0.223811,0.290319
2018-10-10T23:00:43.402097Z,0.8447020000000001,0.799937,0.40007600000000004
2018-10-10T23:00:43.628097Z,1.394633,-0.38711599999999996,0.350579
2018-10-10T23:00:43.818097Z,1.5076889999999998,-0.313875,-0.5533939999999999
2018-10-10T23:00:44.018097Z,1.370786,0.12577,0.173894
2018-10-10T23:00:44.202097Z,1.439921,0.39211799999999997,0.39984200000000003
2018-10-10T23:00:44.404097Z,1.076429,-0.7324930000000001,0.775509
2018-10-10T23:00:44.603097Z,1.897344,-0.518029,-0.23916300000000001
2018-10-10T23:00:44.805097Z,0.445196,-0.5384439999999999,-0.207798
2018-10-10T23:00:45.003097Z,-1.428731,-0.36544899999999997,0.78346
2018-10-10T23:00:45.205097Z,-0.341092,-0.618953,0.8970969999999999
2018-10-10T23:00:45.405097Z,0.222733,-0.7919149999999999,-0.054534000000000006
2018-10-10T23:00:45.603097Z,-0.133104,-0.622358,-0.512049
2018-10-10T23:00:45.807097Z,-0.14871800000000002,0.30656500000000003,0.06005
2018-10-10T23:00:46.004097Z,0.05266900000000001,-0.141352,1.339648
2018-10-10T23:00:46.206097Z,0.026998,-1.5282129999999998,-0.172306
2018-10-10T23:00:46.404097Z,0.260679,-0.45782399999999995,-1.126433
2018-10-10T23:00:46.607097Z,-0.9707319999999999,0.42718599999999995,0.794549
2018-10-10T23:00:46.805097Z,-0.389585,0.11878599999999999,1.054794
2018-10-10T23:00:47.005097Z,0.729671,-1.685891,0.091145
2018-10-10T23:00:47.206097Z,0.929085,-0.564268,-0.364503
2018-10-10T23:00:47.407097Z,0.49000699999999997,0.279463,-0.181313
2018-10-10T23:00:47.607097Z,0.579387,-0.412592,0.811587
2018-10-10T23:00:47.807097Z,1.9366830000000002,-1.335181,0.7952899999999999
2018-10-10T23:00:48.024097Z,0.9158709999999999,-1.199561,0.521138
2018-10-10T23:00:48.207097Z,-0.152623,-0.49103,-0.23438
2018-10-10T23:00:48.406097Z,-0.713149,-0.189687,0.624034
2018-10-10T23:00:48.607097Z,-0.48443800000000004,-0.964659,0.814272
2018-10-10T23:00:48.807097Z,0.91405,-1.875257,0.319734
2018-10-10T23:00:49.007097Z,0.294108,-0.880417,-0.417904
2018-10-10T23:00:49.209097Z,0.640388,0.233778,0.21662199999999998
2018-10-10T23:00:49.406097Z,-0.31214899999999995,0.392295,0.549184
2018-10-10T23:00:49.607097Z,-0.314425,-1.2945229999999999,0.776654
2018-10-10T23:00:49.807097Z,0.0034630000000000004,-1.348758,-0.7071
2018-10-10T23:00:50.008097Z,-0.290353,-0.202245,0.034968
2018-10-10T23:00:50.208097Z,-0.32201,0.19008,0.875849
2018-10-10T23:00:50.410097Z,0.378486,-1.055079,0.44449099999999997
2018-10-10T23:00:50.609097Z,0.572515,-0.987978,-0.080706
2018-10-10T23:00:50.810097Z,0.56822,-0.323562,-0.036947
2018-10-10T23:00:51.009097Z,0.247864,0.023252000000000002,0.7460220000000001
2018-10-10T23:00:51.222097Z,0.389542,-0.823255,0.013296
2018-10-10T23:00:51.409097Z,-0.613115,-0.217631,-0.9497559999999999
2018-10-10T23:00:51.609097Z,-0.739124,0.09552100000000001,0.336185
2018-10-10T23:00:51.808097Z,-0.43258599999999997,-0.394737,1.2264389999999998
2018-10-10T23:00:52.009097Z,0.67111,-1.089954,-0.035047
2018-10-10T23:00:52.209097Z,0.072635,-0.508858,-0.9597209999999999
2018-10-10T23:00:52.409097Z,0.027358999999999998,0.61287,-0.39963200000000004
2018-10-10T23:00:52.610097Z,-0.344513,0.431853,1.596922
2018-10-10T23:00:52.811097Z,0.629667,-1.351551,0.505676
2018-10-10T23:00:53.098097Z,0.8216629999999999,-1.135033,-0.47797
2018-10-10T23:00:53.275097Z,0.115297,0.6161810000000001,-0.661862
2018-10-10T23:00:53.410097Z,-1.245179,0.817604,0.772559
2018-10-10T23:00:53.649097Z,0.57968,-0.950996,0.566774
2018-10-10T23:00:53.810097Z,0.576708,-0.879581,-0.538921
2018-10-10T23:00:54.010097Z,0.077676,-0.044166000000000004,-0.519908
2018-10-10T23:00:54.212097Z,-0.339751,0.363716,1.399722
2018-10-10T23:00:54.421097Z,0.66295,-0.8901379999999999,0.654787
2018-10-10T23:00:54.611097Z,0.171371,-0.9119870000000001,-0.651982
2018-10-10T23:00:54.812097Z,1.065585,-0.6273880000000001,0.013863999999999998
2018-10-10T23:00:55.013097Z,1.199777,-0.094583,0.922426
2018-10-10T23:00:55.211097Z,0.20147,-0.9816469999999999,0.58358
2018-10-10T23:00:55.413097Z,0.110278,-0.686032,-0.016493999999999998
2018-10-10T23:00:55.612097Z,0.062872,-0.119523,-0.539935
2018-10-10T23:00:55.812097Z,-0.49827299999999997,-0.156477,1.091677
2018-10-10T23:00:56.013097Z,0.161807,-1.7341790000000001,0.9179430000000001
2018-10-10T23:00:56.212097Z,0.532706,-0.953849,-0.414994
2018-10-10T23:00:56.413097Z,0.763465,-0.394883,0.268984
2018-10-10T23:00:56.627097Z,0.266079,-0.579263,1.0422
2018-10-10T23:00:56.895097Z,1.237924,-1.561628,0.805516
2018-10-10T23:00:57.012097Z,0.202507,-0.6197239999999999,-0.759434
2018-10-10T23:00:57.244097Z,0.017411000000000003,0.22806500000000002,0.41639799999999993
2018-10-10T23:00:57.414097Z,-0.8440120000000001,-0.9195760000000001,1.24831
2018-10-10T23:00:57.613097Z,-0.372237,-1.1840549999999999,-0.42417200000000005
2018-10-10T23:00:57.814097Z,-0.07586799999999999,-0.16076700000000002,-0.251347
2018-10-10T23:00:58.015097Z,-0.216877,0.17873599999999998,0.8679520000000001
2018-10-10T23:00:58.215097Z,0.178288,-0.92522,0.700902
2018-10-10T23:00:58.416097Z,0.039176,-1.069964,0.117069
2018-10-10T23:00:58.615097Z,0.748789,-0.598643,-0.055163
2018-10-10T23:00:58.815097Z,-0.011731,-0.01659,0.846211
2018-10-10T23:00:59.057097Z,0.41602,-1.14949,0.294618
2018-10-10T23:00:59.215097Z,-0.21250500000000003,-0.48249899999999996,-0.961936
2018-10-10T23:00:59.414097Z,-0.415203,0.703224,-0.000139
2018-10-10T23:00:59.631097Z,-0.6197779999999999,0.231796,0.704382
2018-10-10T23:00:59.815097Z,0.343458,-1.119373,0.40878600000000004
2018-10-10T23:01:00.015097Z,0.21999499999999997,-0.30348600000000003,-0.696407
2018-10-10T23:01:00.216097Z,0.159121,0.399542,-0.207317
2018-10-10T23:01:00.416097Z,-0.049597,0.456863,0.952599
2018-10-10T23:01:00.616097Z,0.002437,-1.284718,0.38205900000000004
2018-10-10T23:01:00.816097Z,0.21971999999999997,-0.521763,-0.44921700000000003
2018-10-10T23:01:01.026097Z,-0.22541799999999998,0.320944,0.224374
2018-10-10T23:01:01.217097Z,0.5296350000000001,0.085109,0.974391
2018-10-10T23:01:01.478097Z,1.339747,-1.033444,-0.250342
2018-10-10T23:01:01.617097Z,-0.37271,0.186928,-1.066508
2018-10-10T23:01:01.817097Z,-0.636245,0.421498,0.272481
2018-10-10T23:01:02.017097Z,-0.640817,-0.179002,1.219916
2018-10-10T23:01:02.216097Z,-0.13742200000000002,-0.79384,0.01438
2018-10-10T23:01:02.418097Z,-0.23936100000000002,-0.209071,-0.710072
2018-10-10T23:01:02.619097Z,0.128882,0.385446,0.468253
2018-10-10T23:01:02.819097Z,0.333334,-0.410317,0.7874439999999999
2018-10-10T23:01:03.046097Z,1.017482,-0.693754,-0.32424200000000003
2018-10-10T23:01:03.218097Z,0.07585800000000001,0.282461,-0.576608
2018-10-10T23:01:03.435097Z,-1.049202,0.31693000000000005,0.498561
2018-10-10T23:01:03.618097Z,-0.509968,-0.618741,0.6327659999999999
2018-10-10T23:01:03.819097Z,-0.070659,-0.775781,-0.45041099999999995
2018-10-10T23:01:04.020097Z,-0.32718600000000003,0.227726,-0.31871900000000003
2018-10-10T23:01:04.220097Z,-0.309748,0.59843,0.777099
2018-10-10T23:01:04.421097Z,0.56279,-0.851518,0.30540700000000004
2018-10-10T23:01:04.620097Z,0.081527,-0.321002,-0.673816
2018-10-10T23:01:04.821097Z,-0.162684,0.110648,0.213858
2018-10-10T23:01:05.029097Z,0.006051,0.081566,1.062816
2018-10-10T23:01:05.223097Z,-0.123617,-0.749079,-0.073442
2018-10-10T23:01:05.419097Z,-0.47762200000000005,0.13300499999999998,-0.8941950000000001
2018-10-10T23:01:05.620097Z,-0.425129,0.9807290000000001,0.26573
2018-10-10T23:01:05.823097Z,0.297548,-0.238254,0.702112
2018-10-10T23:01:06.020097Z,0.609907,-0.707435,-0.401594
2018-10-10T23:01:06.221097Z,0.23768699999999998,0.196914,-0.690859
2018-10-10T23:01:06.421097Z,-0.034322000000000005,0.8269719999999999,0.917222
2018-10-10T23:01:06.620097Z,-0.630795,-0.531293,0.217257
2018-10-10T23:01:06.839097Z,-0.345451,-0.547905,-0.423074
2018-10-10T23:01:07.022097Z,0.114676,0.494946,-0.129925
2018-10-10T23:01:07.221097Z,0.105821,0.656777,0.48474300000000003
2018-10-10T23:01:07.463097Z,0.004953,-0.8270270000000001,0.38697
2018-10-10T23:01:07.622097Z,-0.5899439999999999,-0.289604,-0.821342
2018-10-10T23:01:07.821097Z,-0.609112,0.824967,-0.7247600000000001
2018-10-10T23:01:08.023097Z,-0.23687199999999997,0.6447729999999999,0.596071
2018-10-10T23:01:08.222097Z,-0.265932,-0.647071,0.44582
2018-10-10T23:01:08.471097Z,0.48529399999999995,-0.154092,-0.32798299999999997
2018-10-10T23:01:08.623097Z,-0.05032,0.319198,0.029858999999999997
2018-10-10T23:01:08.823097Z,-0.074236,0.094944,0.46211899999999995
2018-10-10T23:01:09.024097Z,1.526345,-0.23203600000000002,-0.677726
2018-10-10T23:01:09.234097Z,0.645977,0.22072199999999997,-0.271163
2018-10-10T23:01:09.438097Z,0.570242,0.887016,-0.365977
2018-10-10T23:01:09.623097Z,-0.721496,0.529784,0.756197
2018-10-10T23:01:09.823097Z,1.091277,-0.747699,0.022825
2018-10-10T23:01:10.040097Z,1.094558,0.087416,-0.512121
2018-10-10T23:01:10.224097Z,0.088141,0.490989,0.19993699999999998
2018-10-10T23:01:10.425097Z,-0.094592,-0.43588999999999994,1.133304
2018-10-10T23:01:10.645097Z,1.211783,-1.4000700000000001,0.157529
2018-10-10T23:01:10.845097Z,0.472405,-0.350218,-0.9087930000000001
2018-10-10T23:01:11.025097Z,0.529646,0.7835949999999999,0.125576
2018-10-10T23:01:11.225097Z,0.52657,-1.011215,1.3545040000000002
2018-10-10T23:01:11.424097Z,1.246593,-1.602992,0.492587
2018-10-10T23:01:11.626097Z,0.781589,-1.0418100000000001,0.134509
2018-10-10T23:01:11.826097Z,-0.09272899999999999,-0.299268,0.423079
2018-10-10T23:01:12.025097Z,-0.554103,-0.520684,1.217093
2018-10-10T23:01:12.227097Z,0.318504,-1.9735049999999998,0.718518
2018-10-10T23:01:12.426097Z,-0.052336,-0.8299,-0.5846359999999999
2018-10-10T23:01:12.627097Z,0.407935,0.051705999999999995,0.301058
2018-10-10T23:01:12.845097Z,0.023679,-0.316784,1.180202
2018-10-10T23:01:13.025097Z,0.150059,-1.51641,0.391795
2018-10-10T23:01:13.226097Z,0.383242,-0.628447,-0.9124680000000001
2018-10-10T23:01:13.427097Z,-0.389588,0.415847,0.8445600000000001
2018-10-10T23:01:13.626097Z,-0.52275,-0.7287140000000001,1.7413150000000002
2018-10-10T23:01:13.827097Z,0.22594899999999998,-1.863696,-0.314137
2018-10-10T23:01:14.026097Z,-0.5035189999999999,-0.860555,-0.617957
2018-10-10T23:01:14.226097Z,-1.117108,0.052585,0.295064
2018-10-10T23:01:14.426097Z,-1.820441,-0.6732819999999999,1.403155
2018-10-10T23:01:14.626097Z,-0.8142510000000001,-1.404981,-0.49533999999999995
2018-10-10T23:01:14.827097Z,-0.31408600000000003,-0.24557199999999998,-0.047251999999999995
2018-10-10T23:01:15.029097Z,0.729751,0.829887,0.873951
2018-10-10T23:01:15.228097Z,0.345219,0.045219,0.516991
2018-10-10T23:01:15.428097Z,-0.310275,-0.904184,-0.982483
2018-10-10T23:01:15.651097Z,0.008655,0.27574499999999996,-0.5233140000000001
2018-10-10T23:01:15.828097Z,-0.8232870000000001,0.36033000000000004,0.600007
2018-10-10T23:01:16.044097Z,-0.37545,-0.522744,0.42073699999999997
2018-10-10T23:01:16.228097Z,-0.382904,-0.751638,-0.314254
2018-10-10T23:01:16.429097Z,0.398746,-0.215102,0.48279099999999997
2018-10-10T23:01:16.629097Z,0.945737,0.502462,0.536266
2018-10-10T23:01:16.829097Z,1.500891,-0.794027,0.316983
2018-10-10T23:01:17.029097Z,0.973398,-0.47406499999999996,-0.73023
2018-10-10T23:01:17.298097Z,1.106087,0.28513299999999997,0.129623
2018-10-10T23:01:17.440097Z,1.158699,0.568666,0.34511
2018-10-10T23:01:17.693097Z,1.596368,-1.0313450000000002,1.360002
2018-10-10T23:01:17.830097Z,1.169959,-0.781388,-0.737115
2018-10-10T23:01:18.030097Z,1.162786,0.34222600000000003,0.070783
2018-10-10T23:01:18.231097Z,0.353011,0.679374,0.8209120000000001
2018-10-10T23:01:18.432097Z,0.700067,-0.9700799999999999,0.379206
2018-10-10T23:01:18.630097Z,0.426491,-0.699609,-1.39005
2018-10-10T23:01:18.830097Z,0.174407,0.788991,-0.15223299999999998
2018-10-10T23:01:19.030097Z,0.248058,0.6401319999999999,1.099844
2018-10-10T23:01:19.259097Z,0.747056,-1.147055,0.910283
2018-10-10T23:01:19.430097Z,0.306152,-0.45223599999999997,-1.200525
2018-10-10T23:01:19.631097Z,0.618336,0.363297,0.378618
2018-10-10T23:01:19.831097Z,3.171176,-0.272453,1.377549
2018-10-10T23:01:20.032097Z,2.88265,-3.070981,1.525939
2018-10-10T23:01:20.233097Z,1.5623129999999998,-1.8616840000000001,-0.10968199999999999
2018-10-10T23:01:20.432097Z,-0.334685,0.138665,-0.516315
2018-10-10T23:01:20.633097Z,0.642263,-0.568523,2.007679
2018-10-10T23:01:20.833097Z,-1.02073,-1.787427,0.343742
2018-10-10T23:01:21.033097Z,-1.6818990000000003,-1.79643,-0.931124
2018-10-10T23:01:21.234097Z,0.891856,0.133411,0.263533
2018-10-10T23:01:21.432097Z,0.117279,0.8251879999999999,0.8356450000000001
2018-10-10T23:01:21.632097Z,1.170109,-1.225236,1.8871040000000001
2018-10-10T23:01:21.833097Z,0.307836,-1.637127,-1.2157040000000001
2018-10-10T23:01:22.033097Z,-0.172762,-0.486918,-0.07639
2018-10-10T23:01:22.235097Z,0.358545,0.23867199999999997,1.154418
2018-10-10T23:01:22.434097Z,0.17215899999999998,-0.920055,0.9148959999999999
2018-10-10T23:01:22.655097Z,0.132054,-1.786172,-0.094079
2018-10-10T23:01:22.833097Z,0.05436799999999999,-0.21038400000000002,-0.407438
2018-10-10T23:01:23.071097Z,-0.12126400000000001,0.395941,0.386816
2018-10-10T23:01:23.234097Z,0.118342,-0.372438,1.02063
2018-10-10T23:01:23.434097Z,0.140395,-1.156663,-0.394958
2018-10-10T23:01:23.634097Z,0.036231,-0.343588,0.25459699999999996
2018-10-10T23:01:23.872097Z,-0.290813,0.583908,0.505386
2018-10-10T23:01:24.073097Z,0.105525,-0.592017,0.168126
2018-10-10T23:01:24.234097Z,-0.105301,-0.690381,-0.48699499999999996
2018-10-10T23:01:24.442097Z,-0.157612,0.09335700000000001,0.023117
2018-10-10T23:01:24.650097Z,0.253091,-0.231884,1.440097
2018-10-10T23:01:24.836097Z,0.563294,-1.216741,-0.231971
2018-10-10T23:01:25.037097Z,0.630971,0.216538,-0.907576
2018-10-10T23:01:25.236097Z,0.534021,0.613224,0.751736
2018-10-10T23:01:25.508097Z,-0.101546,-0.9211870000000001,0.350599
2018-10-10T23:01:25.635097Z,0.030956,-0.31592800000000004,-0.854016
2018-10-10T23:01:25.861097Z,-0.345007,0.22629200000000002,0.455719
2018-10-10T23:01:26.044097Z,0.423687,-0.711337,1.4500790000000001
2018-10-10T23:01:26.248097Z,-0.225438,-1.702578,-0.43484399999999995
2018-10-10T23:01:26.455097Z,0.207963,-0.127201,-0.739559
2018-10-10T23:01:26.637097Z,0.22231599999999999,1.084194,0.8235459999999999
2018-10-10T23:01:26.838097Z,0.116678,-0.709106,0.816189
2018-10-10T23:01:27.100097Z,0.186697,-1.093191,-0.722472
2018-10-10T23:01:27.237097Z,0.486808,-0.282562,-0.10614200000000001
2018-10-10T23:01:27.442097Z,1.539601,-0.366571,1.7017099999999998
2018-10-10T23:01:27.637097Z,2.27064,-1.9738580000000001,0.326201
2018-10-10T23:01:27.838097Z,1.394967,-1.091816,-0.28124299999999997
2018-10-10T23:01:28.039097Z,0.389388,-0.17584,0.5093260000000001
2018-10-10T23:01:28.237097Z,-0.555351,-0.949471,1.302036
2018-10-10T23:01:28.469097Z,-0.280756,-1.140794,-0.603006
2018-10-10T23:01:28.638097Z,-0.984093,-0.32618400000000003,-0.118299
2018-10-10T23:01:28.853097Z,-2.5060849999999997,-0.8125439999999999,1.382509
2018-10-10T23:01:29.053097Z,-1.964741,-1.8200349999999998,0.631159
2018-10-10T23:01:29.239097Z,-1.291707,-0.8254790000000001,-0.475498
2018-10-10T23:01:29.439097Z,0.675292,-0.011594,1.010393
2018-10-10T23:01:29.641097Z,1.1612200000000001,0.449866,0.549088
2018-10-10T23:01:29.854097Z,0.6275390000000001,-1.105934,0.633513
2018-10-10T23:01:30.056097Z,0.086907,-0.33763899999999997,-1.1752040000000001
2018-10-10T23:01:30.240097Z,0.526876,0.349544,0.298113
2018-10-10T23:01:30.456097Z,1.150872,0.38260700000000003,0.886855
2018-10-10T23:01:30.690097Z,0.812267,-0.8088890000000001,-0.147977
2018-10-10T23:01:30.840097Z,1.171302,0.036858,-0.9586459999999999
2018-10-10T23:01:31.040097Z,1.0505149999999999,-0.034843,0.8356520000000001
2018-10-10T23:01:31.241097Z,1.630083,-1.229264,1.106688
2018-10-10T23:01:31.442097Z,1.6540549999999998,-1.4748940000000001,0.087738
2018-10-10T23:01:31.642097Z,0.608483,-0.694033,0.024143
2018-10-10T23:01:31.859097Z,-0.644564,-0.62336,0.748373
2018-10-10T23:01:32.041097Z,0.9436969999999999,-1.465091,1.007998
2018-10-10T23:01:32.242097Z,0.6717920000000001,-1.49719,-0.430338
2018-10-10T23:01:32.442097Z,0.598349,-0.639798,0.006547
2018-10-10T23:01:32.660097Z,1.008545,-0.426856,1.478883
2018-10-10T23:01:32.841097Z,0.08039400000000001,-1.836974,0.958656
2018-10-10T23:01:33.041097Z,0.896706,-1.4535790000000002,-0.558615
2018-10-10T23:01:33.242097Z,0.43382,-0.484142,0.020733
2018-10-10T23:01:33.442097Z,0.528519,-0.549665,1.452647
2018-10-10T23:01:33.673097Z,1.857005,-1.3597139999999999,0.327515
2018-10-10T23:01:33.859097Z,0.301653,-1.118982,-0.283148
2018-10-10T23:01:34.060097Z,-0.11583900000000001,-0.055678,0.420946
2018-10-10T23:01:34.242097Z,-0.7698510000000001,-0.796182,1.1758520000000001
2018-10-10T23:01:34.443097Z,-0.11701900000000001,-1.39555,-0.6538109999999999
2018-10-10T23:01:34.643097Z,-0.17058099999999998,-0.142188,-0.206697
2018-10-10T23:01:34.844097Z,-0.23013499999999998,0.054782000000000004,1.406226
2018-10-10T23:01:35.045097Z,0.5171140000000001,-1.570143,0.595125
2018-10-10T23:01:35.245097Z,-0.240002,-0.970348,-1.04883
2018-10-10T23:01:35.458097Z,-1.040685,0.215018,0.5411729999999999
2018-10-10T23:01:35.645097Z,-1.793726,-0.683882,1.032953
2018-10-10T23:01:35.854097Z,-0.984118,-1.495115,-0.583353
2018-10-10T23:01:36.047097Z,-0.4946,-0.005971,-0.18303599999999998
2018-10-10T23:01:36.244097Z,-0.023641,0.211774,0.75055
2018-10-10T23:01:36.445097Z,0.838741,-1.1272209999999998,0.7834220000000001
2018-10-10T23:01:36.646097Z,0.6342909999999999,-0.46275200000000005,-0.709476
2018-10-10T23:01:36.845097Z,0.567657,0.294699,0.061727
2018-10-10T23:01:37.082097Z,-0.131723,-0.464052,0.993498
2018-10-10T23:01:37.245097Z,-0.9189790000000001,-0.539141,-1.169023
2018-10-10T23:01:37.446097Z,-0.43887200000000004,-0.560971,0.7705770000000001
2018-10-10T23:01:37.645097Z,-0.134606,-0.44291099999999994,0.268932
2018-10-10T23:01:37.846097Z,-0.23468000000000003,-0.537248,0.513439
2018-10-10T23:01:38.048097Z,0.632872,-0.42856400000000006,-0.151363
2018-10-10T23:01:38.248097Z,0.9944799999999999,0.25066900000000003,-0.47767
2018-10-10T23:01:38.447097Z,1.120637,0.551463,0.210506
2018-10-10T23:01:38.647097Z,1.470389,0.44183,1.143526
2018-10-10T23:01:38.848097Z,0.82201,-0.8218129999999999,0.433479
2018-10-10T23:01:39.046097Z,0.9939399999999999,-0.745907,-0.48416499999999996
2018-10-10T23:01:39.246097Z,1.348276,0.353595,-0.45250100000000004
2018-10-10T23:01:39.447097Z,1.594157,0.17843699999999998,0.8934350000000001
2018-10-10T23:01:39.647097Z,1.316006,-1.0302870000000002,0.7146319999999999
2018-10-10T23:01:39.847097Z,1.044335,-0.941047,-0.311399
2018-10-10T23:01:40.047097Z,0.729238,0.385287,0.5602159999999999
2018-10-10T23:01:40.249097Z,-0.298387,0.09932,0.565316
2018-10-10T23:01:40.449097Z,0.066307,-0.712559,0.495
2018-10-10T23:01:40.649097Z,0.13634300000000002,-0.705425,-0.527227
2018-10-10T23:01:40.847097Z,-0.47784,0.278621,-0.735773
2018-10-10T23:01:41.048097Z,-1.378408,0.739388,0.5198689999999999
2018-10-10T23:01:41.249097Z,-1.838344,-1.542391,1.167514
2018-10-10T23:01:41.448097Z,-1.831752,-2.2214810000000003,-0.038172000000000005
2018-10-10T23:01:41.649097Z,-0.503899,-0.685665,-0.24474
2018-10-10T23:01:41.849097Z,0.25650700000000004,-0.264934,0.722178
2018-10-10T23:01:42.051097Z,1.7487700000000002,0.496453,0.312214
2018-10-10T23:01:42.250097Z,1.505643,-1.220788,0.618818
2018-10-10T23:01:42.464097Z,1.561715,0.11356300000000001,-0.655568
2018-10-10T23:01:42.665097Z,1.1843,0.458895,0.7540789999999999
2018-10-10T23:01:42.850097Z,1.804212,0.056758,0.842084
2018-10-10T23:01:43.049097Z,1.7783849999999999,-0.712424,-0.037468
2018-10-10T23:01:43.250097Z,0.563408,-0.17474800000000001,-0.105822
2018-10-10T23:01:43.450097Z,-0.15620799999999999,-0.24213099999999999,0.636779
2018-10-10T23:01:43.664097Z,-0.604821,-0.701448,0.7787930000000001
2018-10-10T23:01:43.864097Z,-0.513199,-1.030852,-0.555241
2018-10-10T23:01:44.052097Z,-0.08721,-0.130831,-0.037091000000000006
2018-10-10T23:01:44.251097Z,0.412577,0.246914,1.053125
2018-10-10T23:01:44.451097Z,0.350599,-1.2747979999999999,0.352274
2018-10-10T23:01:44.653097Z,0.968843,-1.0059770000000001,-0.196497
2018-10-10T23:01:44.852097Z,0.8300569999999999,-0.30942800000000004,0.040418
2018-10-10T23:01:45.051097Z,0.5438270000000001,-0.73524,0.9740700000000001
2018-10-10T23:01:45.253097Z,-0.09048400000000001,-1.527714,0.303237
2018-10-10T23:01:45.452097Z,0.466556,-0.762035,0.11615299999999999
2018-10-10T23:01:45.653097Z,-0.40810599999999997,-0.164773,0.110116
2018-10-10T23:01:45.853097Z,-0.146195,-0.111016,0.49628900000000004
2018-10-10T23:01:46.053097Z,1.240111,-1.1540110000000001,1.103643
2018-10-10T23:01:46.255097Z,1.206232,-1.30379,-0.457189
2018-10-10T23:01:46.452097Z,0.760572,-0.067354,-0.243959
2018-10-10T23:01:46.654097Z,-0.725535,-0.38834,1.385549
2018-10-10T23:01:46.867097Z,-1.0755350000000001,-1.53806,-0.276643
2018-10-10T23:01:47.053097Z,-0.722209,-0.613421,-0.600172
2018-10-10T23:01:47.254097Z,-0.474185,0.054351,0.404597
2018-10-10T23:01:47.453097Z,0.24763600000000002,0.21051599999999998,0.93491
2018-10-10T23:01:47.654097Z,0.8101729999999999,-1.730964,0.43966099999999997
2018-10-10T23:01:47.854097Z,-0.347027,-0.590216,-0.806625
2018-10-10T23:01:48.053097Z,-0.347472,0.054857,-0.062402
2018-10-10T23:01:48.254097Z,-1.869325,-0.40168400000000004,1.0110729999999999
2018-10-10T23:01:48.454097Z,-1.708762,-1.313884,-0.569282
2018-10-10T23:01:48.654097Z,-1.250931,-0.794501,-0.243673
2018-10-10T23:01:48.855097Z,-0.258044,-0.0018620000000000002,0.706705
2018-10-10T23:01:49.055097Z,0.598542,0.296192,0.637825
2018-10-10T23:01:49.255097Z,0.47427700000000006,-0.679974,-0.348856
2018-10-10T23:01:49.466097Z,0.412375,0.476038,-0.682251
2018-10-10T23:01:49.656097Z,0.450162,0.378794,0.701408
2018-10-10T23:01:49.854097Z,-0.131698,-0.49683299999999997,0.6294270000000001
2018-10-10T23:01:50.060097Z,-0.886345,-0.447029,-0.948993
2018-10-10T23:01:50.256097Z,-0.896284,-0.09057799999999999,0.417558
2018-10-10T23:01:50.455097Z,-0.347477,-0.044963,0.658449
2018-10-10T23:01:50.656097Z,0.040202999999999996,-0.9541200000000001,-0.112523
2018-10-10T23:01:50.857097Z,-0.028441,0.09463400000000001,-0.393748
2018-10-10T23:01:51.058097Z,1.286243,0.11273599999999999,0.355265
2018-10-10T23:01:51.259097Z,1.718525,0.151203,1.3461299999999998
2018-10-10T23:01:51.513097Z,1.6216270000000002,-0.9684159999999999,-0.061408000000000004
2018-10-10T23:01:51.657097Z,1.0161280000000001,-0.14138,-0.636353
2018-10-10T23:01:51.893097Z,0.44931800000000005,0.5844159999999999,0.560641
2018-10-10T23:01:52.057097Z,1.0615620000000001,-0.243923,0.47793800000000003
2018-10-10T23:01:52.258097Z,0.588917,-0.394893,-0.642466
2018-10-10T23:01:52.475097Z,1.16998,0.29972600000000005,-0.26299
2018-10-10T23:01:52.658097Z,0.916206,0.42643500000000006,0.95681
2018-10-10T23:01:52.856097Z,1.277698,-0.7757609999999999,0.563462
2018-10-10T23:01:53.058097Z,1.794872,-0.578114,-0.591004
2018-10-10T23:01:53.259097Z,1.579192,-0.3004,0.511889
2018-10-10T23:01:53.459097Z,1.553903,-1.0630190000000002,1.597342
2018-10-10T23:01:53.728097Z,1.169497,-1.072474,-0.368553
2018-10-10T23:01:53.863097Z,-0.49758100000000005,-1.016074,0.47701099999999996
2018-10-10T23:01:54.058097Z,0.11527899999999999,-0.510119,0.470075
2018-10-10T23:01:54.259097Z,-0.46251400000000004,-0.379651,-0.48371099999999995
2018-10-10T23:01:54.459097Z,-0.38455900000000004,-0.123793,0.15146099999999998
2018-10-10T23:01:54.660097Z,0.209812,0.398855,-0.190002
2018-10-10T23:01:54.861097Z,0.28836799999999996,0.420063,0.165825
2018-10-10T23:01:55.174097Z,0.663378,-1.059109,0.586688
2018-10-10T23:01:55.311097Z,0.692475,-0.680774,-0.08573099999999999
2018-10-10T23:01:55.460097Z,1.469501,-0.9778950000000001,0.808952
2018-10-10T23:01:55.661097Z,1.53251,-1.26835,0.8668969999999999
2018-10-10T23:01:55.861097Z,0.8576819999999999,-1.608263,0.41480500000000003
2018-10-10T23:01:56.097097Z,-0.195101,-0.76564,-0.25204499999999996
2018-10-10T23:01:56.262097Z,-0.805826,-0.596035,0.926459
2018-10-10T23:01:56.462097Z,-0.55734,-1.374742,0.6233850000000001
2018-10-10T23:01:56.711097Z,-0.559534,-1.240593,-0.515175
2018-10-10T23:01:56.861097Z,-3.349615,-0.857399,0.00561
2018-10-10T23:01:57.081097Z,-2.173393,-2.472037,0.95485
2018-10-10T23:01:57.261097Z,-0.658292,-3.7150519999999996,1.0064389999999999
2018-10-10T23:01:57.461097Z,-0.003246,-1.978271,0.714062
2018-10-10T23:01:57.663097Z,0.326052,-0.9153389999999999,0.618142
2018-10-10T23:01:57.862097Z,1.28282,-0.819262,1.159907
2018-10-10T23:01:58.078097Z,1.3154489999999999,-0.635288,-0.43712700000000004
2018-10-10T23:01:58.283097Z,1.477898,0.3737,-0.48065
2018-10-10T23:01:58.462097Z,0.759307,0.594009,0.6295390000000001
2018-10-10T23:01:58.676097Z,1.1779549999999999,-0.075873,1.016999
2018-10-10T23:01:58.877097Z,1.326614,-0.130711,-0.51828
2018-10-10T23:01:59.063097Z,0.963418,0.271065,-0.084776
2018-10-10T23:01:59.264097Z,0.707276,0.180366,1.0756709999999998
2018-10-10T23:01:59.464097Z,1.047625,-0.670884,0.422029
2018-10-10T23:01:59.663097Z,0.7794760000000001,-0.260067,-0.569604
2018-10-10T23:01:59.863097Z,0.746849,0.13176,0.262907
2018-10-10T23:02:00.064097Z,1.107257,-0.8034439999999999,1.196692
2018-10-10T23:02:00.264097Z,1.247327,-1.7396790000000002,0.8012319999999999
2018-10-10T23:02:00.465097Z,1.435516,-0.879076,0.395309
2018-10-10T23:02:00.665097Z,0.246761,0.162346,-0.42872
2018-10-10T23:02:00.865097Z,-0.690696,0.615047,-0.435222
2018-10-10T23:02:01.065097Z,-1.209626,0.34445,0.559197
2018-10-10T23:02:01.266097Z,-0.4325,0.21999000000000002,-0.18819
2018-10-10T23:02:01.466097Z,-0.41438500000000006,-0.094154,0.063443
2018-10-10T23:02:01.665097Z,0.785575,0.528636,0.436471
2018-10-10T23:02:01.878097Z,0.361766,-0.970124,0.603492
2018-10-10T23:02:02.115097Z,0.432713,-0.654418,-0.969714
2018-10-10T23:02:02.265097Z,0.487045,-0.067208,0.498487
2018-10-10T23:02:02.487097Z,1.171208,-1.467292,1.813509
2018-10-10T23:02:02.666097Z,1.781452,-2.156053,0.66367
2018-10-10T23:02:02.866097Z,0.20827800000000002,-1.395278,0.175733
2018-10-10T23:02:03.078097Z,0.36478,0.081348,-0.324556
2018-10-10T23:02:03.279097Z,-1.13723,-0.637352,1.260029
2018-10-10T23:02:03.466097Z,0.164774,-1.690784,0.977137
2018-10-10T23:02:03.668097Z,0.42203,-1.480383,0.078651
2018-10-10T23:02:03.866097Z,0.654285,-0.282804,-0.149866
2018-10-10T23:02:04.066097Z,-0.182877,0.024197,0.7307060000000001
2018-10-10T23:02:04.285097Z,-0.16811199999999998,-1.4915399999999999,1.012278
2018-10-10T23:02:04.467097Z,0.463109,-1.134044,-0.884142
2018-10-10T23:02:04.668097Z,0.08858300000000001,0.101464,0.447866
2018-10-10T23:02:04.868097Z,0.170296,-0.758302,1.390474
2018-10-10T23:02:05.069097Z,1.306849,-1.0694540000000001,-0.609143
2018-10-10T23:02:05.268097Z,0.615861,-0.268635,-0.1968
2018-10-10T23:02:05.482097Z,0.9062790000000001,0.23415500000000003,0.725266
2018-10-10T23:02:05.668097Z,-0.5476800000000001,-0.397834,0.91855
2018-10-10T23:02:05.879097Z,0.012664,-1.213783,-0.880799
2018-10-10T23:02:06.070097Z,0.254292,-0.253054,-0.101944
2018-10-10T23:02:06.269097Z,-0.210137,0.466189,1.0629879999999998
2018-10-10T23:02:06.470097Z,0.105004,-1.227973,0.53159
2018-10-10T23:02:06.670097Z,0.325191,-1.092502,-0.47401000000000004
2018-10-10T23:02:06.869097Z,0.130205,-0.235713,-0.053501
2018-10-10T23:02:07.069097Z,-3.127607,-0.429989,-0.044114
2018-10-10T23:02:07.270097Z,-2.375573,-2.496809,0.818637
2018-10-10T23:02:07.470097Z,-0.5963510000000001,-1.511515,-0.204087
2018-10-10T23:02:07.670097Z,0.374399,0.578874,-0.5917899999999999
2018-10-10T23:02:07.888097Z,1.7173479999999999,0.694562,0.714248
2018-10-10T23:02:08.071097Z,1.920188,-0.135154,0.5242140000000001
2018-10-10T23:02:08.271097Z,1.8766180000000001,0.641091,0.118349
2018-10-10T23:02:08.485097Z,0.586639,0.6041350000000001,0.821902
2018-10-10T23:02:08.672097Z,0.607908,-0.610422,0.112427
2018-10-10T23:02:08.872097Z,1.131634,-0.215319,-0.7306630000000001
2018-10-10T23:02:09.071097Z,0.736176,0.119225,0.607075
2018-10-10T23:02:09.271097Z,0.38053200000000004,-0.283174,1.040558
2018-10-10T23:02:09.485097Z,0.665351,-0.20741700000000002,-1.164453
2018-10-10T23:02:09.681097Z,-0.9042690000000001,-0.24802800000000003,-0.022833000000000003
2018-10-10T23:02:09.871097Z,-2.6264950000000002,-0.510429,0.116882
2018-10-10T23:02:10.095097Z,-1.185322,-0.7046359999999999,-0.203681
2018-10-10T23:02:10.272097Z,0.432667,-0.565398,0.24811799999999998
2018-10-10T23:02:10.472097Z,1.3732209999999998,0.315443,0.542529
2018-10-10T23:02:10.673097Z,1.4151770000000001,-0.585255,0.599722
2018-10-10T23:02:10.873097Z,1.888668,-0.192923,-0.278859
2018-10-10T23:02:11.072097Z,-0.527401,0.063849,0.091386
2018-10-10T23:02:11.273097Z,0.506217,-0.5848260000000001,1.2180790000000001
2018-10-10T23:02:11.473097Z,0.996093,-0.227625,-0.8915620000000001
2018-10-10T23:02:11.675097Z,0.485242,0.773046,0.14181400000000002
2018-10-10T23:02:11.890097Z,0.980036,-0.339606,1.822668
2018-10-10T23:02:12.073097Z,1.7752970000000001,-1.365776,0.08442999999999999
2018-10-10T23:02:12.285097Z,0.9327280000000001,-0.049196,-1.265409
2018-10-10T23:02:12.474097Z,0.64936,0.37206999999999996,1.287827
2018-10-10T23:02:12.684097Z,1.4025100000000001,-0.9066559999999999,0.942765
2018-10-10T23:02:12.873097Z,1.151203,-0.5247229999999999,-0.19009600000000001
2018-10-10T23:02:13.074097Z,0.646226,-0.321477,-0.014687
2018-10-10T23:02:13.275097Z,0.043651999999999996,-0.47857700000000003,0.59514
2018-10-10T23:02:13.475097Z,0.718112,-0.366523,0.7672640000000001
2018-10-10T23:02:13.675097Z,0.956033,-0.327268,-0.343444
2018-10-10T23:02:13.876097Z,0.64991,-0.038319,-0.285632
2018-10-10T23:02:14.076097Z,-0.18768800000000002,0.23671599999999998,0.681949
2018-10-10T23:02:14.275097Z,-0.144153,-0.582658,0.430845
2018-10-10T23:02:14.476097Z,0.147449,-0.5009899999999999,-0.652979
2018-10-10T23:02:14.677097Z,-0.175245,-0.086515,0.49017200000000005
2018-10-10T23:02:14.876097Z,-0.344945,-1.089642,1.650648
2018-10-10T23:02:15.111097Z,0.088035,-1.0094969999999999,-0.489275
2018-10-10T23:02:15.289097Z,-2.594023,-0.675416,-0.38029
2018-10-10T23:02:15.492097Z,-1.209275,-0.7286600000000001,0.7516729999999999
2018-10-10T23:02:15.677097Z,-0.787601,-1.738389,0.589965
2018-10-10T23:02:15.877097Z,0.39565900000000004,-0.280426,-0.235502
2018-10-10T23:02:16.077097Z,0.881042,0.904591,0.337484
2018-10-10T23:02:16.278097Z,0.697274,0.311621,0.858017
2018-10-10T23:02:16.478097Z,1.3418139999999998,-0.742592,-0.26926700000000003
2018-10-10T23:02:16.677097Z,1.471416,0.045813,-0.169021
2018-10-10T23:02:16.877097Z,1.321587,0.401936,0.188881
2018-10-10T23:02:17.078097Z,2.124625,-0.675218,1.76083
2018-10-10T23:02:17.278097Z,2.337834,-1.6030309999999999,0.061825
2018-10-10T23:02:17.477097Z,1.290974,-0.388315,0.18448900000000001
2018-10-10T23:02:17.678097Z,-0.234987,-0.143,0.747742
2018-10-10T23:02:17.879097Z,0.9400879999999999,-0.903927,0.6826369999999999
2018-10-10T23:02:18.080097Z,0.339395,-1.121469,-0.688631
2018-10-10T23:02:18.280097Z,-0.531121,-0.637571,0.636989
2018-10-10T23:02:18.480097Z,0.031228,-0.468812,0.819917
2018-10-10T23:02:18.720097Z,0.401872,-0.45289300000000005,-0.6717350000000001
2018-10-10T23:02:18.880097Z,0.7532770000000001,-0.401579,0.662845
2018-10-10T23:02:19.079097Z,1.3956549999999999,-1.501939,1.577993
2018-10-10T23:02:19.294097Z,1.468933,-1.104943,-0.448586
2018-10-10T23:02:19.492097Z,0.645889,-0.444115,-0.060983
2018-10-10T23:02:19.681097Z,-0.572784,-0.578755,1.246552
2018-10-10T23:02:19.881097Z,-0.421887,-1.58216,0.667606
2018-10-10T23:02:20.079097Z,-0.24104299999999998,-0.734863,-1.241098
2018-10-10T23:02:20.291097Z,-0.8417370000000001,-0.066715,1.041387
2018-10-10T23:02:20.480097Z,-0.975749,-0.5679649999999999,0.478551
2018-10-10T23:02:20.680097Z,-1.481199,-1.6064690000000001,-0.273646
2018-10-10T23:02:20.879097Z,-0.7272569999999999,-0.292671,-0.431654
2018-10-10T23:02:21.080097Z,-1.138665,-0.013253999999999998,0.8465870000000001
2018-10-10T23:02:21.282097Z,0.192579,-0.8559959999999999,0.701267
2018-10-10T23:02:21.482097Z,0.7306229999999999,-0.574051,-0.65236
2018-10-10T23:02:21.682097Z,0.88671,0.253083,0.7514270000000001
2018-10-10T23:02:21.884097Z,0.602107,-0.007345999999999999,1.391194
2018-10-10T23:02:22.081097Z,1.0826959999999999,-0.72018,-1.1515229999999999
2018-10-10T23:02:22.282097Z,0.680064,0.18071900000000002,-0.817071
2018-10-10T23:02:22.482097Z,0.229859,0.718332,0.582006
2018-10-10T23:02:22.682097Z,-0.269455,-0.35029699999999997,1.0978299999999999
2018-10-10T23:02:22.883097Z,0.39770900000000003,-0.8303530000000001,-0.7882020000000001
2018-10-10T23:02:23.083097Z,-0.15617999999999999,0.5747939999999999,-0.646246
2018-10-10T23:02:23.302097Z,0.568086,0.9648770000000001,1.110003
2018-10-10T23:02:23.493097Z,0.318485,-1.068547,0.100301
2018-10-10T23:02:23.687097Z,0.332914,-0.236746,-1.233286
2018-10-10T23:02:23.893097Z,-0.18474400000000002,0.628883,0.7884720000000001
2018-10-10T23:02:24.083097Z,-0.117748,-0.326567,0.392241
2018-10-10T23:02:24.283097Z,-0.48093400000000003,-0.11834000000000001,-1.2041389999999998
2018-10-10T23:02:24.483097Z,0.432854,0.569555,0.079157
2018-10-10T23:02:24.684097Z,0.194445,0.813091,0.44815900000000003
2018-10-10T23:02:24.884097Z,-0.023306,-1.249317,1.124767
2018-10-10T23:02:25.084097Z,-0.483041,-0.8967360000000001,-0.8718889999999999
2018-10-10T23:02:25.285097Z,-1.1015270000000001,0.25464699999999996,-0.42351000000000005
2018-10-10T23:02:25.486097Z,-0.8744700000000001,-0.36385500000000004,0.692945
2018-10-10T23:02:25.686097Z,0.205592,-0.6838989999999999,-0.600821
2018-10-10T23:02:25.891097Z,0.31813600000000003,0.574387,-0.11438499999999999
2018-10-10T23:02:26.084097Z,0.33037,-0.09175900000000001,1.656088
2018-10-10T23:02:26.285097Z,1.538458,-0.9482709999999999,0.504268
2018-10-10T23:02:26.485097Z,0.499852,-0.301045,-0.85577
2018-10-10T23:02:26.685097Z,0.8880620000000001,0.479781,0.21286100000000002
2018-10-10T23:02:26.884097Z,0.5560039999999999,-0.046575,0.703954
2018-10-10T23:02:27.086097Z,0.30190500000000003,-0.50995,0.153201
2018-10-10T23:02:27.287097Z,0.292244,0.043976999999999995,-0.992617
2018-10-10T23:02:27.485097Z,-0.433967,0.27381500000000003,0.138991
2018-10-10T23:02:27.686097Z,-0.984318,-1.077116,1.001815
2018-10-10T23:02:27.886097Z,-0.086987,-1.0396809999999999,0.05575599999999999
2018-10-10T23:02:28.086097Z,0.770515,-0.338377,-0.12962
2018-10-10T23:02:28.287097Z,1.7643950000000002,0.240367,0.920588
2018-10-10T23:02:28.488097Z,0.928884,-0.29746300000000003,0.7971600000000001
2018-10-10T23:02:28.688097Z,0.429597,-1.240197,-0.42277600000000004
2018-10-10T23:02:28.887097Z,0.662054,0.118781,-0.150488
2018-10-10T23:02:29.087097Z,0.480472,-0.28527399999999997,1.352773
2018-10-10T23:02:29.287097Z,0.149919,-0.9553389999999999,-0.042901999999999996
2018-10-10T23:02:29.488097Z,-0.647675,-0.737214,-0.298099
2018-10-10T23:02:29.688097Z,-0.649809,-0.8787809999999999,0.297765
2018-10-10T23:02:29.888097Z,-0.019701,-0.712379,0.64893
2018-10-10T23:02:30.089097Z,1.556051,0.543484,-0.830594
2018-10-10T23:02:30.289097Z,1.158037,0.570566,1.174874
2018-10-10T23:02:30.488097Z,1.790732,-0.598819,1.1814280000000001
2018-10-10T23:02:30.689097Z,0.9174620000000001,-0.6307550000000001,-0.747548
2018-10-10T23:02:30.890097Z,1.316471,0.602223,-0.254816
2018-10-10T23:02:31.090097Z,-0.413963,-0.13963,1.130413
2018-10-10T23:02:31.305097Z,-0.170214,-1.36893,0.358389
2018-10-10T23:02:31.488097Z,-0.141315,-0.658546,-0.820153
2018-10-10T23:02:31.688097Z,-0.270152,0.5848899999999999,0.317592
2018-10-10T23:02:31.904097Z,-0.5421060000000001,-0.05193,0.9264680000000001
2018-10-10T23:02:32.105097Z,-0.8453430000000001,-1.279755,-0.5254300000000001
2018-10-10T23:02:32.291097Z,0.158962,0.365471,-0.695747
2018-10-10T23:02:32.489097Z,0.157004,0.426969,0.786114
2018-10-10T23:02:32.690097Z,-0.005211,-0.927952,0.950657
2018-10-10T23:02:32.891097Z,0.786342,-0.527629,-0.42186
2018-10-10T23:02:33.090097Z,0.903015,-0.11103800000000001,0.5727760000000001
2018-10-10T23:02:33.290097Z,0.21398699999999998,-0.258278,0.601974
2018-10-10T23:02:33.505097Z,0.7847350000000001,-0.969716,-0.053775
2018-10-10T23:02:33.692097Z,0.569583,0.203584,-0.260828
2018-10-10T23:02:33.891097Z,1.157119,0.42593000000000003,-0.18588
2018-10-10T23:02:34.093097Z,1.494011,0.17378,0.637196
2018-10-10T23:02:34.293097Z,0.825801,-0.279294,0.32240100000000005
2018-10-10T23:02:34.493097Z,1.1139379999999999,0.22531199999999998,-0.25268
2018-10-10T23:02:34.692097Z,0.21760900000000002,0.904244,-0.43697299999999994
2018-10-10T23:02:34.893097Z,-0.623304,0.487738,-0.0061909999999999995
2018-10-10T23:02:35.093097Z,0.482663,-0.9476979999999999,1.07044
2018-10-10T23:02:35.314097Z,0.044548000000000004,-0.358279,-1.280411
2018-10-10T23:02:35.491097Z,-0.199931,0.567462,0.169797
2018-10-10T23:02:35.694097Z,-0.5781689999999999,-0.06185,0.119006
2018-10-10T23:02:35.892097Z,-0.130954,0.24573499999999998,-0.788239
2018-10-10T23:02:36.092097Z,0.45198599999999994,0.021848,1.632734
2018-10-10T23:02:36.294097Z,1.272283,-0.768621,-0.007965
2018-10-10T23:02:36.494097Z,0.7885409999999999,0.128329,-0.723388
2018-10-10T23:02:36.693097Z,-0.213669,0.09940399999999999,1.596178
2018-10-10T23:02:36.893097Z,0.9200309999999999,-1.178487,0.338467
2018-10-10T23:02:37.129097Z,-0.080614,-0.7289140000000001,-1.536986
2018-10-10T23:02:37.294097Z,-0.538515,0.798266,0.263621
2018-10-10T23:02:37.506097Z,0.39767600000000003,-0.024026,1.396609
2018-10-10T23:02:37.694097Z,0.416678,-0.726683,-0.978369
2018-10-10T23:02:37.894097Z,0.233327,0.579299,-0.961673
2018-10-10T23:02:38.094097Z,-0.509618,0.467817,1.232968
2018-10-10T23:02:38.295097Z,1.2687950000000001,-0.493781,0.315751
2018-10-10T23:02:38.590097Z,0.017242,-0.360349,-1.125792
2018-10-10T23:02:38.694097Z,-1.5841040000000002,0.859282,-0.371242
2018-10-10T23:02:38.895097Z,-2.147535,-0.512886,1.106106
2018-10-10T23:02:39.094097Z,-0.812157,-1.7906279999999999,0.308155
2018-10-10T23:02:39.296097Z,0.11751700000000001,0.7503,-1.455845
2018-10-10T23:02:39.495097Z,0.780393,0.640343,0.882815
2018-10-10T23:02:39.697097Z,1.054258,-0.236141,1.492833
2018-10-10T23:02:39.897097Z,0.986835,-1.396659,-0.229586
2018-10-10T23:02:40.095097Z,1.293492,0.140571,-0.935248
2018-10-10T23:02:40.297097Z,0.133953,1.247591,-0.064191
2018-10-10T23:02:40.496097Z,0.031124000000000002,-0.279587,1.421258
2018-10-10T23:02:40.696097Z,0.158754,-0.612614,-0.962936
2018-10-10T23:02:40.896097Z,0.194669,0.8627799999999999,-0.759188
2018-10-10T23:02:41.098097Z,-0.906625,0.615149,1.38266
2018-10-10T23:02:41.298097Z,0.378737,-1.562889,0.5341090000000001
2018-10-10T23:02:41.498097Z,1.370966,-1.21196,-0.417753
2018-10-10T23:02:41.720097Z,0.8456,0.7157399999999999,-0.389521
2018-10-10T23:02:41.897097Z,-0.543667,0.47867200000000004,1.312482
2018-10-10T23:02:42.098097Z,-0.091451,-0.6548189999999999,-0.5416989999999999
2018-10-10T23:02:42.297097Z,-1.0242790000000002,0.18843800000000002,-0.8956620000000001
2018-10-10T23:02:42.498097Z,0.931251,0.370684,0.5346609999999999
2018-10-10T23:02:42.699097Z,0.9713040000000001,-0.884631,1.7914439999999998
2018-10-10T23:02:42.899097Z,1.0727,-1.246528,-0.326998
2018-10-10T23:02:43.110097Z,0.724738,-0.018956999999999998,-0.879948
2018-10-10T23:02:43.299097Z,-0.097988,1.0088190000000001,0.523464
2018-10-10T23:02:43.499097Z,0.76531,-0.47855,0.973663
2018-10-10T23:02:43.699097Z,0.8741120000000001,-0.033339,-0.951575
2018-10-10T23:02:43.898097Z,0.596642,-0.184054,-0.508659
2018-10-10T23:02:44.099097Z,-0.333427,0.5800960000000001,1.038111
2018-10-10T23:02:44.320097Z,0.44682299999999997,-1.35681,1.048516
2018-10-10T23:02:44.501097Z,0.703522,-0.660877,-0.969891
2018-10-10T23:02:44.701097Z,0.207879,0.20106300000000002,0.41524700000000003
2018-10-10T23:02:44.966097Z,0.303321,-0.21909099999999998,1.219207
2018-10-10T23:02:45.099097Z,-0.0048590000000000005,-0.564728,-0.835414
2018-10-10T23:02:45.353097Z,-0.092948,0.339694,-0.478815
2018-10-10T23:02:45.516097Z,-0.011059999999999999,0.723346,0.435485
2018-10-10T23:02:45.716097Z,0.277775,-0.707414,0.998531
2018-10-10T23:02:45.901097Z,0.141998,-0.8774049999999999,-0.638804
2018-10-10T23:02:46.101097Z,0.053564999999999995,0.10768900000000001,-0.28996
2018-10-10T23:02:46.302097Z,0.140345,0.37953400000000004,0.9448040000000001
2018-10-10T23:02:46.502097Z,0.541093,-1.065536,0.651407
2018-10-10T23:02:46.703097Z,1.212466,-0.605375,-0.8123279999999999
2018-10-10T23:02:46.909097Z,1.4243780000000001,0.5146649999999999,-0.630161
2018-10-10T23:02:47.101097Z,0.457676,0.558214,1.144385
2018-10-10T23:02:47.302097Z,-0.205062,-0.8260709999999999,0.534909
2018-10-10T23:02:47.503097Z,-0.24029699999999998,-0.232823,-1.093312
2018-10-10T23:02:47.703097Z,0.516034,0.492962,0.191697
2018-10-10T23:02:47.903097Z,0.801884,-0.099266,1.332311
2018-10-10T23:02:48.104097Z,1.522066,-1.026706,-0.331367
2018-10-10T23:02:48.318097Z,1.11435,-0.048004000000000005,-1.0338559999999999
2018-10-10T23:02:48.503097Z,0.603642,0.890978,0.654038
2018-10-10T23:02:48.703097Z,0.142734,-0.21890300000000001,0.7969
2018-10-10T23:02:48.903097Z,0.567774,-0.860618,-0.599404
2018-10-10T23:02:49.103097Z,0.6849390000000001,0.5454100000000001,-0.5771029999999999
2018-10-10T23:02:49.305097Z,0.439849,-0.074478,1.231118
2018-10-10T23:02:49.504097Z,0.521068,-1.1536030000000002,0.610001
2018-10-10T23:02:49.703097Z,1.044276,-0.100548,-1.017616
2018-10-10T23:02:49.905097Z,1.198539,-0.37161700000000003,0.743809
2018-10-10T23:02:50.104097Z,1.021938,-1.072392,0.966305
2018-10-10T23:02:50.305097Z,0.814704,-1.3435620000000001,0.164547
2018-10-10T23:02:50.521097Z,0.778658,-0.540493,-0.176751
2018-10-10T23:02:50.706097Z,-0.40949,0.09235299999999999,0.10738299999999999
2018-10-10T23:02:50.906097Z,-1.027952,0.32548299999999997,0.528663
2018-10-10T23:02:51.106097Z,0.9833770000000001,-1.491002,0.7804300000000001
2018-10-10T23:02:51.307097Z,0.712912,-0.39483,-1.196383
2018-10-10T23:02:51.519097Z,0.194545,-0.19961500000000001,0.499647
2018-10-10T23:02:51.726097Z,0.24682600000000002,-0.666561,0.852196
2018-10-10T23:02:51.906097Z,0.102752,-1.150003,0.095223
2018-10-10T23:02:52.112097Z,1.0063739999999999,-0.662993,-0.137033
2018-10-10T23:02:52.320097Z,1.744545,-1.122774,1.327358
2018-10-10T23:02:52.506097Z,2.0804099999999996,-2.193639,0.47791999999999996
2018-10-10T23:02:52.707097Z,1.036848,-1.3589579999999999,0.11496400000000001
2018-10-10T23:02:52.908097Z,-0.056041999999999995,-0.510293,0.545674
2018-10-10T23:02:53.108097Z,-0.653337,-1.274473,1.478696
2018-10-10T23:02:53.309097Z,0.672323,-1.3587639999999999,-0.146022
2018-10-10T23:02:53.508097Z,0.6102310000000001,-0.192182,-0.248165
2018-10-10T23:02:53.707097Z,0.6812590000000001,-0.241812,0.8840309999999999
2018-10-10T23:02:53.907097Z,0.544117,-1.1920549999999999,0.326027
2018-10-10T23:02:54.106097Z,0.21937399999999999,-0.48717299999999997,-1.034975
2018-10-10T23:02:54.308097Z,0.081949,0.107272,0.973886
2018-10-10T23:02:54.525097Z,0.215302,-0.560766,0.7086859999999999
2018-10-10T23:02:54.708097Z,-0.151382,-0.520941,-0.757249
2018-10-10T23:02:54.910097Z,-0.010361,-0.016953,0.11348399999999999
2018-10-10T23:02:55.111097Z,-0.567257,-0.401794,1.23146
2018-10-10T23:02:55.310097Z,0.049694,-1.30669,0.408698
2018-10-10T23:02:55.512097Z,-0.172211,-0.674601,-0.763224
2018-10-10T23:02:55.709097Z,-0.731753,-0.013635,0.054824
2018-10-10T23:02:55.908097Z,-0.983505,-0.49573900000000004,1.6635259999999998
2018-10-10T23:02:56.110097Z,-1.583758,-1.455177,-0.562048
2018-10-10T23:02:56.310097Z,-0.656345,-0.313463,-0.236556
2018-10-10T23:02:56.511097Z,0.370515,0.317461,0.8718549999999999
2018-10-10T23:02:56.752097Z,1.3071979999999999,-0.659983,0.6922699999999999
2018-10-10T23:02:56.911097Z,0.809439,-0.342932,-1.003897
2018-10-10T23:02:57.110097Z,0.22002199999999997,0.204128,-0.034324
2018-10-10T23:02:57.311097Z,-0.454442,0.172716,0.9284180000000001
2018-10-10T23:02:57.662097Z,0.029162,-1.124176,-0.04755
2018-10-10T23:02:57.709097Z,-0.635867,-0.49313599999999996,-0.650826
2018-10-10T23:02:57.925097Z,-0.223629,0.208079,0.6292770000000001
2018-10-10T23:02:58.110097Z,0.554372,-0.7982779999999999,0.5161220000000001
2018-10-10T23:02:58.311097Z,0.24327100000000002,-1.5013379999999998,0.673713
2018-10-10T23:02:58.511097Z,0.560595,-0.8239040000000001,-0.025966000000000003
2018-10-10T23:02:58.712097Z,0.990067,-0.097728,-0.235348
2018-10-10T23:02:58.913097Z,0.987475,-0.158209,0.31461300000000003
2018-10-10T23:02:59.113097Z,1.288468,-0.35834,0.138433
2018-10-10T23:02:59.324097Z,1.268413,-0.44211000000000006,0.059519
2018-10-10T23:02:59.511097Z,0.92827,-0.276027,0.177589
2018-10-10T23:02:59.712097Z,0.918859,-0.08315499999999999,0.19053
2018-10-10T23:02:59.912097Z,1.098311,0.037679000000000004,0.12172100000000001
2018-10-10T23:03:00.112097Z,1.08018,0.160678,0.183002
2018-10-10T23:03:00.313097Z,0.669712,0.556303,-0.390138
2018-10-10T23:03:00.514097Z,0.428353,0.6996829999999999,-0.484072
2018-10-10T23:03:00.713097Z,0.38222399999999995,0.628373,0.520568
2018-10-10T23:03:00.913097Z,0.138034,-0.7207399999999999,0.6710229999999999
2018-10-10T23:03:01.155097Z,0.051032999999999995,-0.498501,-0.802038
2018-10-10T23:03:01.313097Z,-0.436717,0.257079,-0.197402
2018-10-10T23:03:01.513097Z,-0.650017,-0.08794199999999999,0.529162
2018-10-10T23:03:01.713097Z,-0.204216,-0.819572,0.097436
2018-10-10T23:03:01.914097Z,0.015827,-0.47708500000000004,-0.0030489999999999996
2018-10-10T23:03:02.115097Z,0.00805,-0.038452999999999994,0.2747
2018-10-10T23:03:02.315097Z,0.34626399999999996,-0.255919,0.370177
2018-10-10T23:03:02.514097Z,0.47955,-0.537855,0.108944
2018-10-10T23:03:02.715097Z,0.637329,-0.039113,-0.405528
2018-10-10T23:03:02.915097Z,0.942392,0.440259,-0.290543
2018-10-10T23:03:03.116097Z,0.813846,0.309442,1.0224
2018-10-10T23:03:03.315097Z,0.72319,-0.941968,-0.014291
2018-10-10T23:03:03.531097Z,0.6823279999999999,-0.192233,-0.991909
2018-10-10T23:03:03.715097Z,1.379445,0.394516,1.019108
2018-10-10T23:03:03.915097Z,2.637594,-0.688394,1.319381
2018-10-10T23:03:04.131097Z,2.1971439999999998,-1.19318,-0.49171400000000004
2018-10-10T23:03:04.321097Z,0.375554,-0.569925,0.00045099999999999996
2018-10-10T23:03:04.516097Z,0.655846,-0.400285,0.607926
2018-10-10T23:03:04.719097Z,0.091915,-0.35329699999999997,0.154407
2018-10-10T23:03:04.919097Z,0.302265,-0.598917,-0.570256
2018-10-10T23:03:05.118097Z,-0.087245,0.303859,0.12172899999999999
2018-10-10T23:03:05.317097Z,-0.167154,-0.087302,0.787116
2018-10-10T23:03:05.516097Z,0.909334,-1.152828,0.807837
2018-10-10T23:03:05.729097Z,0.341452,-0.504736,-1.2498559999999999
2018-10-10T23:03:05.917097Z,0.274978,0.5124380000000001,0.21044200000000002
2018-10-10T23:03:06.118097Z,-0.319153,-0.819757,1.8642779999999999
2018-10-10T23:03:06.328097Z,-0.352052,-1.494742,-0.488314
2018-10-10T23:03:06.518097Z,-0.033759,-0.017414,-0.9355450000000001
2018-10-10T23:03:06.718097Z,-0.052638,0.5826020000000001,0.559066
2018-10-10T23:03:06.918097Z,0.130957,-0.479879,1.168856
2018-10-10T23:03:07.119097Z,0.8074939999999999,-1.252687,-0.609997
2018-10-10T23:03:07.320097Z,0.781866,0.09714600000000001,-0.782328
2018-10-10T23:03:07.520097Z,0.8334860000000001,0.349505,1.35015
2018-10-10T23:03:07.719097Z,0.889971,-1.633991,1.043304
2018-10-10T23:03:07.918097Z,1.311317,-1.690568,-0.209373
2018-10-10T23:03:08.119097Z,0.311788,-0.6390319999999999,0.028106
2018-10-10T23:03:08.320097Z,-0.29746100000000003,-0.24128899999999998,0.458358
2018-10-10T23:03:08.520097Z,-0.061970000000000004,-0.9985360000000001,0.8300120000000001
2018-10-10T23:03:08.721097Z,-0.11260799999999999,-1.578186,0.109999
2018-10-10T23:03:08.921097Z,0.14969100000000002,-0.7,-0.181828
2018-10-10T23:03:09.122097Z,0.137008,-0.316735,0.776504
2018-10-10T23:03:09.320097Z,-0.066098,-0.9743299999999999,0.544138
2018-10-10T23:03:09.548097Z,-0.643933,-1.157522,-0.226177
2018-10-10T23:03:09.720097Z,-0.299881,0.099379,-0.103895
2018-10-10T23:03:09.920097Z,-1.23886,-0.031892000000000004,0.517234
2018-10-10T23:03:10.122097Z,-1.136235,-1.146608,0.48321099999999995
2018-10-10T23:03:10.323097Z,-0.780153,-0.545162,-0.255791
2018-10-10T23:03:10.535097Z,-0.179977,0.21184699999999998,-0.129664
2018-10-10T23:03:10.722097Z,0.349925,-0.11219000000000001,1.389812
2018-10-10T23:03:10.923097Z,0.189858,-0.565281,-0.023421
2018-10-10T23:03:11.123097Z,-0.036273,-0.251398,-0.828191
2018-10-10T23:03:11.323097Z,0.472944,0.172039,0.549705
2018-10-10T23:03:11.521097Z,0.333594,-0.035424000000000004,0.68486
2018-10-10T23:03:11.756097Z,0.343121,-0.495,-0.6815060000000001
2018-10-10T23:03:11.922097Z,0.11216199999999998,0.5215930000000001,-0.873632
2018-10-10T23:03:12.121097Z,0.03753,0.174447,1.329077
2018-10-10T23:03:12.322097Z,-0.8794930000000001,-0.670203,-0.46157600000000004
2018-10-10T23:03:12.523097Z,-0.390993,-0.465233,-0.165481
2018-10-10T23:03:12.724097Z,0.699222,0.342117,0.567444
2018-10-10T23:03:12.924097Z,1.544485,0.12151300000000001,1.106741
2018-10-10T23:03:13.123097Z,1.07866,-0.651837,-0.739507
2018-10-10T23:03:13.324097Z,1.1254110000000002,0.26316100000000003,-0.511367
2018-10-10T23:03:13.541097Z,0.645103,0.354007,0.891027
2018-10-10T23:03:13.723097Z,0.24293,-0.379027,0.807387
2018-10-10T23:03:13.923097Z,0.8089310000000001,-1.032202,-1.020507
2018-10-10T23:03:14.124097Z,0.784281,0.23164,-0.34175500000000003
2018-10-10T23:03:14.339097Z,0.551674,0.755583,0.78804
2018-10-10T23:03:14.524097Z,1.25165,-0.957617,0.616838
2018-10-10T23:03:14.725097Z,0.951471,-0.34280700000000003,-0.896141
2018-10-10T23:03:14.925097Z,0.393169,0.238418,0.144485
2018-10-10T23:03:15.123097Z,0.292381,0.367202,0.6469189999999999
2018-10-10T23:03:15.324097Z,-0.753508,-0.534098,-0.62217
2018-10-10T23:03:15.542097Z,-0.972902,-0.360053,-0.335408
2018-10-10T23:03:15.740097Z,-0.655471,-0.158879,0.809585
2018-10-10T23:03:15.926097Z,0.027099,-0.853883,0.37921
2018-10-10T23:03:16.126097Z,0.11794500000000001,-0.6015010000000001,-0.408298
2018-10-10T23:03:16.327097Z,1.080658,-0.01499,0.780948
2018-10-10T23:03:16.526097Z,1.7114349999999998,0.017615000000000002,0.819407
2018-10-10T23:03:16.782097Z,1.5785280000000002,-1.2081819999999999,-0.15717
2018-10-10T23:03:16.926097Z,2.298962,-0.005369,0.025463999999999997
2018-10-10T23:03:17.156097Z,1.882241,0.162459,0.302176
2018-10-10T23:03:17.327097Z,1.8755060000000001,-0.923199,0.6288090000000001
2018-10-10T23:03:17.527097Z,0.473263,-0.687326,-0.339507
2018-10-10T23:03:17.728097Z,0.461768,0.659609,0.050901
2018-10-10T23:03:17.928097Z,-0.109578,-0.5504359999999999,1.960638
2018-10-10T23:03:18.128097Z,0.623999,-2.062824,0.401961
2018-10-10T23:03:18.327097Z,0.7283569999999999,-0.7306279999999999,-1.2728059999999999
2018-10-10T23:03:18.526097Z,0.359127,0.9637700000000001,0.49303100000000005
2018-10-10T23:03:18.728097Z,1.551901,-1.033245,1.6826
2018-10-10T23:03:18.928097Z,1.890384,-1.791362,-0.266369
2018-10-10T23:03:19.128097Z,1.2817610000000002,-1.070201,0.42205
2018-10-10T23:03:19.330097Z,0.29027600000000003,-0.749789,1.633781
2018-10-10T23:03:19.530097Z,-0.166706,-2.295102,0.42933599999999994
2018-10-10T23:03:19.730097Z,-0.065964,-1.038881,-0.334962
2018-10-10T23:03:19.961097Z,-0.607169,-0.301138,0.486674
2018-10-10T23:03:20.128097Z,-1.704843,-0.76951,1.2558989999999999
2018-10-10T23:03:20.329097Z,-2.410876,-1.7779029999999998,-0.32413200000000003
2018-10-10T23:03:20.543097Z,-1.312675,-0.823608,-0.127104
2018-10-10T23:03:20.729097Z,0.158278,-0.15104700000000001,0.840974
2018-10-10T23:03:20.930097Z,0.25246199999999996,-0.377804,1.0371549999999998
2018-10-10T23:03:21.131097Z,0.25058600000000003,-1.077012,-0.561535
2018-10-10T23:03:21.347097Z,0.47399399999999997,-0.310753,0.269681
2018-10-10T23:03:21.543097Z,0.568152,0.07320499999999999,0.713737
2018-10-10T23:03:21.729097Z,-0.353819,-0.327996,-0.580332
2018-10-10T23:03:21.930097Z,-1.122477,0.058660000000000004,-0.983075
2018-10-10T23:03:22.130097Z,-0.7583,0.094788,0.526596
2018-10-10T23:03:22.331097Z,-0.9109010000000001,-0.940524,0.03488
2018-10-10T23:03:22.532097Z,0.129394,-0.51758,-0.469164
2018-10-10T23:03:22.732097Z,0.653705,0.43266800000000005,0.61198
2018-10-10T23:03:22.932097Z,2.440671,0.043511,0.8220459999999999
2018-10-10T23:03:23.211097Z,1.8819080000000001,-0.847442,0.341495
2018-10-10T23:03:23.331097Z,0.511871,0.388021,-0.534778
2018-10-10T23:03:23.531097Z,1.269836,0.073003,1.023306
2018-10-10T23:03:23.732097Z,2.594586,-1.240077,1.375293
2018-10-10T23:03:23.946097Z,1.479355,-1.003197,-0.008159999999999999
2018-10-10T23:03:24.133097Z,0.230379,-0.33664299999999997,-0.119895
2018-10-10T23:03:24.334097Z,-0.8599459999999999,0.368235,0.35486599999999996
2018-10-10T23:03:24.533097Z,0.48085500000000003,-1.301476,0.791875
2018-10-10T23:03:24.733097Z,0.880726,-0.6838,-0.370705
2018-10-10T23:03:24.934097Z,1.2369139999999998,-0.086339,0.34138
2018-10-10T23:03:25.134097Z,0.097498,0.0060030000000000005,1.078862
2018-10-10T23:03:25.332097Z,0.413972,-1.248373,0.151279
2018-10-10T23:03:25.532097Z,0.5457310000000001,-0.692997,-0.528409
2018-10-10T23:03:25.734097Z,0.337652,0.253762,-0.009726
2018-10-10T23:03:25.933097Z,-0.24193299999999998,-0.45796400000000004,1.621285
2018-10-10T23:03:26.134097Z,0.149925,-1.543016,-0.127999
2018-10-10T23:03:26.333097Z,0.755167,-0.7497560000000001,-0.20711999999999997
2018-10-10T23:03:26.535097Z,0.40455100000000005,0.144928,0.985604
2018-10-10T23:03:26.735097Z,0.08821799999999999,-1.0468620000000002,1.34702
2018-10-10T23:03:26.933097Z,0.544934,-1.419039,-0.25786
2018-10-10T23:03:27.134097Z,1.013139,0.27143,-1.0044389999999999
2018-10-10T23:03:27.335097Z,-0.91945,0.20890100000000003,1.573792
2018-10-10T23:03:27.535097Z,-0.718033,-1.774307,0.41659700000000005
2018-10-10T23:03:27.735097Z,-0.388029,-1.105673,-0.46208999999999995
2018-10-10T23:03:27.937097Z,0.361716,-0.042746,0.698256
2018-10-10T23:03:28.137097Z,0.37223,-0.783315,1.5908870000000002
2018-10-10T23:03:28.350097Z,0.852817,-1.608251,-0.14765699999999998
2018-10-10T23:03:28.535097Z,1.460526,-0.360611,0.009154
2018-10-10T23:03:28.738097Z,1.541245,-1.3051620000000002,2.124884
2018-10-10T23:03:28.936097Z,2.115006,-1.5024600000000001,0.120335
2018-10-10T23:03:29.136097Z,0.87623,-1.1087790000000002,0.20135899999999998
2018-10-10T23:03:29.337097Z,-0.22777600000000003,-0.139432,1.530805
2018-10-10T23:03:29.536097Z,-0.573572,-1.2127620000000001,-0.144602
2018-10-10T23:03:29.736097Z,-0.071728,-0.8839299999999999,-0.16786800000000002
2018-10-10T23:03:29.937097Z,-0.11073399999999999,0.029608,0.786905
2018-10-10T23:03:30.213097Z,0.47801400000000005,-1.516604,1.1590559999999999
2018-10-10T23:03:30.336097Z,-0.508594,-1.038366,-0.771848
2018-10-10T23:03:30.552097Z,-1.778072,-0.9425389999999999,0.636259
2018-10-10T23:03:30.738097Z,-2.113865,-1.8806669999999999,1.1429040000000001
2018-10-10T23:03:30.938097Z,-1.158925,-1.073656,0.409328
2018-10-10T23:03:31.139097Z,0.279738,-0.243042,0.907222
2018-10-10T23:03:31.339097Z,0.614216,-0.7043550000000001,0.355952
2018-10-10T23:03:31.539097Z,0.833058,-0.264025,-0.505217
2018-10-10T23:03:31.739097Z,0.8093359999999999,0.251148,-0.451957
2018-10-10T23:03:31.940097Z,0.655694,0.434845,0.663137
2018-10-10T23:03:32.140097Z,0.669545,-0.411232,0.5321819999999999
2018-10-10T23:03:32.339097Z,0.41465100000000005,-0.537247,-0.71137
2018-10-10T23:03:32.539097Z,-0.128485,0.410437,0.256659
2018-10-10T23:03:32.739097Z,0.617386,-0.537708,1.313148
2018-10-10T23:03:33.023097Z,0.023763999999999997,-1.2938209999999999,-0.30906999999999996
2018-10-10T23:03:33.139097Z,-1.318646,-0.593391,-0.581833
2018-10-10T23:03:33.340097Z,-1.622582,-2.524902,2.366839
2018-10-10T23:03:33.556097Z,-0.261114,-3.2467770000000002,1.9223569999999999
2018-10-10T23:03:33.740097Z,-0.030595999999999998,-2.876274,1.3736680000000001
2018-10-10T23:03:33.942097Z,0.7855810000000001,-1.447109,0.135201
2018-10-10T23:03:34.142097Z,1.0620889999999998,-0.919809,1.512149
2018-10-10T23:03:34.342097Z,1.347653,-1.053986,0.275337
2018-10-10T23:03:34.560097Z,1.191646,-1.121847,0.314672
2018-10-10T23:03:34.759097Z,0.947426,-1.5775860000000002,0.569088
2018-10-10T23:03:34.971097Z,0.0,0.0,0.0
2018-10-10T23:03:35.178097Z,0.06124299999999999,1.003399,0.402152
2018-10-10T23:03:35.360097Z,-0.277088,0.367571,0.9498620000000001
2018-10-10T23:03:35.559097Z,-0.406213,-0.666242,0.19783199999999998
2018-10-10T23:03:35.770097Z,-0.189029,-0.629454,-0.20009200000000002
2018-10-10T23:03:35.979097Z,0.468738,-0.12140999999999999,1.0823040000000002
2018-10-10T23:03:36.162097Z,0.799474,-0.288663,0.08290299999999999
2018-10-10T23:03:36.366097Z,1.4726,-0.297695,0.37332
2018-10-10T23:03:36.559097Z,1.275282,-0.123162,0.513633
2018-10-10T23:03:36.761097Z,2.5279990000000003,-1.016513,-0.022678999999999998
2018-10-10T23:03:36.959097Z,2.197219,-0.281029,0.553764
2018-10-10T23:03:37.160097Z,1.7742220000000002,-0.80307,1.888326
2018-10-10T23:03:37.362097Z,1.7782069999999999,-1.548446,1.148811
2018-10-10T23:03:37.560097Z,1.894202,-0.80223,0.35759
2018-10-10T23:03:37.760097Z,3.102739,-0.423654,1.63214
2018-10-10T23:03:37.961097Z,3.9181589999999997,-1.447698,0.962059
2018-10-10T23:03:38.172097Z,1.6726029999999998,-1.236075,0.052088
2018-10-10T23:03:38.362097Z,-0.10718299999999999,-0.07030800000000001,1.408972
2018-10-10T23:03:38.576097Z,0.041932,-0.519962,-0.175903
2018-10-10T23:03:38.763097Z,0.13733099999999998,-0.7565430000000001,-0.62361
2018-10-10T23:03:38.963097Z,0.769124,0.745628,-0.154031
2018-10-10T23:03:39.246097Z,0.7344930000000001,-1.1100299999999999,0.785775
2018-10-10T23:03:39.362097Z,0.592383,0.03882,-0.9378219999999999
2018-10-10T23:03:39.563097Z,0.746,-0.124491,0.11299300000000001
2018-10-10T23:03:39.762097Z,-0.064759,-0.07112,1.345053
2018-10-10T23:03:39.963097Z,-0.033551,-0.86749,-0.876754
2018-10-10T23:03:40.164097Z,-0.047311,0.46650600000000003,-0.15498800000000001
2018-10-10T23:03:40.364097Z,0.5565329999999999,0.49629700000000004,0.8585
2018-10-10T23:03:40.564097Z,0.801866,-0.792768,0.606982
2018-10-10T23:03:40.786097Z,0.67172,-0.31998899999999997,0.438942
2018-10-10T23:03:40.965097Z,2.412408,-0.743206,2.0017110000000002
2018-10-10T23:03:41.164097Z,0.8856139999999999,-1.639356,0.585932
2018-10-10T23:03:41.363097Z,1.665085,-1.6805740000000002,0.103005
2018-10-10T23:03:41.564097Z,-0.45007600000000003,0.6593640000000001,-0.020693
2018-10-10T23:03:41.765097Z,-0.15016300000000002,0.083047,0.526628
2018-10-10T23:03:41.983097Z,0.5132479999999999,-1.5595350000000001,1.4221489999999999
2018-10-10T23:03:42.166097Z,0.18923299999999998,-1.8710799999999999,-0.394492
2018-10-10T23:03:42.389097Z,-0.614584,-0.20638299999999998,0.404706
2018-10-10T23:03:42.575097Z,-1.0228629999999999,-1.023852,0.5241859999999999
2018-10-10T23:03:42.780097Z,-1.54129,-1.2317280000000002,0.084487
2018-10-10T23:03:42.965097Z,-0.535696,-0.5261,-0.5727869999999999
2018-10-10T23:03:43.166097Z,-0.49086499999999994,0.8489120000000001,-0.713726
2018-10-10T23:03:43.367097Z,1.258832,0.526188,0.819076
2018-10-10T23:03:43.566097Z,-1.375815,1.3652229999999999,-0.21790500000000002
2018-10-10T23:03:43.767097Z,1.138004,0.41499300000000006,-0.117444
2018-10-10T23:03:43.966097Z,0.893308,0.06661900000000001,-1.223897
2018-10-10T23:03:44.166097Z,-0.186384,1.285714,-0.021431
2018-10-10T23:03:44.372097Z,-1.104842,-0.338922,2.483802
2018-10-10T23:03:44.566097Z,-1.286076,-1.7286130000000002,-0.566178
2018-10-10T23:03:44.767097Z,-0.5925739999999999,-1.131999,0.23360300000000003
2018-10-10T23:03:44.982097Z,-0.932894,-0.9132239999999999,0.8558690000000001
2018-10-10T23:03:45.183097Z,0.178997,-1.104601,0.627088
2018-10-10T23:03:45.367097Z,0.430101,-0.767466,-0.797191
2018-10-10T23:03:45.586097Z,0.35591799999999996,0.961794,1.877005
2018-10-10T23:03:45.769097Z,0.723002,-0.21348000000000003,0.6483300000000001
2018-10-10T23:03:45.969097Z,0.940156,-1.493487,-0.611527
2018-10-10T23:03:46.203097Z,0.672502,-0.2387,-1.292368
2018-10-10T23:03:46.382097Z,-0.154803,0.296306,0.9766
2018-10-10T23:03:46.570097Z,-0.734279,-1.127157,1.132384
2018-10-10T23:03:46.768097Z,-0.612984,-0.788509,-0.6781739999999999
2018-10-10T23:03:46.969097Z,0.615745,-0.687081,-0.257855
2018-10-10T23:03:47.170097Z,0.945254,0.06321,1.343758
2018-10-10T23:03:47.369097Z,0.51586,-1.514124,-0.248259
2018-10-10T23:03:47.570097Z,0.741725,-0.5575319999999999,-1.152491
2018-10-10T23:03:47.771097Z,0.53323,0.47458999999999996,0.337267
2018-10-10T23:03:47.971097Z,0.716619,-1.02777,-0.02814
2018-10-10T23:03:48.169097Z,1.0309549999999998,-0.456325,-0.825412
2018-10-10T23:03:48.369097Z,1.442404,0.946398,-0.31504
2018-10-10T23:03:48.570097Z,-0.127857,0.085408,2.2948880000000003
2018-10-10T23:03:48.770097Z,0.48521400000000003,-0.345646,-1.3846040000000002
2018-10-10T23:03:48.970097Z,1.219374,1.471216,1.037648
2018-10-10T23:03:49.170097Z,1.27424,-0.49523900000000004,2.1047029999999998
2018-10-10T23:03:49.370097Z,0.8635079999999999,-1.05019,-1.4479870000000001
2018-10-10T23:03:49.571097Z,-0.45925200000000005,0.015906,2.273562
2018-10-10T23:03:49.771097Z,0.989041,-0.907474,-1.490691
2018-10-10T23:03:49.971097Z,0.949592,0.008106,-0.871137
2018-10-10T23:03:50.170097Z,0.661993,0.349059,2.543344
2018-10-10T23:03:50.372097Z,0.023923,-0.519573,-0.874124
2018-10-10T23:03:50.571097Z,0.221965,0.013907,2.654093
2018-10-10T23:03:50.771097Z,-0.38343499999999997,-1.203225,-0.736291
2018-10-10T23:03:50.973097Z,0.21839699999999998,-0.43465,-1.742315
2018-10-10T23:03:51.173097Z,0.762008,-0.7802359999999999,0.626927
2018-10-10T23:03:51.389097Z,0.5628380000000001,-0.6844600000000001,-1.9384919999999999
2018-10-10T23:03:51.572097Z,0.12167,0.38979600000000003,1.893807
2018-10-10T23:03:51.772097Z,0.469983,-0.736162,1.181092
2018-10-10T23:03:51.973097Z,0.7834800000000001,-0.592769,1.4802520000000001
2018-10-10T23:03:52.176097Z,0.28063299999999997,-0.379058,1.170181
2018-10-10T23:03:52.372097Z,0.464987,-1.0268190000000001,-1.73902
2018-10-10T23:03:52.587097Z,-0.36082,0.360582,0.324504
2018-10-10T23:03:52.774097Z,0.56372,-1.335387,-1.035709
