Datetime,accx,accy,accz
2018-10-16T00:30:52.713685Z,-0.07733200000000001,-0.269836,0.906616
2018-10-16T00:30:52.901685Z,1.244263,2.986816,-0.998718
2018-10-16T00:30:53.101685Z,1.0341799999999999,-0.007690000000000001,-0.47564700000000004
2018-10-16T00:30:53.294685Z,-0.084351,0.209473,0.300171
2018-10-16T00:30:53.495685Z,0.32800300000000004,-0.29394499999999996,1.36615
2018-10-16T00:30:53.694685Z,-0.9143680000000001,-0.183533,-0.292053
2018-10-16T00:30:53.896685Z,0.819153,-0.10907,0.214905
2018-10-16T00:30:54.095685Z,-0.000916,-1.263367,1.388367
2018-10-16T00:30:54.295685Z,1.6962279999999998,-0.20965599999999998,-1.4818120000000001
2018-10-16T00:30:54.526685Z,0.606995,0.324402,0.9972530000000001
2018-10-16T00:30:54.701685Z,0.512085,-0.780884,1.574219
2018-10-16T00:30:54.904685Z,0.100708,-0.278992,-0.36322
2018-10-16T00:30:55.208685Z,0.520813,0.880249,0.02301
2018-10-16T00:30:55.292685Z,1.163818,1.009277,-0.9071040000000001
2018-10-16T00:30:55.496685Z,0.49658199999999997,-0.524414,1.0534059999999998
2018-10-16T00:30:55.695685Z,0.7348020000000001,0.216125,-1.6818240000000002
2018-10-16T00:30:55.894685Z,0.382324,2.699341,-0.38739
2018-10-16T00:30:56.093685Z,0.7738649999999999,-0.065491,3.0985720000000003
2018-10-16T00:30:56.294685Z,-0.041443,-0.09301799999999999,-0.525085
2018-10-16T00:30:56.493685Z,0.141785,0.50946,-1.060913
2018-10-16T00:30:56.713685Z,0.11041300000000001,1.621704,-0.212646
2018-10-16T00:30:56.895685Z,0.024719,1.163879,-0.737427
2018-10-16T00:30:57.095685Z,0.674927,0.248901,-0.21087600000000004
2018-10-16T00:30:57.294685Z,1.595642,0.695496,-0.46521
2018-10-16T00:30:57.491685Z,1.733948,1.387451,-0.564392
2018-10-16T00:30:57.695685Z,0.658936,1.385437,0.192932
2018-10-16T00:30:57.894685Z,0.030518,0.242554,1.097656
2018-10-16T00:30:58.093685Z,-1.313782,-0.432007,-0.945312
2018-10-16T00:30:58.294685Z,-0.809509,0.278442,-0.660767
2018-10-16T00:30:58.570685Z,-1.6618650000000001,1.8337400000000001,-3.80957
2018-10-16T00:30:58.699685Z,-0.159973,0.375427,-0.9729610000000001
2018-10-16T00:30:58.902685Z,0.200317,1.308716,-2.5151369999999997
2018-10-16T00:30:59.100685Z,0.03302,1.7506709999999999,-0.45629899999999995
2018-10-16T00:30:59.294685Z,-1.632019,-0.45843500000000004,0.72467
2018-10-16T00:30:59.496685Z,-0.608215,0.283875,-1.150391
2018-10-16T00:30:59.694685Z,-0.6796260000000001,1.096619,-0.879761
2018-10-16T00:30:59.957685Z,0.273071,0.5639649999999999,-0.22345
2018-10-16T00:31:00.100685Z,-0.9225459999999999,0.16131600000000001,0.553894
2018-10-16T00:31:00.303685Z,-1.8073119999999998,0.730225,-1.410034
2018-10-16T00:31:00.485685Z,-2.7802119999999997,-2.846802,2.7838130000000003
2018-10-16T00:31:00.693685Z,-2.069397,-0.029480000000000003,-1.624023
2018-10-16T00:31:00.895685Z,-0.127563,1.513855,0.698181
2018-10-16T00:31:01.094685Z,-0.127747,-0.219849,0.919006
2018-10-16T00:31:01.294685Z,0.164185,0.7229,-2.359985
2018-10-16T00:31:01.496685Z,-0.852173,1.9537349999999998,0.383789
2018-10-16T00:31:01.690685Z,-1.330566,-0.10504200000000001,0.6987300000000001
2018-10-16T00:31:01.896685Z,-0.530151,1.068481,-0.725891
2018-10-16T00:31:02.100685Z,-0.831177,1.06781,0.297363
2018-10-16T00:31:02.309685Z,-2.589355,0.584167,-4.157532
2018-10-16T00:31:02.500685Z,-0.396729,0.790771,-0.715576
2018-10-16T00:31:02.695685Z,-1.3812870000000002,1.06311,-0.269775
2018-10-16T00:31:02.898685Z,-1.489868,0.927185,-1.815002
2018-10-16T00:31:03.108685Z,-0.766113,0.9575809999999999,-0.108215
2018-10-16T00:31:03.292685Z,-0.349792,0.6740109999999999,-0.00415
2018-10-16T00:31:03.500685Z,-0.590881,-0.47949200000000003,0.057250999999999996
2018-10-16T00:31:03.694685Z,-0.391541,0.648804,-0.538269
2018-10-16T00:31:03.936685Z,-0.94342,1.6474,0.447205
2018-10-16T00:31:04.106685Z,-0.961426,-0.254333,-0.648926
2018-10-16T00:31:04.307685Z,-0.627441,1.2003780000000002,-2.065552
2018-10-16T00:31:04.508685Z,-0.52594,1.508484,0.809814
2018-10-16T00:31:04.894685Z,-0.15673800000000002,0.171509,-0.22314499999999998
2018-10-16T00:31:05.094685Z,-0.611694,0.997864,-0.370728
2018-10-16T00:31:05.295685Z,-1.8062740000000002,0.7846069999999999,-0.11993399999999999
2018-10-16T00:31:05.494685Z,-1.539856,0.60907,-2.279785
2018-10-16T00:31:05.694685Z,-0.950256,1.4599,-0.776489
2018-10-16T00:31:05.896685Z,-0.677429,0.036377,2.771729
2018-10-16T00:31:06.171685Z,-0.581177,0.868713,-2.552124
2018-10-16T00:31:06.313685Z,-1.2036129999999998,0.99646,0.208862
2018-10-16T00:31:06.504685Z,-1.7075810000000002,-0.9005129999999999,-0.47387700000000005
2018-10-16T00:31:06.701685Z,-0.832275,0.791626,-0.9292600000000001
2018-10-16T00:31:06.895685Z,-0.017456,1.486694,0.363708
2018-10-16T00:31:07.096685Z,-0.766785,-0.595093,0.738892
2018-10-16T00:31:07.295685Z,-1.412231,0.8172,0.878174
2018-10-16T00:31:07.500685Z,-2.184509,0.183594,-0.354553
2018-10-16T00:31:07.695685Z,-1.1564940000000001,1.265686,-2.008423
2018-10-16T00:31:07.904685Z,-1.580322,1.16449,0.374268
2018-10-16T00:31:08.102685Z,-1.6533810000000002,0.38385,-1.468201
2018-10-16T00:31:08.316685Z,-1.754578,0.620728,-0.651123
2018-10-16T00:31:08.494685Z,-2.000732,0.5021359999999999,0.7749020000000001
2018-10-16T00:31:08.695685Z,-2.159241,-1.2346190000000001,-0.21606399999999998
2018-10-16T00:31:08.909685Z,-1.330994,0.240662,-0.43829300000000004
2018-10-16T00:31:09.094685Z,-0.634888,1.302185,0.24291999999999997
2018-10-16T00:31:09.294685Z,-0.522461,0.49688699999999997,-1.0305790000000001
2018-10-16T00:31:09.493685Z,0.152771,0.428284,-1.9368290000000001
2018-10-16T00:31:09.694685Z,-1.092041,1.9705810000000001,0.601196
2018-10-16T00:31:09.893685Z,-2.291504,0.30236799999999997,1.278076
2018-10-16T00:31:10.094685Z,-1.4596559999999998,0.26556399999999997,-0.48413100000000003
2018-10-16T00:31:10.296685Z,-1.098877,1.022583,-0.308899
2018-10-16T00:31:10.495685Z,-0.6911619999999999,-0.15618900000000002,0.46795699999999996
2018-10-16T00:31:10.728685Z,-1.52417,1.0844120000000002,-3.7523800000000005
2018-10-16T00:31:10.895685Z,-0.731201,0.361877,-0.8364870000000001
2018-10-16T00:31:11.095685Z,-1.468872,0.254517,-0.5703739999999999
2018-10-16T00:31:11.296685Z,-2.353271,-0.01355,-0.721436
2018-10-16T00:31:11.496685Z,-1.0874629999999998,0.980957,-0.177795
2018-10-16T00:31:11.696685Z,-0.7463380000000001,1.6073,-0.543884
2018-10-16T00:31:11.895685Z,0.027405000000000002,-0.9600219999999999,2.197388
2018-10-16T00:31:12.095685Z,0.44006300000000004,0.12286400000000001,-2.0337520000000002
2018-10-16T00:31:12.294685Z,-0.352173,1.700623,-0.09979199999999999
2018-10-16T00:31:12.538685Z,-1.068298,0.166199,1.06958
2018-10-16T00:31:12.703685Z,-0.756042,0.019104,-1.38208
2018-10-16T00:31:12.895685Z,-0.96405,1.481384,-1.061218
2018-10-16T00:31:13.112685Z,-0.234985,-0.268921,2.369873
2018-10-16T00:31:13.294685Z,-0.236389,0.8916629999999999,-2.0539549999999998
2018-10-16T00:31:13.495685Z,-0.596497,1.2597049999999999,0.40820300000000004
2018-10-16T00:31:13.694685Z,-1.229126,-1.400757,1.4261469999999998
2018-10-16T00:31:13.894685Z,0.551819,-0.464966,-0.817322
2018-10-16T00:31:14.095685Z,-0.130615,1.074036,1.127991
2018-10-16T00:31:14.294685Z,-0.19134500000000002,-0.505554,-1.808777
2018-10-16T00:31:14.492685Z,-0.257446,-0.686584,0.574951
2018-10-16T00:31:14.696685Z,0.067993,-0.090515,-0.32513400000000003
2018-10-16T00:31:14.911685Z,-0.863403,0.43963599999999997,-1.352783
2018-10-16T00:31:15.085685Z,0.098999,-0.30633499999999997,-0.6948850000000001
2018-10-16T00:31:15.295685Z,-0.445312,0.176758,-0.762451
2018-10-16T00:31:15.498685Z,-0.05835,0.117493,-0.8783569999999999
2018-10-16T00:31:15.694685Z,-1.412109,1.1785889999999999,0.043945
2018-10-16T00:31:15.906685Z,-0.624329,0.907166,0.661072
2018-10-16T00:31:16.107685Z,-0.15033,0.35430900000000004,0.536377
2018-10-16T00:31:16.294685Z,0.130432,0.960815,-0.150574
2018-10-16T00:31:16.493685Z,0.40625,1.3687129999999998,-0.161743
2018-10-16T00:31:16.738685Z,-0.9901120000000001,0.10461400000000001,0.010986
2018-10-16T00:31:16.895685Z,-0.572998,0.195496,-0.628845
2018-10-16T00:31:17.094685Z,0.229187,0.9191280000000001,-0.125671
2018-10-16T00:31:17.294685Z,0.22961399999999998,0.33758499999999997,-0.046082
2018-10-16T00:31:17.493685Z,2.050659,-0.730042,-1.6540529999999998
2018-10-16T00:31:17.712685Z,2.236328,0.209473,-1.899902
2018-10-16T00:31:17.894685Z,0.291321,1.496155,0.075623
2018-10-16T00:31:18.095685Z,0.205688,0.31866500000000003,0.082275
2018-10-16T00:31:18.297685Z,-0.785828,-0.411987,-0.758972
2018-10-16T00:31:18.493685Z,-0.596863,0.966675,-1.061035
2018-10-16T00:31:18.702685Z,-0.324829,2.026123,0.085938
2018-10-16T00:31:18.897685Z,0.9944459999999999,0.044006,0.16802999999999998
2018-10-16T00:31:19.100685Z,0.872131,1.035706,-2.46991
2018-10-16T00:31:19.295685Z,-0.220642,1.7091060000000002,0.639832
2018-10-16T00:31:19.494685Z,0.082825,-1.872925,1.6175540000000002
2018-10-16T00:31:19.697685Z,-0.226685,0.643188,-0.765442
2018-10-16T00:31:20.094685Z,-0.06219500000000001,0.840515,-0.41095
2018-10-16T00:31:20.294685Z,0.306519,0.83429,-2.851562
2018-10-16T00:31:20.493685Z,-0.55957,0.684692,-1.4956049999999999
2018-10-16T00:31:20.699685Z,0.612244,0.935425,0.5348510000000001
2018-10-16T00:31:20.900685Z,-0.044556,-1.067688,0.9702149999999999
2018-10-16T00:31:21.100685Z,-0.276611,-0.982605,0.399048
2018-10-16T00:31:21.290685Z,-0.472778,0.428101,-0.215881
2018-10-16T00:31:21.501685Z,-0.11956800000000001,0.499817,-1.051392
2018-10-16T00:31:21.706685Z,-0.401428,0.002075,-0.089111
2018-10-16T00:31:21.895685Z,-0.157227,-0.23669400000000002,-0.207092
2018-10-16T00:31:22.093685Z,0.448608,-0.636658,0.220764
2018-10-16T00:31:22.294685Z,-0.300415,-0.366638,0.190918
2018-10-16T00:31:22.494685Z,-0.544006,0.536133,-0.20751999999999998
2018-10-16T00:31:22.697685Z,-0.63562,0.451416,-0.8410639999999999
2018-10-16T00:31:22.909685Z,-0.953674,0.718567,0.769775
2018-10-16T00:31:23.105685Z,-0.551086,1.419861,-0.674561
2018-10-16T00:31:23.304685Z,-0.860107,0.191895,0.6755979999999999
2018-10-16T00:31:23.503685Z,0.273071,-1.817261,2.735046
2018-10-16T00:31:23.703685Z,0.643188,-0.446838,-0.085754
2018-10-16T00:31:23.904685Z,0.13403299999999999,0.267822,0.79718
2018-10-16T00:31:24.103685Z,-0.049744,-1.972595,-0.615417
2018-10-16T00:31:24.304685Z,0.045166000000000005,-0.673584,-1.154236
2018-10-16T00:31:24.504685Z,-0.63092,0.271973,0.014893
2018-10-16T00:31:24.706685Z,1.074524,-1.7519529999999999,0.116211
2018-10-16T00:31:24.911685Z,-0.10119600000000001,-0.394958,-1.77594
2018-10-16T00:31:25.113685Z,0.132874,0.600342,0.13153099999999998
2018-10-16T00:31:25.313685Z,1.1761469999999998,-2.033569,0.9716799999999999
2018-10-16T00:31:25.505685Z,-0.66864,-1.248291,-0.8863530000000001
2018-10-16T00:31:25.706685Z,-1.298645,0.079468,0.612244
2018-10-16T00:31:25.905685Z,-0.559692,-0.159119,0.052368
2018-10-16T00:31:26.119685Z,-0.30688499999999996,-1.288208,0.405823
2018-10-16T00:31:26.306685Z,0.738953,-0.931458,-0.213684
2018-10-16T00:31:26.505685Z,-0.300781,-0.26061999999999996,-0.306091
2018-10-16T00:31:26.737685Z,-0.380127,0.38256799999999996,-0.399841
2018-10-16T00:31:26.904685Z,-0.41522200000000004,-1.045105,0.16656500000000002
2018-10-16T00:31:27.105685Z,-1.816284,-1.458618,-1.307739
2018-10-16T00:31:27.310685Z,-2.4642939999999998,-0.640991,0.246216
2018-10-16T00:31:27.504685Z,-1.606384,-0.090271,-0.220398
2018-10-16T00:31:27.704685Z,-1.772949,0.505005,-0.211853
2018-10-16T00:31:27.900685Z,-0.9017940000000001,-0.6984859999999999,0.169678
2018-10-16T00:31:28.105685Z,-0.647095,-0.637939,0.48120100000000005
2018-10-16T00:31:28.304685Z,-0.299927,-0.662231,-0.857727
2018-10-16T00:31:28.504685Z,-0.436584,0.355103,-0.24908400000000003
2018-10-16T00:31:28.705685Z,-1.1940309999999998,0.117249,0.308228
2018-10-16T00:31:28.907685Z,-2.0755,-1.428467,-0.554871
2018-10-16T00:31:29.112685Z,-2.006165,-0.297546,-0.34619099999999997
2018-10-16T00:31:29.311685Z,-2.213806,0.332886,-0.931091
2018-10-16T00:31:29.505685Z,-2.187378,0.700684,-0.21844499999999997
2018-10-16T00:31:29.709685Z,-1.6165770000000002,-1.184082,3.405518
2018-10-16T00:31:29.905685Z,-0.073303,-0.081726,-1.8671259999999998
2018-10-16T00:31:30.104685Z,-0.291565,1.0939940000000001,-0.026062000000000002
2018-10-16T00:31:30.304685Z,-0.461121,0.426208,-0.437195
2018-10-16T00:31:30.504685Z,-1.918396,-0.587463,-1.195374
2018-10-16T00:31:30.694685Z,-1.224854,-0.21826199999999998,-0.9780270000000001
2018-10-16T00:31:30.914685Z,-1.6026610000000001,0.614441,-0.120056
2018-10-16T00:31:31.110685Z,-0.893127,-0.256104,0.66333
2018-10-16T00:31:31.354685Z,-0.128662,-0.312683,-0.118896
2018-10-16T00:31:31.516685Z,-0.37182600000000005,0.8399049999999999,0.001343
2018-10-16T00:31:31.707685Z,-0.083984,0.9526979999999999,-0.588623
2018-10-16T00:31:31.910685Z,-0.606384,-0.46820100000000003,0.459595
2018-10-16T00:31:32.105685Z,-0.8518680000000001,-1.4769290000000002,-0.29657
2018-10-16T00:31:32.304685Z,0.27368200000000004,0.263733,-0.20471199999999998
2018-10-16T00:31:32.506685Z,-0.701721,-0.269104,1.35553
2018-10-16T00:31:32.705685Z,-1.239258,-2.107666,0.38385
2018-10-16T00:31:32.904685Z,0.012512,-0.755371,-0.364014
2018-10-16T00:31:33.139685Z,-0.644165,0.521301,-0.8316040000000001
2018-10-16T00:31:33.320685Z,-0.49157700000000004,-4.136414,3.8950199999999997
2018-10-16T00:31:33.512685Z,-1.931702,-0.7856449999999999,0.46185299999999996
2018-10-16T00:31:33.711685Z,-1.768188,0.08557100000000001,-0.873901
2018-10-16T00:31:33.905685Z,-1.963623,1.19458,0.535706
2018-10-16T00:31:34.302685Z,-0.520813,-1.145996,1.2379149999999999
2018-10-16T00:31:34.508685Z,-1.032043,-0.304749,-0.8822629999999999
2018-10-16T00:31:34.705685Z,-1.5684200000000001,0.621155,-0.805664
2018-10-16T00:31:34.906685Z,-2.3823849999999998,0.8918459999999999,-0.341248
2018-10-16T00:31:35.106685Z,-2.6179810000000003,0.7288819999999999,-1.6505130000000001
2018-10-16T00:31:35.315685Z,-1.891541,0.100708,-0.732117
2018-10-16T00:31:35.505685Z,-3.086182,0.680725,0.136658
2018-10-16T00:31:35.704685Z,-2.7536009999999997,-0.619995,0.090759
2018-10-16T00:31:35.904685Z,-1.563477,0.38256799999999996,0.575134
2018-10-16T00:31:36.105685Z,-1.2276610000000001,2.146362,-0.233276
2018-10-16T00:31:36.308685Z,-1.640686,-0.7922359999999999,1.766663
2018-10-16T00:31:36.506685Z,-0.836426,0.44213900000000006,-0.966309
2018-10-16T00:31:36.704685Z,-1.8337400000000001,1.716431,-0.590698
2018-10-16T00:31:36.903685Z,-2.194092,1.7625119999999999,0.9862059999999999
2018-10-16T00:31:37.104685Z,-1.778625,0.823364,-0.9089360000000001
2018-10-16T00:31:37.303685Z,-0.57019,0.835144,0.25750700000000004
2018-10-16T00:31:37.520685Z,0.191895,2.385742,-0.556824
2018-10-16T00:31:37.706685Z,-0.591797,1.009277,0.05011
2018-10-16T00:31:37.911685Z,-0.09729,0.31012,-0.10192899999999999
2018-10-16T00:31:38.111685Z,0.025818,1.604614,-0.8716430000000001
2018-10-16T00:31:38.305685Z,0.978699,1.349792,0.645081
2018-10-16T00:31:38.506685Z,1.076904,-0.252625,1.0512700000000001
2018-10-16T00:31:38.705685Z,0.793823,0.776733,0.626526
2018-10-16T00:31:38.927685Z,0.463074,2.041931,0.658569
2018-10-16T00:31:39.110685Z,0.094604,2.6789549999999998,-0.433655
2018-10-16T00:31:39.311685Z,-1.687561,-0.43621800000000005,-0.052368
2018-10-16T00:31:39.507685Z,-1.303894,2.0985720000000003,-1.21106
2018-10-16T00:31:39.704685Z,-0.706238,1.874268,-0.064148
2018-10-16T00:31:39.913685Z,-0.687012,0.561768,0.8023680000000001
2018-10-16T00:31:40.106685Z,-1.110901,1.463684,-2.5354
2018-10-16T00:31:40.304685Z,-0.9999389999999999,2.180908,-2.020874
2018-10-16T00:31:40.503685Z,-2.672485,1.02063,0.6915279999999999
2018-10-16T00:31:40.703685Z,-2.124695,0.872559,-2.27478
2018-10-16T00:31:40.912685Z,-0.678589,0.9888309999999999,-0.169373
2018-10-16T00:31:41.110685Z,-1.2227780000000001,1.025635,1.121155
2018-10-16T00:31:41.300685Z,-0.420959,0.812805,-1.599304
2018-10-16T00:31:41.520685Z,-0.572083,0.9721069999999999,0.013244999999999998
2018-10-16T00:31:41.702685Z,-0.59137,-1.14093,1.9149779999999998
2018-10-16T00:31:41.919685Z,-1.2284549999999999,0.41882299999999995,0.080688
2018-10-16T00:31:42.109685Z,-1.1293950000000001,0.6247560000000001,-1.280273
2018-10-16T00:31:42.304685Z,-1.864441,1.068359,0.327271
2018-10-16T00:31:42.504685Z,-1.2583010000000001,0.656433,0.971741
2018-10-16T00:31:42.706685Z,1.410767,0.06781000000000001,-1.006104
2018-10-16T00:31:42.904685Z,1.227112,-0.000122,-1.4476930000000001
2018-10-16T00:31:43.130685Z,1.270569,0.638733,-0.8203739999999999
2018-10-16T00:31:43.303685Z,0.370667,0.561157,-0.513733
2018-10-16T00:31:43.509685Z,0.7593989999999999,-0.5700069999999999,-2.245911
2018-10-16T00:31:43.720685Z,1.198181,0.672485,1.649719
2018-10-16T00:31:43.905685Z,0.71759,0.5939939999999999,0.037354000000000005
2018-10-16T00:31:44.105685Z,1.792297,-1.393738,4.599487
2018-10-16T00:31:44.304685Z,0.087341,0.8609620000000001,-1.064575
2018-10-16T00:31:44.504685Z,0.323669,1.2214969999999998,-0.332764
2018-10-16T00:31:44.711685Z,-0.07885700000000001,0.11138900000000002,0.30395500000000003
2018-10-16T00:31:44.911685Z,-0.0014039999999999999,0.154358,-1.1800540000000002
2018-10-16T00:31:45.119685Z,-0.116943,1.4555049999999998,-0.807556
2018-10-16T00:31:45.311685Z,0.032898000000000004,1.286621,-0.598511
2018-10-16T00:31:45.510685Z,-0.320862,0.479004,-0.146973
2018-10-16T00:31:45.701685Z,0.075806,0.729553,-0.41955600000000004
2018-10-16T00:31:45.910685Z,-0.308411,1.166809,0.025330000000000002
2018-10-16T00:31:46.112685Z,-0.7689819999999999,-0.028808999999999998,-1.3773799999999998
2018-10-16T00:31:46.310685Z,-3.706238,-0.074463,-1.9923099999999998
2018-10-16T00:31:46.506685Z,-1.9240720000000002,-0.816711,0.50116
2018-10-16T00:31:46.705685Z,-0.62207,0.5993649999999999,0.204163
2018-10-16T00:31:46.905685Z,-1.2803959999999999,-0.74292,2.718018
2018-10-16T00:31:47.105685Z,0.873718,-0.818604,0.003296
2018-10-16T00:31:47.311685Z,-0.15856900000000002,0.737488,-0.546936
2018-10-16T00:31:47.534685Z,-0.950073,0.636536,-0.87085
2018-10-16T00:31:47.706685Z,-1.307922,-1.5846559999999998,0.731873
2018-10-16T00:31:47.908685Z,0.424072,-1.275269,-2.762634
2018-10-16T00:31:48.116685Z,0.136475,-0.963074,3.0912479999999998
2018-10-16T00:31:48.304685Z,1.541199,0.27069099999999996,-1.00116
2018-10-16T00:31:48.504685Z,0.48193400000000003,1.533203,-0.820068
2018-10-16T00:31:48.701685Z,-1.155823,-3.087524,0.9017940000000001
2018-10-16T00:31:48.904685Z,-1.113281,-1.077942,0.013184
2018-10-16T00:31:49.112685Z,-0.569458,-0.049866,-1.162048
2018-10-16T00:31:49.304685Z,-0.353333,0.37817399999999995,-0.04541
2018-10-16T00:31:49.516685Z,-0.7738649999999999,1.253418,-0.744568
2018-10-16T00:31:49.912685Z,1.445129,-0.28595,0.035461
2018-10-16T00:31:50.106685Z,2.468384,-0.726013,-0.033875
2018-10-16T00:31:50.305685Z,1.3152469999999998,-1.401062,4.172119
2018-10-16T00:31:50.507685Z,1.667297,0.582581,-0.357788
2018-10-16T00:31:50.704685Z,2.524353,1.516602,-1.532227
2018-10-16T00:31:50.903685Z,1.234436,2.428467,0.348389
2018-10-16T00:31:51.104685Z,-0.8781129999999999,-2.216431,-0.013672
2018-10-16T00:31:51.303685Z,-0.961975,-0.386719,-0.758972
2018-10-16T00:31:51.506685Z,-0.3797,1.057556,-1.146484
2018-10-16T00:31:51.706685Z,-0.459534,0.692932,-0.540039
2018-10-16T00:31:51.911685Z,-0.22973600000000002,0.418213,-0.715576
2018-10-16T00:31:52.105685Z,-1.6798099999999998,0.786011,-2.752441
2018-10-16T00:31:52.304685Z,-0.363708,0.664856,0.008606
2018-10-16T00:31:52.506685Z,-0.299133,0.544983,0.520081
2018-10-16T00:31:52.706685Z,0.6719970000000001,-1.862671,1.640137
2018-10-16T00:31:52.904685Z,0.701477,-0.11731,-1.5139770000000001
2018-10-16T00:31:53.103685Z,0.601318,-0.60321,1.076416
2018-10-16T00:31:53.309685Z,-0.13525399999999999,-0.932861,0.524353
2018-10-16T00:31:53.504685Z,-0.09197999999999999,-0.793701,-0.857727
2018-10-16T00:31:53.721685Z,-0.011108,0.06347699999999999,-0.651306
2018-10-16T00:31:53.922685Z,-0.329102,-0.095886,-0.632568
2018-10-16T00:31:54.103685Z,-0.436829,-0.8519899999999999,-1.63324
2018-10-16T00:31:54.309685Z,-0.980042,0.41125500000000004,0.053101
2018-10-16T00:31:54.504685Z,-0.7167359999999999,1.305359,-1.073364
2018-10-16T00:31:54.705685Z,0.123108,0.941162,-0.571106
2018-10-16T00:31:54.903685Z,0.15863,-0.804932,-0.359192
2018-10-16T00:31:55.105685Z,-0.169739,0.620911,-0.245667
2018-10-16T00:31:55.324685Z,0.21350100000000002,0.728943,0.051636
2018-10-16T00:31:55.502685Z,-0.41626,-1.52594,-1.3046879999999998
2018-10-16T00:31:55.703685Z,-1.131958,-0.6892699999999999,-1.6614380000000002
2018-10-16T00:31:55.906685Z,-0.698975,-0.162659,-0.218689
2018-10-16T00:31:56.115685Z,-0.719849,-0.06628400000000001,0.168213
2018-10-16T00:31:56.307685Z,-0.435913,-1.1469120000000002,-0.8190310000000001
2018-10-16T00:31:56.497685Z,-0.604126,-0.47943100000000005,-1.062866
2018-10-16T00:31:56.708685Z,-0.761536,0.106262,-0.25299099999999997
2018-10-16T00:31:56.906685Z,-1.211914,-0.23016399999999998,0.488892
2018-10-16T00:31:57.106685Z,-2.192871,-2.1922,-1.8194580000000002
2018-10-16T00:31:57.313685Z,-2.705078,0.151123,-1.121338
2018-10-16T00:31:57.504685Z,-1.412415,0.680542,0.657043
2018-10-16T00:31:57.704685Z,-0.970764,-0.998657,0.9254760000000001
2018-10-16T00:31:57.904685Z,-0.44573999999999997,-0.164551,-0.51178
2018-10-16T00:31:58.105685Z,-1.4915770000000002,1.0494379999999999,0.335876
2018-10-16T00:31:58.309685Z,-2.022461,-0.6757810000000001,0.43603500000000006
2018-10-16T00:31:58.510685Z,-2.042786,-0.9526370000000001,-0.437378
2018-10-16T00:31:58.732685Z,-1.42981,-0.361267,0.035461
2018-10-16T00:31:58.904685Z,-0.8493649999999999,-0.729858,-0.388733
2018-10-16T00:31:59.104685Z,1.042969,-0.7797850000000001,-1.185974
2018-10-16T00:31:59.305685Z,-0.22723400000000002,0.7954100000000001,1.3477780000000001
2018-10-16T00:31:59.505685Z,-0.378723,-0.042602999999999995,-3.0669560000000002
2018-10-16T00:31:59.704685Z,-2.862061,-1.322266,1.360474
2018-10-16T00:31:59.905685Z,-2.258057,-0.907959,-1.7821040000000001
2018-10-16T00:32:00.104685Z,0.373108,-0.578613,-0.06072999999999999
2018-10-16T00:32:00.305685Z,1.580017,-1.043884,1.641052
2018-10-16T00:32:00.505685Z,-1.110596,2.417236,3.3474730000000004
2018-10-16T00:32:00.704685Z,-1.2495120000000002,-1.1958010000000001,-1.054138
2018-10-16T00:32:00.904685Z,-2.979004,-2.218872,-0.5562739999999999
2018-10-16T00:32:01.103685Z,-1.6959229999999998,-0.717468,-0.747314
2018-10-16T00:32:01.300685Z,-0.651978,0.018372,-0.427795
2018-10-16T00:32:01.505685Z,-1.5578610000000002,0.47949200000000003,-1.4509889999999999
2018-10-16T00:32:01.705685Z,-0.7846069999999999,-0.724792,-0.375488
2018-10-16T00:32:01.904685Z,-1.5221559999999998,0.11554,-0.21038800000000002
2018-10-16T00:32:02.103685Z,-1.3793950000000001,-0.389282,-0.262878
2018-10-16T00:32:02.304685Z,-1.249023,-0.686646,-0.399841
2018-10-16T00:32:02.546685Z,-1.196899,0.073792,0.480103
2018-10-16T00:32:02.709685Z,-0.970276,-0.041260000000000005,-0.07489
2018-10-16T00:32:02.911685Z,-0.678162,0.081116,0.310913
2018-10-16T00:32:03.121685Z,0.190247,0.19812000000000002,-0.11486800000000001
2018-10-16T00:32:03.304685Z,0.8571780000000001,-1.08728,0.047974
2018-10-16T00:32:03.504685Z,3.0910029999999997,-0.5001220000000001,2.429749
2018-10-16T00:32:03.706685Z,1.239502,-2.17041,-1.8537599999999999
2018-10-16T00:32:03.904685Z,1.596375,-0.9593510000000001,-1.9905400000000002
2018-10-16T00:32:04.105685Z,0.985535,1.9658810000000002,0.123047
2018-10-16T00:32:04.305685Z,-1.855164,-0.520752,0.19958499999999998
2018-10-16T00:32:04.507685Z,-1.6166989999999999,0.397461,-1.3329469999999999
2018-10-16T00:32:04.709685Z,0.939392,0.555359,0.9008790000000001
2018-10-16T00:32:05.104685Z,-0.266357,0.90094,-1.2855219999999998
2018-10-16T00:32:05.303685Z,-0.199219,-0.0008539999999999999,0.200439
2018-10-16T00:32:05.504685Z,0.182617,-0.312866,-0.352478
2018-10-16T00:32:05.724685Z,-0.068481,-0.6797489999999999,-0.232239
2018-10-16T00:32:05.902685Z,-0.251709,0.897034,-0.014525999999999999
2018-10-16T00:32:06.122685Z,0.10943599999999999,0.914734,-0.528564
2018-10-16T00:32:06.314685Z,-0.8473510000000001,0.705444,-1.405151
2018-10-16T00:32:06.505685Z,-0.14416500000000002,1.500793,0.661133
2018-10-16T00:32:06.705685Z,1.5065309999999998,-1.087769,7.525939999999999
2018-10-16T00:32:06.905685Z,1.3427120000000001,-0.54071,-1.6619869999999999
2018-10-16T00:32:07.105685Z,-0.204407,1.255249,1.9892580000000002
2018-10-16T00:32:07.304685Z,-0.225037,-2.731262,-0.627502
2018-10-16T00:32:07.501685Z,-0.542175,-1.153442,-0.181763
2018-10-16T00:32:07.718685Z,0.054871,-1.281067,1.1866459999999999
2018-10-16T00:32:07.914685Z,0.12054400000000001,0.12658699999999998,-0.35992399999999997
2018-10-16T00:32:08.116685Z,-0.7619630000000001,0.100708,-0.528809
2018-10-16T00:32:08.301685Z,0.269531,1.402405,0.02887
2018-10-16T00:32:08.501685Z,0.7409060000000001,1.125549,-0.5311279999999999
2018-10-16T00:32:08.704685Z,0.077271,-1.9529419999999997,1.906982
2018-10-16T00:32:08.910685Z,-0.259155,0.809387,0.598206
2018-10-16T00:32:09.104685Z,-1.182434,0.977844,-0.101685
2018-10-16T00:32:09.304685Z,-1.716309,-2.725708,-1.179016
2018-10-16T00:32:09.504685Z,-1.671936,-1.02063,-0.553894
2018-10-16T00:32:09.703685Z,-0.45605500000000004,-0.413208,-0.10607899999999999
2018-10-16T00:32:09.930685Z,-1.155823,-0.710083,1.159424
2018-10-16T00:32:10.103685Z,-0.988281,-0.011597,-0.011840999999999999
2018-10-16T00:32:10.305685Z,-0.853455,-0.232361,-0.031616000000000005
2018-10-16T00:32:10.505685Z,-1.975037,0.038452,-0.581055
2018-10-16T00:32:10.705685Z,-0.86615,-0.11731,0.6682739999999999
2018-10-16T00:32:10.904685Z,0.491882,0.594849,-1.657593
2018-10-16T00:32:11.105685Z,0.06286599999999999,-0.569275,-0.303833
2018-10-16T00:32:11.304685Z,0.499695,-0.635681,-0.131165
2018-10-16T00:32:11.501685Z,0.306946,0.10131799999999999,-0.044128
2018-10-16T00:32:11.703685Z,-0.134155,-0.881409,0.661316
2018-10-16T00:32:11.968685Z,-0.414734,-1.0745850000000001,0.6755979999999999
2018-10-16T00:32:12.105685Z,-0.458801,-0.460938,-1.083191
2018-10-16T00:32:12.303685Z,-0.137329,-0.05859400000000001,-0.44433599999999995
2018-10-16T00:32:12.512685Z,-0.386963,-1.121094,0.7344970000000001
2018-10-16T00:32:12.717685Z,0.663025,-0.368713,-0.486206
2018-10-16T00:32:12.895685Z,1.460266,-1.06073,1.042908
2018-10-16T00:32:13.105685Z,1.9981689999999999,0.014159999999999999,0.559265
2018-10-16T00:32:13.305685Z,1.097107,0.396729,1.6818849999999999
2018-10-16T00:32:13.505685Z,-0.641235,-1.109924,-0.148499
2018-10-16T00:32:13.706685Z,-0.979492,-0.170654,-1.071533
2018-10-16T00:32:13.908685Z,-0.485962,-0.757935,-0.27594
2018-10-16T00:32:14.111685Z,-0.4021,-0.026978,-0.045166000000000005
2018-10-16T00:32:14.306685Z,-0.221619,-0.527954,0.382446
2018-10-16T00:32:14.505685Z,0.114319,-0.450745,1.140503
2018-10-16T00:32:14.704685Z,-1.001282,-0.568909,-0.144531
2018-10-16T00:32:14.904685Z,-1.15509,-0.346252,-0.050476
2018-10-16T00:32:15.105685Z,-0.8784790000000001,-0.533936,-0.579834
2018-10-16T00:32:15.311685Z,1.377869,-0.791443,-0.43261700000000003
2018-10-16T00:32:15.503685Z,0.611023,-1.065918,2.4220580000000003
2018-10-16T00:32:15.703685Z,0.8937379999999999,-0.955566,0.27069099999999996
2018-10-16T00:32:15.903685Z,0.153442,-0.565674,-0.197937
2018-10-16T00:32:16.104685Z,-0.796936,-0.0979,-0.17028800000000002
2018-10-16T00:32:16.304685Z,-0.24102800000000002,-0.874451,-0.762207
2018-10-16T00:32:16.504685Z,-0.752197,0.08770800000000001,2.2547
2018-10-16T00:32:16.704685Z,-0.177124,0.210693,-0.135498
2018-10-16T00:32:16.905685Z,-0.493958,1.217224,-1.213379
2018-10-16T00:32:17.104685Z,-1.561279,0.547913,-0.194214
2018-10-16T00:32:17.304685Z,-1.247925,-0.633301,-0.792297
2018-10-16T00:32:17.512685Z,-0.631165,-0.22723400000000002,-0.095337
2018-10-16T00:32:17.703685Z,-0.302795,-0.749451,0.694641
2018-10-16T00:32:17.904685Z,0.272339,-0.606812,-0.073547
2018-10-16T00:32:18.104685Z,-0.729004,-0.31304899999999997,-0.519897
2018-10-16T00:32:18.303685Z,0.170044,0.329712,0.727417
2018-10-16T00:32:18.586685Z,-0.278015,-1.009033,1.6533200000000001
2018-10-16T00:32:18.705685Z,-0.694153,-1.350708,0.47979700000000003
2018-10-16T00:32:19.110685Z,-0.579224,-0.9665530000000001,0.254211
2018-10-16T00:32:19.304685Z,-0.202148,-0.29718,-0.14447000000000002
2018-10-16T00:32:19.504685Z,-0.9180299999999999,0.224915,-0.058411000000000005
2018-10-16T00:32:19.704685Z,-1.034851,0.26245100000000005,-0.740784
2018-10-16T00:32:19.904685Z,0.671692,1.264832,-0.709045
2018-10-16T00:32:20.104685Z,-0.18573,1.9692990000000001,-0.247437
2018-10-16T00:32:20.304685Z,-0.5661619999999999,0.848938,0.46765100000000004
2018-10-16T00:32:20.504685Z,-1.274231,-1.589966,-0.7536010000000001
2018-10-16T00:32:20.710685Z,0.415405,-0.286926,0.011597
2018-10-16T00:32:20.910685Z,0.497375,-1.698425,4.015015
2018-10-16T00:32:21.174685Z,0.116577,-0.196655,-1.372131
2018-10-16T00:32:21.301685Z,0.617371,-0.31561300000000003,0.8235469999999999
2018-10-16T00:32:21.512685Z,0.062317,-1.76825,0.22900399999999999
2018-10-16T00:32:21.724685Z,1.4848629999999998,-1.529663,-0.22888200000000003
2018-10-16T00:32:21.911685Z,0.655151,-0.881165,-0.644714
2018-10-16T00:32:22.105685Z,0.957458,0.296082,0.052246
2018-10-16T00:32:22.305685Z,0.8303219999999999,1.479858,0.541687
2018-10-16T00:32:22.511685Z,0.633606,-0.819519,1.308777
2018-10-16T00:32:22.704685Z,0.8007810000000001,-1.201965,0.654358
2018-10-16T00:32:22.904685Z,1.509949,-0.360901,0.34906
2018-10-16T00:32:23.106685Z,1.8054810000000001,-0.627258,0.002441
2018-10-16T00:32:23.308685Z,0.9902340000000001,-0.877502,0.697693
2018-10-16T00:32:23.505685Z,0.235657,1.888,1.598511
2018-10-16T00:32:23.711685Z,0.488831,0.234375,-0.9260860000000001
2018-10-16T00:32:23.911685Z,0.48761000000000004,0.932312,-0.897705
2018-10-16T00:32:24.112685Z,-0.190857,1.8810419999999999,-0.88269
2018-10-16T00:32:24.304685Z,1.0601200000000002,1.911804,-0.7536010000000001
2018-10-16T00:32:24.509685Z,-0.08551,0.422791,1.123169
2018-10-16T00:32:24.716685Z,0.16272,2.27179,-0.537659
2018-10-16T00:32:24.910685Z,-1.177124,0.238098,1.294189
2018-10-16T00:32:25.110685Z,0.16986099999999998,1.5132450000000002,-1.5961299999999998
2018-10-16T00:32:25.311685Z,-0.099487,1.742432,0.33605999999999997
2018-10-16T00:32:25.504685Z,-0.34320100000000003,0.7693479999999999,-1.9605099999999998
2018-10-16T00:32:25.704685Z,-0.500366,1.639587,-1.18689
2018-10-16T00:32:25.905685Z,-0.9641719999999999,0.543396,-0.540955
2018-10-16T00:32:26.115685Z,-1.052185,-0.08667000000000001,-1.353577
2018-10-16T00:32:26.302685Z,-0.422791,0.782349,-1.521973
2018-10-16T00:32:26.523685Z,-1.61554,1.006165,-0.48724399999999995
2018-10-16T00:32:26.710685Z,-1.9794919999999998,-1.365051,1.311157
2018-10-16T00:32:26.900685Z,-1.400696,-2.685486,0.133606
2018-10-16T00:32:27.113685Z,-0.9107059999999999,-3.7946779999999998,0.149048
2018-10-16T00:32:27.307685Z,-0.7573850000000001,-0.897034,-0.244385
2018-10-16T00:32:27.504685Z,-2.407959,0.338318,0.168823
2018-10-16T00:32:27.704685Z,-2.005554,0.563721,2.408142
2018-10-16T00:32:27.904685Z,0.35791,-0.547791,-1.499878
2018-10-16T00:32:28.106685Z,0.402466,-0.350525,-1.584717
2018-10-16T00:32:28.311685Z,0.06842000000000001,1.006409,-0.258972
2018-10-16T00:32:28.511685Z,-0.451721,-0.282715,0.15850799999999998
2018-10-16T00:32:28.710685Z,-0.110901,0.144775,0.730225
2018-10-16T00:32:29.107685Z,0.524231,0.353455,0.27948
2018-10-16T00:32:29.309685Z,0.701172,-0.717102,1.291565
2018-10-16T00:32:29.504685Z,0.024963,0.115967,0.660095
2018-10-16T00:32:29.704685Z,-0.8632200000000001,-0.700073,-2.037415
2018-10-16T00:32:29.901685Z,-1.076538,1.079895,0.099365
2018-10-16T00:32:30.101685Z,-1.626953,0.45233199999999996,-0.84375
2018-10-16T00:32:30.315685Z,-1.4191280000000002,1.1891479999999999,-0.5974729999999999
2018-10-16T00:32:30.514685Z,-0.059021000000000004,0.604431,-0.890503
2018-10-16T00:32:30.704685Z,-0.153564,0.600708,-0.339844
2018-10-16T00:32:30.904685Z,-0.50293,0.431091,-0.403503
2018-10-16T00:32:31.107685Z,-0.502319,-0.744873,0.9539790000000001
2018-10-16T00:32:31.305685Z,-0.985352,-0.471558,-0.8223879999999999
2018-10-16T00:32:31.504685Z,-1.1698,0.321411,-0.985718
2018-10-16T00:32:31.705685Z,-1.222229,-0.821838,-1.578735
2018-10-16T00:32:31.907685Z,1.450684,0.350586,-1.165894
2018-10-16T00:32:32.107685Z,-0.03125,0.5706180000000001,-0.138855
2018-10-16T00:32:32.318685Z,-0.588745,-0.037598,-1.005615
2018-10-16T00:32:32.510685Z,0.8419190000000001,-0.523254,-0.071411
2018-10-16T00:32:32.704685Z,-1.286438,-0.12371800000000001,-0.546326
2018-10-16T00:32:32.904685Z,-0.74231,0.321411,-0.369446
2018-10-16T00:32:33.104685Z,-0.081055,0.427979,0.501648
2018-10-16T00:32:33.303685Z,-0.557983,0.337891,-0.323364
2018-10-16T00:32:33.504685Z,-0.15771500000000002,0.354065,-0.492126
2018-10-16T00:32:33.704685Z,0.062012,0.233521,-0.310791
2018-10-16T00:32:33.904685Z,0.359131,0.23474099999999998,-0.360046
2018-10-16T00:32:34.104685Z,0.07739299999999999,0.06781000000000001,-0.059570000000000005
2018-10-16T00:32:34.304685Z,0.02478,0.090942,-0.277893
2018-10-16T00:32:34.505685Z,-0.535095,-0.5919800000000001,2.368591
2018-10-16T00:32:34.714685Z,-0.425171,-0.18981900000000002,0.174622
2018-10-16T00:32:34.904685Z,0.17108199999999998,-0.269409,-0.641968
2018-10-16T00:32:35.104685Z,0.189941,-0.32006799999999996,-0.263245
2018-10-16T00:32:35.304685Z,0.100647,-0.174805,0.075195
2018-10-16T00:32:35.504685Z,0.015075999999999999,-0.27478,0.089722
2018-10-16T00:32:35.704685Z,-0.359802,0.025208,-0.021606
2018-10-16T00:32:35.914685Z,-0.23053,-0.073303,-0.313171
2018-10-16T00:32:36.112685Z,-0.362244,-0.104736,-0.6497189999999999
2018-10-16T00:32:36.323685Z,-0.473938,0.054077,-0.464844
2018-10-16T00:32:36.521685Z,-0.498596,-0.021973,-0.574646
2018-10-16T00:32:36.714685Z,0.276489,0.061157,0.573303
2018-10-16T00:32:36.920685Z,0.143677,-0.550354,-0.351379
2018-10-16T00:32:37.117685Z,1.51239,-0.8525389999999999,-0.795837
2018-10-16T00:32:37.314685Z,2.40155,-1.27417,1.450134
2018-10-16T00:32:37.515685Z,1.544861,-0.5354,0.526001
2018-10-16T00:32:37.717685Z,-0.368774,0.122498,-1.600403
2018-10-16T00:32:37.915685Z,-0.764282,0.778931,-0.578308
2018-10-16T00:32:38.120685Z,-0.338989,1.0035399999999999,-1.133545
2018-10-16T00:32:38.305685Z,1.0134889999999999,-0.6483760000000001,-1.635559
2018-10-16T00:32:38.515685Z,-0.8598020000000001,2.023132,-0.69397
2018-10-16T00:32:38.716685Z,0.224976,1.314026,-1.0726930000000001
2018-10-16T00:32:38.914685Z,-1.3383180000000001,-1.0550540000000002,3.115601
2018-10-16T00:32:39.114685Z,0.266602,0.084839,-1.232788
2018-10-16T00:32:39.318685Z,-0.27941900000000003,-0.126892,0.285522
2018-10-16T00:32:39.510685Z,-0.969299,-0.032471,-0.922791
2018-10-16T00:32:39.720685Z,-1.508545,-0.560791,-0.929932
2018-10-16T00:32:39.920685Z,-1.6394650000000002,-1.147766,-0.334595
2018-10-16T00:32:40.116685Z,-2.017578,-0.583923,-0.716431
2018-10-16T00:32:40.319685Z,-1.498474,-0.08996599999999999,-0.8901370000000001
2018-10-16T00:32:40.515685Z,-0.667786,0.098022,-1.095764
2018-10-16T00:32:40.717685Z,0.43426499999999996,-0.802185,3.563965
2018-10-16T00:32:40.914685Z,-0.555237,0.536804,0.42126499999999995
2018-10-16T00:32:41.122685Z,-1.230896,-1.095947,-1.812073
2018-10-16T00:32:41.315685Z,-0.9671629999999999,-0.34375,0.059630999999999997
2018-10-16T00:32:41.517685Z,-0.9008790000000001,0.132385,-0.9393309999999999
2018-10-16T00:32:41.729685Z,-0.6480100000000001,0.733765,0.291138
2018-10-16T00:32:41.920685Z,-0.716797,-0.009583,-0.9063110000000001
2018-10-16T00:32:42.113685Z,-0.052612,0.076782,-0.820923
2018-10-16T00:32:42.319685Z,0.041625999999999996,0.838989,-0.423279
2018-10-16T00:32:42.721685Z,0.28442399999999995,0.92511,-0.13159200000000001
2018-10-16T00:32:42.918685Z,-0.938049,0.778687,0.494446
2018-10-16T00:32:43.115685Z,-2.10907,-0.218811,0.0061649999999999995
2018-10-16T00:32:43.314685Z,-0.9122309999999999,0.08618200000000001,-1.477112
2018-10-16T00:32:43.514685Z,-0.714294,1.2474370000000001,0.9021
2018-10-16T00:32:43.715685Z,0.083313,-0.889465,-0.098755
2018-10-16T00:32:43.915685Z,-0.553833,-0.161682,-1.5734860000000002
2018-10-16T00:32:44.117685Z,-0.049683,0.21405,-0.762939
2018-10-16T00:32:44.319685Z,-0.838501,-0.758972,-0.155701
2018-10-16T00:32:44.512685Z,-0.839417,-0.919861,-0.7287600000000001
2018-10-16T00:32:44.715685Z,-0.6740109999999999,-0.33056599999999997,-0.9242549999999999
2018-10-16T00:32:44.915685Z,-0.48150600000000005,1.20697,-0.40631100000000003
2018-10-16T00:32:45.115685Z,-0.26013200000000003,0.257812,0.44635
2018-10-16T00:32:45.330685Z,0.529602,-0.564453,-0.0025629999999999997
2018-10-16T00:32:45.520685Z,0.423279,0.37915,-0.600403
2018-10-16T00:32:45.721685Z,0.9117430000000001,1.029297,-0.035706
2018-10-16T00:32:45.914685Z,-0.481079,-0.2099,-0.48205600000000004
2018-10-16T00:32:46.114685Z,-0.09814500000000001,-0.874268,-0.137024
2018-10-16T00:32:46.314685Z,0.11645499999999999,-0.882446,0.227417
2018-10-16T00:32:46.530685Z,-0.586792,-0.100708,0.512207
2018-10-16T00:32:46.714685Z,-0.8081050000000001,-0.699951,0.263489
2018-10-16T00:32:46.914685Z,0.32806399999999997,0.527039,1.3009030000000001
2018-10-16T00:32:47.113685Z,-0.248962,0.655334,0.295593
2018-10-16T00:32:47.323685Z,-0.095947,0.538696,-0.822083
2018-10-16T00:32:47.521685Z,0.178528,0.42877200000000004,-0.059448
2018-10-16T00:32:47.718685Z,-0.114075,0.398804,-0.394043
2018-10-16T00:32:47.932685Z,0.084534,0.374329,-0.394592
2018-10-16T00:32:48.112685Z,0.022461000000000002,0.308411,-0.014282
2018-10-16T00:32:48.313685Z,-0.101562,0.17388900000000002,-0.421814
2018-10-16T00:32:48.513685Z,-0.2276,0.31445300000000004,-0.25506599999999996
2018-10-16T00:32:48.717685Z,0.14813199999999999,0.22326700000000002,-0.45965600000000006
2018-10-16T00:32:48.914685Z,-0.003052,0.386475,-0.182739
2018-10-16T00:32:49.113685Z,0.070862,0.97583,-0.705017
2018-10-16T00:32:49.320685Z,0.249939,1.7725830000000002,-0.096863
2018-10-16T00:32:49.512685Z,0.665222,1.621765,0.49054
2018-10-16T00:32:49.712685Z,-0.440125,-1.0635379999999999,0.336609
2018-10-16T00:32:49.914685Z,-0.254578,-1.534729,0.356995
2018-10-16T00:32:50.115685Z,0.117493,-0.067322,-0.870605
2018-10-16T00:32:50.322685Z,-0.286011,0.624023,-0.710449
2018-10-16T00:32:50.533685Z,-0.126831,-1.67688,2.308105
2018-10-16T00:32:50.729685Z,0.6232300000000001,-0.523804,1.0328979999999999
2018-10-16T00:32:50.925685Z,0.257629,-0.063599,-0.308899
2018-10-16T00:32:51.118685Z,0.32922399999999996,1.126709,0.519775
2018-10-16T00:32:51.326685Z,0.062377999999999996,-1.222534,1.294189
2018-10-16T00:32:51.524685Z,-0.210327,-1.42218,0.052368
2018-10-16T00:32:51.724685Z,-0.53772,0.008728,-1.490723
2018-10-16T00:32:51.933685Z,-0.760376,1.045654,0.7854
2018-10-16T00:32:52.133685Z,0.132446,-0.661926,-1.906006
2018-10-16T00:32:52.330685Z,-0.049011,-0.161438,-0.23205599999999998
2018-10-16T00:32:52.524685Z,-0.425476,1.062866,0.37182600000000005
2018-10-16T00:32:52.725685Z,0.28442399999999995,-2.072388,0.551575
2018-10-16T00:32:52.925685Z,-0.572205,-0.372253,-0.490356
2018-10-16T00:32:53.123685Z,-0.29718,0.861084,0.413818
2018-10-16T00:32:53.325685Z,0.127808,-1.2966309999999999,2.459717
2018-10-16T00:32:53.524685Z,0.183411,-0.18811,-1.6719970000000002
2018-10-16T00:32:53.724685Z,-0.62384,0.666443,-0.201172
2018-10-16T00:32:53.932685Z,-1.723877,-1.8062740000000002,1.118591
2018-10-16T00:32:54.195685Z,-1.8491819999999999,-0.7811279999999999,-0.47351099999999996
2018-10-16T00:32:54.322685Z,-1.686707,-0.696472,-0.484741
2018-10-16T00:32:54.525685Z,-1.637756,-1.079224,-0.710083
2018-10-16T00:32:54.730685Z,-2.075256,-0.035156,-0.505188
2018-10-16T00:32:54.924685Z,-1.090759,0.136475,0.558533
2018-10-16T00:32:55.126685Z,-2.837646,-0.545959,-0.381592
2018-10-16T00:32:55.324685Z,-2.056641,0.31366,-2.221741
2018-10-16T00:32:55.524685Z,-1.8687740000000002,1.269043,-0.717651
2018-10-16T00:32:55.731685Z,-1.195862,-0.322266,1.57196
2018-10-16T00:32:55.978685Z,-2.4385380000000003,-0.486267,-0.604065
2018-10-16T00:32:56.130685Z,-2.336243,0.38739,0.375305
2018-10-16T00:32:56.331685Z,-2.79834,-1.54303,1.887207
2018-10-16T00:32:56.530685Z,-2.36853,0.49108900000000005,-0.697388
2018-10-16T00:32:56.724685Z,-1.544067,1.00415,-0.8899540000000001
2018-10-16T00:32:57.124685Z,-1.035828,1.368591,-1.6863400000000002
2018-10-16T00:32:57.324685Z,-0.855042,1.511292,-0.8784790000000001
2018-10-16T00:32:57.542685Z,-0.905701,1.485596,1.212341
2018-10-16T00:32:57.724685Z,-1.7634279999999998,-0.031982,-0.721069
2018-10-16T00:32:57.954685Z,-1.2521360000000001,1.269775,-1.373779
2018-10-16T00:32:58.132685Z,-0.9748540000000001,0.9605100000000001,-0.393494
2018-10-16T00:32:58.333685Z,-1.311279,0.45025600000000005,0.20776399999999998
2018-10-16T00:32:58.531685Z,-0.251282,0.5134890000000001,-0.709961
2018-10-16T00:32:58.727685Z,-0.06018099999999999,1.189331,-0.691711
2018-10-16T00:32:58.926685Z,0.295837,1.506165,-0.433655
2018-10-16T00:32:59.125685Z,-0.299622,0.9052120000000001,-0.604187
2018-10-16T00:32:59.324685Z,-0.114624,0.9742430000000001,-0.302612
2018-10-16T00:32:59.529685Z,-0.484558,0.835083,-0.321716
2018-10-16T00:32:59.724685Z,-0.03418,0.52179,-1.1748049999999999
2018-10-16T00:32:59.927685Z,-0.11096199999999999,0.40863,-0.579346
2018-10-16T00:33:00.125685Z,0.011536,0.44006300000000004,-0.399719
2018-10-16T00:33:00.329685Z,-0.211792,0.274841,-0.316895
2018-10-16T00:33:00.524685Z,-0.6857300000000001,1.678467,0.045959
2018-10-16T00:33:00.727685Z,0.513062,1.8992310000000001,0.557373
2018-10-16T00:33:00.924685Z,0.7032470000000001,0.267761,-1.5935059999999999
2018-10-16T00:33:01.127685Z,0.769104,-1.642212,0.813721
2018-10-16T00:33:01.324685Z,0.148621,1.623108,0.363159
2018-10-16T00:33:01.525685Z,-0.10363800000000001,-2.006287,3.383057
2018-10-16T00:33:01.725685Z,0.050476,-0.766602,0.074158
2018-10-16T00:33:01.947685Z,-0.13562000000000002,0.225464,0.028808999999999998
2018-10-16T00:33:02.127685Z,-0.738159,-0.029297000000000004,0.545044
2018-10-16T00:33:02.332685Z,-0.185974,-0.305725,-0.745422
2018-10-16T00:33:02.531685Z,-0.71167,0.408997,-0.41552700000000004
2018-10-16T00:33:02.720685Z,-1.701416,-0.12133800000000002,-0.711609
2018-10-16T00:33:02.924685Z,-1.107117,-0.665833,-1.125
2018-10-16T00:33:03.122685Z,-0.399841,-0.17999300000000001,-0.26000999999999996
2018-10-16T00:33:03.325685Z,-1.1009520000000002,0.800293,-0.760742
2018-10-16T00:33:03.524685Z,-0.34924299999999997,-1.381226,0.43688999999999995
2018-10-16T00:33:03.724685Z,-0.33605999999999997,-0.394897,-0.018433
2018-10-16T00:33:03.915685Z,-0.8823850000000001,0.191956,-0.302979
2018-10-16T00:33:04.127685Z,-1.7609860000000002,-0.896667,-1.067566
2018-10-16T00:33:04.331685Z,-2.770142,1.6467900000000002,-1.8782349999999999
2018-10-16T00:33:04.526685Z,-0.9268799999999999,-0.150024,-0.174927
2018-10-16T00:33:04.724685Z,-1.4277950000000001,-1.460754,2.398254
2018-10-16T00:33:04.924685Z,-1.736938,-0.92511,-0.689209
2018-10-16T00:33:05.125685Z,-1.090271,-0.623108,-0.017578
2018-10-16T00:33:05.422685Z,-1.38916,-0.269409,-0.13092
2018-10-16T00:33:05.523685Z,-1.7192990000000001,-0.23663299999999998,-0.142517
2018-10-16T00:33:05.733685Z,-1.0673219999999999,0.276428,-0.038452
2018-10-16T00:33:05.932685Z,-0.8312379999999999,0.6879270000000001,-0.5922850000000001
2018-10-16T00:33:06.124685Z,-1.325317,1.085754,-0.47979700000000003
2018-10-16T00:33:06.321685Z,-0.560608,0.712585,-1.299194
2018-10-16T00:33:06.524685Z,-0.779175,1.218628,0.860352
2018-10-16T00:33:06.725685Z,-0.47338900000000006,-0.358765,-0.748108
2018-10-16T00:33:06.928685Z,0.10491900000000001,0.402344,-1.285034
2018-10-16T00:33:07.124685Z,-0.215881,1.222656,-1.183655
2018-10-16T00:33:07.324685Z,-0.5645140000000001,-1.388611,1.448914
2018-10-16T00:33:07.520685Z,-1.086243,-0.175537,-0.000916
2018-10-16T00:33:07.724685Z,-1.186279,0.891785,-1.443665
2018-10-16T00:33:07.939685Z,-0.6672359999999999,-1.1102290000000001,3.734375
2018-10-16T00:33:08.125685Z,-0.265198,0.013855000000000001,-2.398621
2018-10-16T00:33:08.323685Z,-0.16076700000000002,1.539795,-1.337952
2018-10-16T00:33:08.524685Z,-1.1340940000000002,-0.06543,-0.095459
2018-10-16T00:33:08.730685Z,-0.301636,-0.961426,0.289001
2018-10-16T00:33:09.128685Z,-0.292175,-0.453796,-0.30365
2018-10-16T00:33:09.330685Z,0.362976,-0.560303,0.183777
2018-10-16T00:33:09.530685Z,0.368774,-0.576782,1.976257
2018-10-16T00:33:09.723685Z,1.102966,0.257446,1.0035399999999999
2018-10-16T00:33:09.931685Z,0.126221,0.476501,-0.120361
2018-10-16T00:33:10.123685Z,-0.340149,-1.1659549999999999,0.283752
2018-10-16T00:33:10.327685Z,0.324768,-0.045044,-1.182495
2018-10-16T00:33:10.521685Z,0.071716,0.7208859999999999,-0.358948
2018-10-16T00:33:10.738685Z,0.920715,-0.38324,-0.5234989999999999
2018-10-16T00:33:10.927685Z,1.2005620000000001,0.729858,-1.892395
2018-10-16T00:33:11.121685Z,1.338501,1.248779,0.24469000000000002
2018-10-16T00:33:11.325685Z,-0.217773,-0.5546260000000001,-1.027161
2018-10-16T00:33:11.525685Z,0.556702,0.401672,-0.9370729999999999
2018-10-16T00:33:11.725685Z,0.678833,1.329468,0.054626
2018-10-16T00:33:11.925685Z,0.975708,-0.11926300000000001,1.885132
2018-10-16T00:33:12.137685Z,1.26886,0.50946,-2.432068
2018-10-16T00:33:12.325685Z,1.109192,1.53833,-0.31958000000000003
2018-10-16T00:33:12.532685Z,0.071777,-0.7771,0.164124
2018-10-16T00:33:12.731685Z,0.001282,-0.37390100000000004,-2.0073849999999998
2018-10-16T00:33:12.946685Z,-0.10638399999999999,1.3218379999999998,-0.9318850000000001
2018-10-16T00:33:13.123685Z,0.913452,1.2833860000000001,-0.7437739999999999
2018-10-16T00:33:13.324685Z,0.367004,-0.8472290000000001,1.8195189999999999
2018-10-16T00:33:13.534685Z,0.268005,0.503174,2.0637209999999997
2018-10-16T00:33:13.730685Z,0.301208,0.372498,-0.224854
2018-10-16T00:33:13.930685Z,0.938293,0.089905,-0.65271
2018-10-16T00:33:14.115685Z,0.826111,0.891785,-0.014648
2018-10-16T00:33:14.324685Z,0.524658,1.920959,-0.490051
2018-10-16T00:33:14.524685Z,0.364136,1.226868,-0.401672
2018-10-16T00:33:14.724685Z,0.637451,-0.363342,1.942078
2018-10-16T00:33:14.946685Z,1.278625,0.633667,-1.7437740000000002
2018-10-16T00:33:15.129685Z,0.395813,1.3447879999999999,-0.554504
2018-10-16T00:33:15.331685Z,0.245056,0.010925,1.395569
2018-10-16T00:33:15.530685Z,0.57428,-0.394897,-0.90094
2018-10-16T00:33:15.724685Z,1.0333860000000001,0.9608760000000001,0.414368
2018-10-16T00:33:15.925685Z,0.786804,0.129395,1.355591
2018-10-16T00:33:16.124685Z,1.517639,1.5245360000000001,-1.573914
2018-10-16T00:33:16.324685Z,0.983643,1.5944209999999999,-0.793335
2018-10-16T00:33:16.524685Z,0.118774,-0.572754,1.566223
2018-10-16T00:33:16.782685Z,0.322937,-0.451904,0.641541
2018-10-16T00:33:16.931685Z,0.03302,0.6079100000000001,-0.776245
2018-10-16T00:33:17.132685Z,0.779541,0.29986599999999997,-0.583435
2018-10-16T00:33:17.334685Z,0.4646,-0.348389,1.788025
2018-10-16T00:33:17.520685Z,0.725464,1.067627,0.227661
2018-10-16T00:33:17.730685Z,0.411804,1.662109,0.7482300000000001
2018-10-16T00:33:17.928685Z,0.224731,-0.6186520000000001,0.634216
2018-10-16T00:33:18.124685Z,0.6547850000000001,0.071228,-1.027466
2018-10-16T00:33:18.325685Z,-0.396667,1.087585,-0.449646
2018-10-16T00:33:18.524685Z,0.637329,-0.585022,3.288147
2018-10-16T00:33:18.729685Z,0.752563,0.508972,-1.494629
2018-10-16T00:33:18.931685Z,0.633301,0.7811279999999999,-0.299072
2018-10-16T00:33:19.131685Z,-0.233704,0.621765,1.7063599999999999
2018-10-16T00:33:19.331685Z,1.003906,-0.482544,0.18603499999999998
2018-10-16T00:33:19.528685Z,1.3009030000000001,-0.118652,0.246765
2018-10-16T00:33:19.724685Z,1.8976439999999999,0.279846,-0.741943
2018-10-16T00:33:19.924685Z,0.784058,-0.119019,1.523499
2018-10-16T00:33:20.124685Z,-0.24224899999999996,1.714905,-0.701904
2018-10-16T00:33:20.324685Z,-0.006104,-0.44592299999999996,1.8130490000000001
2018-10-16T00:33:20.524685Z,-0.146973,0.949097,-0.397156
2018-10-16T00:33:20.723685Z,-0.001221,1.211609,-0.046265
2018-10-16T00:33:20.953685Z,0.5155029999999999,1.7108759999999998,-0.449158
2018-10-16T00:33:21.125685Z,0.14209000000000002,0.09033200000000001,0.8500979999999999
2018-10-16T00:33:21.326685Z,-0.530884,1.080811,-1.120117
2018-10-16T00:33:21.527685Z,-1.216125,2.103088,-0.763367
2018-10-16T00:33:21.724685Z,-1.024292,0.7205199999999999,-1.067688
2018-10-16T00:33:21.924685Z,0.29186999999999996,1.5166629999999999,-0.8817139999999999
2018-10-16T00:33:22.125685Z,0.403625,1.463806,0.634705
2018-10-16T00:33:22.324685Z,-0.05365,0.056396,0.620239
2018-10-16T00:33:22.525685Z,-0.058533,0.902588,-0.067383
2018-10-16T00:33:22.927685Z,-0.18927,2.203552,0.976318
2018-10-16T00:33:23.136685Z,0.10424800000000001,-0.194946,-0.8880620000000001
2018-10-16T00:33:23.330685Z,-0.035217,0.07067899999999999,-0.597046
2018-10-16T00:33:23.524685Z,-0.706116,1.510254,-0.115356
2018-10-16T00:33:23.729685Z,-0.522034,1.345093,0.139343
2018-10-16T00:33:23.936685Z,0.22418200000000002,-0.325317,1.81073
2018-10-16T00:33:24.127685Z,0.549805,0.6762699999999999,-2.15509
2018-10-16T00:33:24.323685Z,-0.362793,1.850525,-1.808655
2018-10-16T00:33:24.525685Z,-1.153137,0.48138400000000003,-0.393127
2018-10-16T00:33:24.724685Z,-0.585327,-0.541199,-0.523926
2018-10-16T00:33:24.930685Z,-0.20165999999999998,0.167175,-1.067261
2018-10-16T00:33:25.125685Z,-1.57074,0.9537959999999999,-0.019409
2018-10-16T00:33:25.324685Z,0.93866,-0.897034,0.603455
2018-10-16T00:33:25.524685Z,-0.37255900000000003,0.6030270000000001,0.23010300000000003
2018-10-16T00:33:25.729685Z,-0.27063000000000004,0.96283,-0.08606
2018-10-16T00:33:25.923685Z,0.01001,1.0354,-0.0036009999999999996
2018-10-16T00:33:26.130685Z,-0.691772,0.24706999999999998,1.1578979999999999
2018-10-16T00:33:26.324685Z,0.291443,-0.851929,-0.146179
2018-10-16T00:33:26.588685Z,0.20581100000000002,0.032104,1.11615
2018-10-16T00:33:26.735685Z,-0.20239300000000002,0.598755,-0.504578
2018-10-16T00:33:26.936685Z,0.25415,-0.534058,0.5001220000000001
2018-10-16T00:33:27.132685Z,0.000732,-0.03717,0.502441
2018-10-16T00:33:27.324685Z,1.16272,0.418335,1.271118
2018-10-16T00:33:27.521685Z,0.300354,1.453491,-0.8808590000000001
2018-10-16T00:33:27.724685Z,2.195068,0.8221440000000001,2.132568
2018-10-16T00:33:27.925685Z,-1.395325,0.144043,0.6210939999999999
2018-10-16T00:33:28.124685Z,-1.670654,0.851807,-1.63855
2018-10-16T00:33:28.324685Z,-1.308594,0.49578900000000004,-0.344727
2018-10-16T00:33:28.526685Z,-0.686829,0.5646359999999999,0.31738299999999997
2018-10-16T00:33:28.731685Z,-0.095825,-0.018616,-0.062317
2018-10-16T00:33:29.005685Z,-0.06604,0.044067,0.151794
2018-10-16T00:33:29.131685Z,-0.20880100000000001,0.31958000000000003,0.21044899999999997
2018-10-16T00:33:29.315685Z,-0.5849,0.313232,-0.972717
2018-10-16T00:33:29.525685Z,0.8768309999999999,-0.023071,-0.096191
2018-10-16T00:33:29.724685Z,-0.29718,0.24096700000000001,-0.210754
2018-10-16T00:33:29.929685Z,-0.14502,0.32959,-0.21966599999999997
2018-10-16T00:33:30.126685Z,-0.261353,-0.009337999999999999,-0.11914100000000001
2018-10-16T00:33:30.325685Z,-0.176453,0.166077,-0.050842
2018-10-16T00:33:30.524685Z,-0.03363,0.07019,-0.31048600000000004
2018-10-16T00:33:30.730685Z,0.013,-0.013244999999999998,0.197571
2018-10-16T00:33:30.930685Z,-0.20751999999999998,0.269348,0.046814
2018-10-16T00:33:31.125685Z,-0.798157,-0.084656,-0.144897
2018-10-16T00:33:31.328685Z,-1.1746219999999998,0.054321,-0.75415
2018-10-16T00:33:31.526685Z,-1.420959,0.21911599999999998,1.331238
2018-10-16T00:33:31.726685Z,0.729065,-0.470764,1.8547360000000002
2018-10-16T00:33:31.925685Z,1.454346,0.114319,-0.685059
2018-10-16T00:33:32.132685Z,0.7436520000000001,0.015319999999999999,-0.503784
2018-10-16T00:33:32.326685Z,-0.202271,0.312988,-1.103333
2018-10-16T00:33:32.532685Z,0.01886,0.149292,-0.590454
2018-10-16T00:33:32.728685Z,-0.31451399999999996,0.061096000000000004,-0.451477
2018-10-16T00:33:32.930685Z,0.10382100000000001,0.11224400000000001,-1.2369379999999999
2018-10-16T00:33:33.125685Z,-0.676208,0.920227,-1.247131
2018-10-16T00:33:33.326685Z,0.267151,1.764343,1.2995
2018-10-16T00:33:33.525685Z,-0.021544999999999998,1.885071,0.8577879999999999
2018-10-16T00:33:33.726685Z,-1.478821,-1.9318240000000002,-0.020569
2018-10-16T00:33:33.923685Z,-0.053405999999999995,-1.7085569999999999,-0.172241
2018-10-16T00:33:34.124685Z,-0.5665279999999999,-0.608521,-0.277527
2018-10-16T00:33:34.324685Z,-1.2379149999999999,0.522888,-0.358032
2018-10-16T00:33:34.529685Z,0.445618,-0.983765,0.985352
2018-10-16T00:33:34.730685Z,0.468262,-1.7901,1.275452
2018-10-16T00:33:34.924685Z,-1.4733889999999998,-0.073975,0.27111799999999997
2018-10-16T00:33:35.123685Z,0.09753400000000001,0.024291999999999998,-0.217896
2018-10-16T00:33:35.324685Z,0.360718,0.614685,0.8212280000000001
2018-10-16T00:33:35.525685Z,-0.19812000000000002,-1.185974,0.697021
2018-10-16T00:33:35.729685Z,-1.052612,-1.185486,-0.121216
2018-10-16T00:33:35.924685Z,-0.915955,-0.610779,0.17388900000000002
2018-10-16T00:33:36.124685Z,-0.810425,-0.091919,-0.543762
2018-10-16T00:33:36.520685Z,-0.097107,-0.077515,0.21655300000000002
2018-10-16T00:33:36.730685Z,-1.047607,0.091553,-0.953735
2018-10-16T00:33:36.925685Z,-0.096069,0.147034,-0.8634639999999999
2018-10-16T00:33:37.123685Z,-1.457703,1.50708,-0.125854
2018-10-16T00:33:37.324685Z,-1.7456049999999999,0.850891,0.675415
2018-10-16T00:33:37.524685Z,-0.439575,-0.881592,-1.1721190000000001
2018-10-16T00:33:37.728685Z,1.039001,-2.6945799999999998,-0.859985
2018-10-16T00:33:37.924685Z,0.012573,0.591309,1.130981
2018-10-16T00:33:38.124685Z,-0.075989,0.051758000000000005,1.529724
2018-10-16T00:33:38.331685Z,-1.6778560000000002,-1.8789669999999998,-0.46795699999999996
2018-10-16T00:33:38.521685Z,-2.052246,-0.25824,-0.8358760000000001
2018-10-16T00:33:38.745685Z,-1.07605,-0.233521,0.464844
2018-10-16T00:33:38.924685Z,-1.111328,-0.347351,-0.196777
2018-10-16T00:33:39.124685Z,-0.818909,0.058533,0.25793499999999997
2018-10-16T00:33:39.324685Z,-0.086548,-0.156372,0.25415
2018-10-16T00:33:39.538685Z,-0.308167,0.224365,-0.089172
2018-10-16T00:33:39.723685Z,-0.380127,-0.13311800000000001,-0.35199
2018-10-16T00:33:39.935685Z,-3.4886470000000003,2.1497189999999997,-0.371765
2018-10-16T00:33:40.127685Z,1.214539,-0.9137569999999999,0.779724
2018-10-16T00:33:40.324685Z,0.858215,0.338623,-0.9237059999999999
2018-10-16T00:33:40.525685Z,-0.782532,2.084534,0.148254
2018-10-16T00:33:40.725685Z,-0.053833000000000006,0.7344970000000001,-0.45019499999999996
2018-10-16T00:33:40.923685Z,-0.864075,-0.6965939999999999,-0.648621
2018-10-16T00:33:41.125685Z,-0.293457,0.313232,0.170837
2018-10-16T00:33:41.325685Z,0.001282,0.609924,0.6812739999999999
2018-10-16T00:33:41.524685Z,-3.3019410000000002,0.189941,-2.430237
2018-10-16T00:33:41.728685Z,-0.023438,0.197021,-0.9332889999999999
2018-10-16T00:33:41.930685Z,0.494568,0.701599,0.923584
2018-10-16T00:33:42.124685Z,-1.017883,-0.9848629999999999,0.630005
2018-10-16T00:33:42.324685Z,-1.251709,-0.713684,-1.097351
2018-10-16T00:33:42.524685Z,-0.463501,-0.987244,0.989136
2018-10-16T00:33:42.737685Z,-0.6637569999999999,-0.584595,0.24542199999999997
2018-10-16T00:33:42.924685Z,-0.49688699999999997,-0.399353,-0.458679
2018-10-16T00:33:43.138685Z,-0.433105,-0.381531,0.124268
2018-10-16T00:33:43.329685Z,-0.594421,0.536499,-0.167969
2018-10-16T00:33:43.523685Z,0.018799,0.30950900000000003,0.05499299999999999
2018-10-16T00:33:43.723685Z,-1.2516479999999999,1.684937,0.040466
2018-10-16T00:33:43.917685Z,-1.151672,0.100037,1.612427
2018-10-16T00:33:44.124685Z,0.19458,-1.483276,-0.213562
2018-10-16T00:33:44.324685Z,-0.058838,-0.36230500000000004,-1.405701
2018-10-16T00:33:44.524685Z,0.37085,1.364929,0.9047850000000001
2018-10-16T00:33:44.723685Z,0.31488,1.3432620000000002,1.966431
2018-10-16T00:33:44.943685Z,-1.044189,-1.8141479999999999,-1.301208
2018-10-16T00:33:45.130685Z,-1.191589,-0.630798,-0.097412
2018-10-16T00:33:45.325685Z,-0.78595,0.093933,-0.9067379999999999
2018-10-16T00:33:45.525685Z,-1.07074,0.864624,1.153748
2018-10-16T00:33:45.725685Z,-0.641418,0.26306199999999996,0.300537
2018-10-16T00:33:45.925685Z,0.201172,-1.078552,0.235107
2018-10-16T00:33:46.128685Z,0.041565,-0.763794,0.45068400000000003
2018-10-16T00:33:46.351685Z,0.088928,-0.7052609999999999,1.21759
2018-10-16T00:33:46.531685Z,-0.39831500000000003,0.138428,-0.37206999999999996
2018-10-16T00:33:46.730685Z,-0.59845,0.005797999999999999,-0.696289
2018-10-16T00:33:46.930685Z,-0.372314,0.155701,0.032471
2018-10-16T00:33:47.136685Z,-0.532959,0.72229,-0.2453
2018-10-16T00:33:47.332685Z,-0.13092,0.593079,-0.541931
2018-10-16T00:33:47.521685Z,-0.089478,0.81311,-0.679138
2018-10-16T00:33:47.724685Z,-0.60437,1.20166,0.8280639999999999
2018-10-16T00:33:47.924685Z,1.281067,-1.32251,2.9153439999999997
2018-10-16T00:33:48.124685Z,1.358398,-1.215393,-2.322693
2018-10-16T00:33:48.331685Z,0.828247,0.9202879999999999,0.800415
2018-10-16T00:33:48.539685Z,0.042480000000000004,0.653442,0.107727
2018-10-16T00:33:48.757685Z,-1.291504,-2.173889,0.759888
2018-10-16T00:33:48.924685Z,-0.285461,0.1297,-0.8087770000000001
2018-10-16T00:33:49.125685Z,-0.315186,0.8906860000000001,1.204224
2018-10-16T00:33:49.324685Z,-0.602173,-1.107605,-0.213928
2018-10-16T00:33:49.525685Z,0.328735,-1.536987,-0.551392
2018-10-16T00:33:49.724685Z,0.664612,0.043457,1.003601
2018-10-16T00:33:50.125685Z,0.854126,1.053101,1.897095
2018-10-16T00:33:50.326685Z,-1.6563720000000002,-1.7990720000000002,-0.830383
2018-10-16T00:33:50.526685Z,-1.252258,-1.517639,0.627991
2018-10-16T00:33:50.725685Z,-0.69635,-0.702087,0.255432
2018-10-16T00:33:50.929685Z,-0.34320100000000003,-0.5212399999999999,0.8654790000000001
2018-10-16T00:33:51.126685Z,-0.180847,-0.31311,-0.058472
2018-10-16T00:33:51.323685Z,-0.136353,-0.30194099999999996,-0.270874
2018-10-16T00:33:51.540685Z,0.007873999999999999,-0.031006,0.28881799999999996
2018-10-16T00:33:51.736685Z,-0.471558,0.686279,-0.44421400000000005
2018-10-16T00:33:51.924685Z,0.047302,0.462891,-0.717529
2018-10-16T00:33:52.124685Z,-0.171997,1.317383,-0.387024
2018-10-16T00:33:52.323685Z,0.34381100000000003,1.270508,-0.5629270000000001
2018-10-16T00:33:52.524685Z,-0.14819300000000002,-1.416077,-0.261658
2018-10-16T00:33:52.725685Z,0.276794,-0.719849,-0.693176
2018-10-16T00:33:52.924685Z,0.060425,1.1972049999999999,1.8388060000000002
2018-10-16T00:33:53.124685Z,-0.407715,-1.805237,-0.834167
2018-10-16T00:33:53.324685Z,-1.097839,-1.709717,-0.361694
2018-10-16T00:33:53.541685Z,-1.0128780000000002,-0.157166,-0.707336
2018-10-16T00:33:53.725685Z,-0.7521359999999999,-0.272644,0.647217
2018-10-16T00:33:53.925685Z,-0.071655,-1.580627,1.1883540000000001
2018-10-16T00:33:54.156685Z,-0.22326700000000002,-0.023499000000000003,-2.415161
2018-10-16T00:33:54.331685Z,0.410156,0.116577,1.1591799999999999
2018-10-16T00:33:54.521685Z,-0.175232,-0.0979,0.53894
2018-10-16T00:33:54.727685Z,-0.8792719999999999,-1.51001,0.8245239999999999
2018-10-16T00:33:54.923685Z,-0.420349,-0.223083,0.333679
2018-10-16T00:33:55.124685Z,0.162659,0.000793,0.8722530000000001
2018-10-16T00:33:55.324685Z,-0.321716,-2.985779,7.490112
2018-10-16T00:33:55.524685Z,-0.027466,-0.983459,-1.032776
2018-10-16T00:33:55.724685Z,-0.11267100000000001,-0.16003399999999998,-0.458801
2018-10-16T00:33:55.928685Z,-0.257751,-0.201965,-0.45440699999999995
2018-10-16T00:33:56.125685Z,-1.151306,-1.248535,-0.085815
2018-10-16T00:33:56.334685Z,-0.890869,-0.748474,-0.378601
2018-10-16T00:33:56.521685Z,-0.7224119999999999,-0.126282,-0.21704099999999998
2018-10-16T00:33:56.729685Z,-0.29186999999999996,0.445068,-0.612488
2018-10-16T00:33:56.922685Z,-0.37304699999999996,0.595642,0.476196
2018-10-16T00:33:57.130685Z,0.194885,-1.396301,1.130371
2018-10-16T00:33:57.333685Z,0.431396,-0.8948360000000001,0.24963400000000002
2018-10-16T00:33:57.516685Z,0.815002,-0.228149,-0.143555
2018-10-16T00:33:57.731685Z,0.413391,0.533936,0.734375
2018-10-16T00:33:57.928685Z,-0.506592,-1.24054,1.684509
2018-10-16T00:33:58.123685Z,-0.38147,-1.0896,-1.245544
2018-10-16T00:33:58.323685Z,0.37683099999999997,-0.080688,0.412476
2018-10-16T00:33:58.526685Z,-0.07525599999999999,-0.434021,0.13623
2018-10-16T00:33:58.725685Z,0.439392,-1.583069,0.16381800000000002
2018-10-16T00:33:58.924685Z,0.05438200000000001,-0.807739,0.411865
2018-10-16T00:33:59.123685Z,0.179077,0.073608,0.044861
2018-10-16T00:33:59.323685Z,-0.660522,-0.032593000000000004,-0.9320069999999999
2018-10-16T00:33:59.521685Z,0.158325,-1.7410279999999998,1.545959
2018-10-16T00:33:59.727685Z,-0.6439819999999999,-0.841858,-0.158386
2018-10-16T00:33:59.924685Z,-0.188049,-1.1019290000000002,0.952942
2018-10-16T00:34:00.125685Z,-0.207031,-0.549866,0.16131600000000001
2018-10-16T00:34:00.337685Z,-0.049561,-0.38500999999999996,0.204956
2018-10-16T00:34:00.522685Z,0.137024,-0.50238,0.624268
2018-10-16T00:34:00.728685Z,0.13623,-0.32019000000000003,-0.22589099999999998
2018-10-16T00:34:00.930685Z,0.07110599999999999,0.110168,-0.099426
2018-10-16T00:34:01.126685Z,0.7600100000000001,-0.09411599999999999,-0.398621
2018-10-16T00:34:01.324685Z,-0.194824,-0.146484,-0.45605500000000004
2018-10-16T00:34:01.527685Z,-0.040405,-0.114258,-0.261292
2018-10-16T00:34:01.724685Z,0.52533,-0.218811,0.7323
2018-10-16T00:34:01.924685Z,1.687988,-0.201965,-0.370911
2018-10-16T00:34:02.124685Z,1.329407,0.163269,2.329834
2018-10-16T00:34:02.324685Z,1.184143,0.79657,0.488464
2018-10-16T00:34:02.530685Z,-0.287048,-0.650513,0.79718
2018-10-16T00:34:02.725685Z,-0.767212,-0.067322,-1.187439
2018-10-16T00:34:02.926685Z,-0.552917,0.274719,0.041931
2018-10-16T00:34:03.124685Z,-0.038086,0.7436520000000001,-0.799866
2018-10-16T00:34:03.324685Z,-0.072449,-0.431458,0.5999760000000001
2018-10-16T00:34:03.556685Z,0.0074459999999999995,0.14856,0.107483
2018-10-16T00:34:03.727685Z,-0.279846,0.0896,-0.34381100000000003
2018-10-16T00:34:03.929685Z,-1.171692,-0.20629899999999998,-2.514526
2018-10-16T00:34:04.132685Z,-1.190735,-0.039673,-0.014893
2018-10-16T00:34:04.526685Z,-0.750977,0.528015,0.6308590000000001
2018-10-16T00:34:04.723685Z,-0.047485,-1.214905,3.266357
2018-10-16T00:34:04.924685Z,0.11456300000000001,-1.4415280000000001,0.28308099999999997
2018-10-16T00:34:05.124685Z,-0.27941900000000003,-0.073303,-0.329773
2018-10-16T00:34:05.324685Z,-0.232483,0.148621,-0.162903
2018-10-16T00:34:05.526685Z,-0.41863999999999996,-0.745667,1.274658
2018-10-16T00:34:05.733685Z,-1.193298,-0.8871459999999999,-0.264954
2018-10-16T00:34:05.931685Z,-1.0789790000000001,0.21759,-0.697144
2018-10-16T00:34:06.130685Z,-1.250732,0.464966,-1.083435
2018-10-16T00:34:06.329685Z,-0.685791,-0.833191,2.2924189999999998
2018-10-16T00:34:06.524685Z,-0.767883,-0.881042,-0.824219
2018-10-16T00:34:06.724685Z,-0.7307739999999999,-1.450928,-0.258362
2018-10-16T00:34:06.925685Z,-1.782166,-0.376404,2.787537
2018-10-16T00:34:07.124685Z,-1.616516,0.793579,-0.735046
2018-10-16T00:34:07.324685Z,-0.978699,0.977356,-0.366638
2018-10-16T00:34:07.525685Z,-0.42443800000000004,-1.4046020000000001,3.2911989999999998
2018-10-16T00:34:07.724685Z,-0.169495,-0.161865,-0.8787229999999999
2018-10-16T00:34:07.952685Z,-0.658081,0.610413,-0.12078900000000001
2018-10-16T00:34:08.121685Z,-1.141846,0.946045,0.513733
2018-10-16T00:34:08.330685Z,-1.638184,-0.588074,-1.4021
2018-10-16T00:34:08.529685Z,-2.015747,0.627869,-1.203003
2018-10-16T00:34:08.724685Z,-1.076782,1.015686,-0.136902
2018-10-16T00:34:08.923685Z,-1.031372,-0.062317,2.026733
2018-10-16T00:34:09.124685Z,-0.601318,0.880676,-1.907837
2018-10-16T00:34:09.323685Z,-0.482483,0.649963,-0.29998800000000003
2018-10-16T00:34:09.542685Z,-1.007568,-1.406128,4.028015
2018-10-16T00:34:09.730685Z,-0.42456099999999997,-0.586731,-1.06427
2018-10-16T00:34:09.942685Z,-0.092285,-0.718445,0.177979
2018-10-16T00:34:10.126685Z,-0.733643,0.394592,-0.8652340000000001
2018-10-16T00:34:10.325685Z,-0.052673000000000005,-0.120728,0.043701
2018-10-16T00:34:10.525685Z,0.9174190000000001,-0.427124,0.7361449999999999
2018-10-16T00:34:10.724685Z,-0.007019,0.27331500000000003,-0.122925
2018-10-16T00:34:10.924685Z,-1.481384,0.6812739999999999,-0.0072629999999999995
2018-10-16T00:34:11.124685Z,0.38855,-1.670959,0.207458
2018-10-16T00:34:11.324685Z,-0.136536,-0.059142999999999994,-1.529297
2018-10-16T00:34:11.530685Z,-0.720093,0.961975,0.49346899999999994
2018-10-16T00:34:11.729685Z,-0.928284,-0.239075,1.572449
2018-10-16T00:34:11.929685Z,-0.174927,-0.9932860000000001,0.0014039999999999999
2018-10-16T00:34:12.127685Z,-0.146484,-0.561707,0.492859
2018-10-16T00:34:12.321685Z,-0.418396,0.344666,-0.103699
2018-10-16T00:34:12.523685Z,-0.8605959999999999,-0.371399,1.2139280000000001
2018-10-16T00:34:12.720685Z,-2.338684,-0.9017940000000001,0.011658
2018-10-16T00:34:12.924685Z,-2.356934,-0.20770300000000003,0.281494
2018-10-16T00:34:13.125685Z,-0.89325,-0.204407,1.808655
2018-10-16T00:34:13.326685Z,0.127502,0.812439,-0.96698
2018-10-16T00:34:13.523685Z,-0.596252,-0.480042,0.738464
2018-10-16T00:34:13.724685Z,-0.2901,0.233093,0.231812
2018-10-16T00:34:13.924685Z,-0.7590939999999999,0.797791,0.431396
2018-10-16T00:34:14.125685Z,-0.958374,-1.37439,1.011047
2018-10-16T00:34:14.328685Z,-0.645325,-0.282104,-0.5192869999999999
2018-10-16T00:34:14.526685Z,-0.5495,-0.073853,-0.81897
2018-10-16T00:34:14.726685Z,-0.116577,-0.317139,-1.173767
2018-10-16T00:34:14.921685Z,-0.704041,-0.641296,1.040833
2018-10-16T00:34:15.120685Z,0.100159,0.472229,-0.39770500000000003
2018-10-16T00:34:15.321685Z,1.216797,2.010681,0.7379760000000001
2018-10-16T00:34:15.524685Z,-1.099609,-1.006165,1.48468
2018-10-16T00:34:15.724685Z,0.233337,-1.228577,-0.649658
2018-10-16T00:34:15.924685Z,0.035644999999999996,-0.787903,-0.334412
2018-10-16T00:34:16.123685Z,-0.330505,0.32489,-0.431824
2018-10-16T00:34:16.325685Z,0.025757,0.356323,0.548523
2018-10-16T00:34:16.521685Z,0.061828999999999995,-0.5469970000000001,2.95752
2018-10-16T00:34:16.756685Z,1.725281,-0.7931520000000001,0.513977
2018-10-16T00:34:16.926685Z,1.154358,0.08728,-0.198425
2018-10-16T00:34:17.124685Z,1.516724,0.8828739999999999,-0.702087
2018-10-16T00:34:17.324685Z,0.807617,1.4816280000000002,0.433655
2018-10-16T00:34:17.526685Z,-0.144287,0.814087,-0.154419
2018-10-16T00:34:17.724685Z,-0.8258059999999999,-1.252808,1.473755
2018-10-16T00:34:18.127685Z,-0.496704,0.20538299999999998,-1.206909
2018-10-16T00:34:18.324685Z,-0.48730500000000004,1.0338129999999999,-0.522705
2018-10-16T00:34:18.528685Z,0.045471,0.763123,0.20544400000000002
2018-10-16T00:34:18.729685Z,0.358643,-0.174011,-0.768311
2018-10-16T00:34:18.945685Z,0.5230100000000001,-0.511841,0.48645
2018-10-16T00:34:19.130685Z,0.846008,0.627869,-0.12103299999999999
2018-10-16T00:34:19.330685Z,0.78479,0.7719729999999999,-0.7146
2018-10-16T00:34:19.528685Z,0.5238649999999999,0.799622,0.073059
2018-10-16T00:34:19.729685Z,-0.924866,-0.055298,0.5588380000000001
2018-10-16T00:34:19.925685Z,-0.199707,-0.439209,-0.045288
2018-10-16T00:34:20.124685Z,-0.413574,-0.248779,-0.520752
2018-10-16T00:34:20.324685Z,-1.418579,1.124878,0.966309
2018-10-16T00:34:20.527685Z,0.035583,-1.3062129999999998,4.038818
2018-10-16T00:34:20.724685Z,0.57312,-1.089539,-0.771545
2018-10-16T00:34:20.931685Z,-0.188171,0.342896,-0.446533
2018-10-16T00:34:21.133685Z,-1.097595,-0.946594,1.656494
2018-10-16T00:34:21.326685Z,-0.799377,-1.465881,0.347656
2018-10-16T00:34:21.545685Z,-0.512451,-1.505127,1.9447020000000002
2018-10-16T00:34:21.730685Z,-0.25500500000000004,-0.364319,0.303589
2018-10-16T00:34:21.930685Z,-0.4505,-0.274658,0.003235
2018-10-16T00:34:22.129685Z,-0.8516239999999999,0.011292,0.091736
2018-10-16T00:34:22.321685Z,-1.369263,0.701843,-0.659058
2018-10-16T00:34:22.521685Z,-0.57489,0.5386350000000001,0.23791500000000002
2018-10-16T00:34:22.723685Z,-0.289612,0.5311279999999999,-0.433228
2018-10-16T00:34:22.924685Z,-0.35388200000000003,-0.451111,-1.3340450000000001
2018-10-16T00:34:23.130685Z,0.416199,-0.254578,-0.836975
2018-10-16T00:34:23.325685Z,-1.3031620000000002,1.501282,0.682068
2018-10-16T00:34:23.530685Z,-1.066223,-1.704407,3.19928
2018-10-16T00:34:23.731685Z,-1.6542970000000001,-0.892395,-0.58844
2018-10-16T00:34:23.938685Z,-1.310547,-0.6031489999999999,0.741211
2018-10-16T00:34:24.125685Z,-1.218567,-0.08038300000000001,-0.5802
2018-10-16T00:34:24.325685Z,-1.5757450000000002,-0.994873,1.413635
2018-10-16T00:34:24.537685Z,-1.6863400000000002,-0.136414,0.020142
2018-10-16T00:34:24.731685Z,-1.614563,0.07055700000000001,-0.638916
2018-10-16T00:34:24.930685Z,-2.478271,-0.555725,-0.056213
2018-10-16T00:34:25.130685Z,-2.152161,0.392212,0.061767999999999997
2018-10-16T00:34:25.324685Z,-1.19696,1.408203,-0.597595
2018-10-16T00:34:25.525685Z,-0.609375,1.131836,-1.022461
2018-10-16T00:34:25.725685Z,-0.363098,-0.17218,-2.032654
2018-10-16T00:34:25.924685Z,-0.184937,0.206604,-1.8965450000000001
2018-10-16T00:34:26.124685Z,-0.557495,1.8836669999999998,0.68396
2018-10-16T00:34:26.324685Z,-0.965698,0.959045,0.137573
2018-10-16T00:34:26.530685Z,-2.1995240000000003,-0.902466,-1.166016
2018-10-16T00:34:26.715685Z,-1.075256,0.48101800000000006,-0.625488
2018-10-16T00:34:26.930685Z,-1.0639040000000002,0.503418,0.236145
2018-10-16T00:34:27.125685Z,-0.9855959999999999,-0.75354,2.807495
2018-10-16T00:34:27.325685Z,-0.071167,-0.63855,0.0058590000000000005
2018-10-16T00:34:27.530685Z,0.011963,-0.246277,0.084717
2018-10-16T00:34:27.729685Z,0.40570100000000003,0.195801,-0.19165
2018-10-16T00:34:27.930685Z,0.8238530000000001,0.49585,0.387268
2018-10-16T00:34:28.131685Z,0.857605,1.005737,0.656616
2018-10-16T00:34:28.324685Z,-1.506653,-1.299683,-0.160583
2018-10-16T00:34:28.524685Z,-1.517151,0.00647,-1.401367
2018-10-16T00:34:28.723685Z,-1.191223,0.44207799999999997,-0.9641719999999999
2018-10-16T00:34:28.924685Z,-1.265076,-0.148621,-0.049255
2018-10-16T00:34:29.127685Z,-1.845459,-0.185364,-0.792542
2018-10-16T00:34:29.323685Z,-0.8935549999999999,-0.326782,0.006775
2018-10-16T00:34:29.531685Z,-0.43456999999999996,-0.15020799999999998,-0.15545699999999998
2018-10-16T00:34:29.730685Z,-0.593689,-0.011719,-0.226318
2018-10-16T00:34:29.927685Z,-1.5646360000000001,-0.54303,-1.035767
2018-10-16T00:34:30.328685Z,-1.408875,1.342529,-0.6283569999999999
2018-10-16T00:34:30.722685Z,-0.414307,-0.9821780000000001,4.408936
2018-10-16T00:34:30.923685Z,0.124573,-0.368164,-2.18512
2018-10-16T00:34:31.124685Z,-0.505798,1.091736,-1.1159059999999998
2018-10-16T00:34:31.336685Z,-1.244446,1.241028,-0.00061
2018-10-16T00:34:31.525685Z,-1.689819,-1.036987,-1.179626
2018-10-16T00:34:31.723685Z,-0.973999,-0.38049299999999997,0.12646500000000002
2018-10-16T00:34:31.927685Z,-1.707825,0.546936,-0.484741
2018-10-16T00:34:32.124685Z,-1.230408,0.571411,-0.644592
2018-10-16T00:34:32.322685Z,-1.055481,0.951782,-1.025146
2018-10-16T00:34:32.528685Z,-0.779724,0.058960000000000005,1.098328
2018-10-16T00:34:32.724685Z,-0.373596,-0.720276,-1.034912
2018-10-16T00:34:32.923685Z,-0.134888,0.519714,-0.582642
2018-10-16T00:34:33.123685Z,0.23425300000000002,0.8700559999999999,0.8564450000000001
2018-10-16T00:34:33.323685Z,-0.9434809999999999,-0.765564,-1.484497
2018-10-16T00:34:33.523685Z,-1.075134,-0.650574,-1.338501
2018-10-16T00:34:33.727685Z,-1.193115,-0.06072999999999999,0.09320099999999999
2018-10-16T00:34:33.930685Z,-1.286499,0.8671260000000001,0.22979699999999997
2018-10-16T00:34:34.129685Z,-0.265015,-1.330078,0.346069
2018-10-16T00:34:34.331685Z,0.018921,-1.016968,0.31567399999999995
2018-10-16T00:34:34.524685Z,-0.28833000000000003,-0.101135,-0.326538
2018-10-16T00:34:34.727685Z,0.337219,-0.055298,0.160583
2018-10-16T00:34:34.939685Z,0.152832,0.464966,0.155884
2018-10-16T00:34:35.124685Z,-0.112061,0.8369139999999999,0.561951
2018-10-16T00:34:35.323685Z,-1.070129,-0.065552,0.358215
2018-10-16T00:34:35.524685Z,-0.726318,0.029358,-0.30236799999999997
2018-10-16T00:34:35.724685Z,-0.9908450000000001,0.583008,-1.190552
2018-10-16T00:34:35.932685Z,-0.536499,1.369385,1.520386
2018-10-16T00:34:36.124685Z,-0.201233,-0.63031,0.140625
2018-10-16T00:34:36.326685Z,0.425598,-0.327454,-2.278809
2018-10-16T00:34:36.530685Z,-0.24939,1.0608520000000001,-0.891418
2018-10-16T00:34:36.729685Z,-0.882568,-1.529907,3.298828
2018-10-16T00:34:36.936685Z,-0.9878540000000001,-0.6184689999999999,-0.965881
2018-10-16T00:34:37.129685Z,-0.9495239999999999,0.047791,-0.219727
2018-10-16T00:34:37.376685Z,-0.564941,0.43084700000000004,0.362244
2018-10-16T00:34:37.521685Z,-0.20165999999999998,-1.331604,0.8305049999999999
2018-10-16T00:34:37.728685Z,0.153809,-0.408752,-0.513306
2018-10-16T00:34:37.930685Z,-0.130615,0.28930700000000004,-0.149841
2018-10-16T00:34:38.131685Z,0.129028,1.070435,-0.293152
2018-10-16T00:34:38.323685Z,-0.320312,-0.6213989999999999,1.821045
2018-10-16T00:34:38.525685Z,-1.90155,-1.842224,1.128479
2018-10-16T00:34:38.726685Z,-0.950867,-0.001953,0.893066
2018-10-16T00:34:38.924685Z,-0.642883,0.5658569999999999,1.551758
2018-10-16T00:34:39.124685Z,-0.135925,-2.38269,1.2360229999999999
2018-10-16T00:34:39.319685Z,-0.917175,0.04303,-0.69458
2018-10-16T00:34:39.523685Z,-0.513672,0.069336,0.5766600000000001
2018-10-16T00:34:39.730685Z,-1.952393,-1.666626,0.28320300000000004
2018-10-16T00:34:39.923685Z,-1.177979,-1.404053,-0.44281000000000004
2018-10-16T00:34:40.125685Z,-2.325073,0.9650270000000001,-5.888794
2018-10-16T00:34:40.323685Z,-1.6445919999999998,-0.170349,-0.079834
2018-10-16T00:34:40.535685Z,-1.0665280000000001,0.10516400000000001,0.11499000000000001
2018-10-16T00:34:40.741685Z,-1.856079,0.28302,-0.46637
2018-10-16T00:34:40.924685Z,-1.541321,0.429749,0.270386
2018-10-16T00:34:41.124685Z,-2.70813,0.031494,2.364624
2018-10-16T00:34:41.326685Z,-2.4685669999999997,-3.4283449999999998,-0.21215799999999999
2018-10-16T00:34:41.524685Z,-4.420776,-3.166992,0.310425
2018-10-16T00:34:41.724685Z,-1.685974,0.228027,2.736389
2018-10-16T00:34:41.924685Z,-1.284241,0.443604,-1.525635
2018-10-16T00:34:42.124685Z,0.645691,1.924866,-1.0961299999999998
2018-10-16T00:34:42.341685Z,0.9320069999999999,0.578674,-0.848633
2018-10-16T00:34:42.531685Z,0.567749,2.0960080000000003,-0.290894
2018-10-16T00:34:42.791685Z,-1.987915,1.8637700000000001,0.275024
2018-10-16T00:34:42.930685Z,-0.923523,2.0421139999999998,-2.1065669999999996
2018-10-16T00:34:43.133685Z,0.44805900000000004,1.090027,0.344788
2018-10-16T00:34:43.331685Z,-0.490234,0.9855959999999999,0.202515
2018-10-16T00:34:43.528685Z,-0.178894,1.734314,0.604431
2018-10-16T00:34:43.726685Z,-3.078064,0.9026489999999999,2.274353
2018-10-16T00:34:43.924685Z,-1.701599,1.509827,-2.563171
2018-10-16T00:34:44.125685Z,-1.6119379999999999,2.138855,0.8295290000000001
2018-10-16T00:34:44.325685Z,-1.073242,1.492615,-3.084351
2018-10-16T00:34:44.526685Z,-0.588989,1.024109,-0.365662
2018-10-16T00:34:44.723685Z,-3.076477,1.39856,0.266602
2018-10-16T00:34:45.145685Z,-1.152344,1.0896,-2.0949709999999997
2018-10-16T00:34:45.324685Z,-1.985352,2.100525,2.280396
2018-10-16T00:34:45.534685Z,-1.640869,1.4227290000000001,-0.280396
2018-10-16T00:34:45.726685Z,-1.41272,1.1045530000000001,-1.2099
2018-10-16T00:34:45.995685Z,-2.551758,1.713928,0.737793
2018-10-16T00:34:46.120685Z,-1.54364,1.094177,-1.035217
2018-10-16T00:34:46.335685Z,-0.826355,1.809937,-0.9922489999999999
2018-10-16T00:34:46.546685Z,-0.6228640000000001,1.1597899999999999,-0.47003199999999995
2018-10-16T00:34:46.722685Z,-1.5164790000000001,1.9053959999999999,-0.11322
2018-10-16T00:34:46.926685Z,-2.743652,1.8229369999999998,-0.07757599999999999
2018-10-16T00:34:47.125685Z,-1.389832,0.462463,-0.6073
2018-10-16T00:34:47.324685Z,-0.997742,1.396667,-1.9532470000000002
2018-10-16T00:34:47.524685Z,-1.0893549999999999,-0.447144,4.521667
2018-10-16T00:34:47.724685Z,-1.262939,0.41748,-0.619324
2018-10-16T00:34:47.927685Z,-0.762756,0.805603,-0.46588100000000005
2018-10-16T00:34:48.130685Z,-2.123169,0.395386,-0.303284
2018-10-16T00:34:48.330685Z,0.43603500000000006,-1.5090940000000002,1.5983889999999998
2018-10-16T00:34:48.538685Z,-1.227112,0.043274,0.356995
2018-10-16T00:34:48.734685Z,-1.538025,0.7905270000000001,-0.867065
2018-10-16T00:34:48.926685Z,-1.054565,0.6870729999999999,0.39306599999999997
2018-10-16T00:34:49.131685Z,0.713013,0.428284,0.692627
2018-10-16T00:34:49.326685Z,-0.134705,0.941895,-0.375977
2018-10-16T00:34:49.524685Z,-0.015563999999999998,2.09845,-0.5587770000000001
2018-10-16T00:34:49.724685Z,-0.5410159999999999,2.382202,0.396484
2018-10-16T00:34:49.925685Z,-3.18927,-0.625854,-1.596802
2018-10-16T00:34:50.133685Z,-2.35968,-0.023375999999999997,-0.635681
2018-10-16T00:34:50.339685Z,-2.141968,0.91864,-2.101562
2018-10-16T00:34:50.530685Z,-1.7937009999999998,1.156372,-0.5505979999999999
2018-10-16T00:34:50.742685Z,-1.7281490000000002,1.016541,-0.287659
2018-10-16T00:34:50.936685Z,-0.7912600000000001,1.122681,-1.8055419999999998
2018-10-16T00:34:51.126685Z,-0.126404,-0.248962,-1.979675
2018-10-16T00:34:51.325685Z,-0.5333859999999999,-0.009033,0.349487
2018-10-16T00:34:51.525685Z,-0.81134,2.211426,-0.108582
2018-10-16T00:34:51.724685Z,-1.8625490000000002,1.56781,-0.222046
2018-10-16T00:34:51.924685Z,-1.604614,-1.206482,-1.822632
2018-10-16T00:34:52.126685Z,-1.066467,0.766113,0.21020500000000003
2018-10-16T00:34:52.326685Z,-0.95575,0.533875,-0.080139
2018-10-16T00:34:52.520685Z,-0.95575,0.360291,0.588806
2018-10-16T00:34:52.757685Z,-0.650208,-0.419861,-0.55304
2018-10-16T00:34:52.924685Z,-0.799561,0.359802,-0.233521
