Datetime,accx,accy,accz
2018-10-17T16:15:51.250127Z,-0.372375,0.183411,0.23706100000000002
2018-10-17T16:15:51.452127Z,1.180725,3.7476809999999996,-1.005188
2018-10-17T16:15:51.654127Z,0.330872,-0.639954,0.171265
2018-10-17T16:15:51.851127Z,2.091858,-1.58606,1.653503
2018-10-17T16:15:52.051127Z,0.903442,-1.264893,-1.628601
2018-10-17T16:15:52.251127Z,-0.641907,0.363464,2.788452
2018-10-17T16:15:52.451127Z,-1.025269,-3.009216,1.46167
2018-10-17T16:15:52.651127Z,0.337769,-2.1615599999999997,-0.664795
2018-10-17T16:15:52.877127Z,1.740906,-1.5516969999999999,3.191406
2018-10-17T16:15:53.051127Z,1.77478,-2.1163939999999997,1.192078
2018-10-17T16:15:53.252127Z,-1.383545,-1.100098,-0.271545
2018-10-17T16:15:53.454127Z,-0.7791140000000001,-2.269287,0.90094
2018-10-17T16:15:53.652127Z,0.752991,-1.092773,-1.172607
2018-10-17T16:15:53.852127Z,3.031372,-2.0480959999999997,2.001648
2018-10-17T16:15:54.051127Z,0.28717,-1.094666,-0.8685299999999999
2018-10-17T16:15:54.259127Z,-2.179443,-1.056458,1.670288
2018-10-17T16:15:54.457127Z,-1.243835,-2.956238,-1.2005
2018-10-17T16:15:54.660127Z,1.236267,-1.766968,1.099548
2018-10-17T16:15:54.855127Z,0.768066,-2.256042,1.012268
2018-10-17T16:15:55.063127Z,-0.931213,-0.5992430000000001,0.102905
2018-10-17T16:15:55.250127Z,0.056396,-1.232788,1.161377
2018-10-17T16:15:55.455127Z,-0.368713,-2.171936,-1.1514280000000001
2018-10-17T16:15:55.653127Z,1.5679319999999999,-1.9275509999999998,2.743042
2018-10-17T16:15:55.852127Z,1.372925,-1.635437,0.6987300000000001
2018-10-17T16:15:56.065127Z,-1.938965,-1.408691,1.984619
2018-10-17T16:15:56.268127Z,-2.4521479999999998,-2.735718,0.810791
2018-10-17T16:15:56.448127Z,-0.075134,-1.9550169999999998,-0.15850799999999998
2018-10-17T16:15:56.653127Z,1.550232,-2.310852,1.7393189999999998
2018-10-17T16:15:56.853127Z,0.35320999999999997,-1.057922,-0.8700559999999999
2018-10-17T16:15:57.052127Z,-1.6502080000000001,-1.3198239999999999,3.325989
2018-10-17T16:15:57.264127Z,-0.71582,-3.045959,1.266418
2018-10-17T16:15:57.452127Z,-0.225952,-1.731079,-0.262146
2018-10-17T16:15:57.651127Z,-0.683655,-2.402588,2.324158
2018-10-17T16:15:57.851127Z,-0.738525,-1.052734,-1.502014
2018-10-17T16:15:58.051127Z,-2.0646970000000002,-1.568726,1.72052
2018-10-17T16:15:58.250127Z,-4.339355,-3.1294560000000002,-0.961548
2018-10-17T16:15:58.454127Z,-2.926392,-1.596436,2.021851
2018-10-17T16:15:58.652127Z,-2.371277,-2.098267,0.968872
2018-10-17T16:15:58.851127Z,-4.264221,-0.393372,-1.2180790000000001
2018-10-17T16:15:59.051127Z,-4.609314,-1.210144,-0.363525
2018-10-17T16:15:59.251127Z,-5.514465,-1.534241,1.7962650000000002
2018-10-17T16:15:59.452127Z,-3.19043,0.43267799999999995,-0.21423299999999998
2018-10-17T16:15:59.651127Z,-3.5430910000000004,-0.803833,1.472839
2018-10-17T16:15:59.842127Z,-5.686584,0.6487430000000001,0.272156
2018-10-17T16:16:00.050127Z,-2.737915,0.790283,-1.880554
2018-10-17T16:16:00.252127Z,-2.936829,1.598267,-0.64325
2018-10-17T16:16:00.448127Z,0.873657,0.786377,0.10308800000000001
2018-10-17T16:16:00.653127Z,-0.878662,1.5272219999999999,0.360413
2018-10-17T16:16:00.851127Z,-0.612,1.151672,-0.6968989999999999
2018-10-17T16:16:01.052127Z,0.8743290000000001,1.1474,-0.170593
2018-10-17T16:16:01.248127Z,0.36554000000000003,-1.13208,1.626709
2018-10-17T16:16:01.451127Z,0.527161,-1.272217,-1.472229
2018-10-17T16:16:01.652127Z,0.28241,-0.37616,0.076172
2018-10-17T16:16:01.852127Z,1.2885739999999999,-0.15686,0.427917
2018-10-17T16:16:02.051127Z,0.378906,0.31237800000000004,-0.272583
2018-10-17T16:16:02.251127Z,-0.117371,0.47821,-0.05139199999999999
2018-10-17T16:16:02.461127Z,-1.075806,0.672241,-2.470093
2018-10-17T16:16:02.652127Z,0.29541,0.12365699999999999,-0.261108
2018-10-17T16:16:02.851127Z,0.531738,0.104065,-0.362061
2018-10-17T16:16:03.062127Z,-0.188416,0.302002,0.8368530000000001
2018-10-17T16:16:03.252127Z,0.33618200000000004,0.08343500000000001,0.065979
2018-10-17T16:16:03.451127Z,0.8286129999999999,-0.5155029999999999,0.13677999999999998
2018-10-17T16:16:03.652127Z,1.782959,-0.9406129999999999,0.629761
2018-10-17T16:16:03.852127Z,-0.586975,-0.45184300000000005,-0.060486
2018-10-17T16:16:04.053127Z,0.15551800000000002,2.320923,-1.104858
2018-10-17T16:16:04.268127Z,-1.1389770000000001,1.848022,-3.095093
2018-10-17T16:16:04.452127Z,-0.555664,0.9870610000000001,-0.443237
2018-10-17T16:16:04.667127Z,0.35925300000000004,0.913818,0.231384
2018-10-17T16:16:04.858127Z,0.45062299999999994,0.559204,-0.770996
2018-10-17T16:16:05.053127Z,-0.64563,0.786133,-0.23864699999999997
2018-10-17T16:16:05.253127Z,-1.3558350000000001,1.214905,-0.9439700000000001
2018-10-17T16:16:05.483127Z,-0.38116500000000003,1.013,0.176575
2018-10-17T16:16:05.641127Z,0.8670040000000001,0.549194,0.937683
2018-10-17T16:16:06.053127Z,0.9419559999999999,-0.9547120000000001,0.27563499999999996
2018-10-17T16:16:06.251127Z,1.0944209999999999,0.49499499999999996,-0.7711180000000001
2018-10-17T16:16:06.476127Z,-0.326965,0.806702,0.719421
2018-10-17T16:16:06.649127Z,-0.9550780000000001,-1.4048459999999998,0.48931899999999995
2018-10-17T16:16:06.853127Z,0.5192260000000001,-1.067566,-0.9899290000000001
2018-10-17T16:16:07.051127Z,1.137512,-1.445435,1.7493900000000002
2018-10-17T16:16:07.252127Z,1.0916139999999999,-0.32043499999999997,-2.183533
2018-10-17T16:16:07.452127Z,-1.537109,1.424377,2.5401
2018-10-17T16:16:07.653127Z,0.270935,-1.7518919999999998,0.8571780000000001
2018-10-17T16:16:07.853127Z,1.1627809999999998,-0.947693,-0.785767
2018-10-17T16:16:08.051127Z,0.223938,-1.194275,1.559509
2018-10-17T16:16:08.275127Z,1.053833,-0.00824,-1.980347
2018-10-17T16:16:08.454127Z,1.105713,-0.738708,0.655334
2018-10-17T16:16:08.655127Z,1.234497,-2.463623,1.427673
2018-10-17T16:16:08.857127Z,2.161194,-2.741943,1.067688
2018-10-17T16:16:09.058127Z,0.486023,-1.474609,3.054199
2018-10-17T16:16:09.252127Z,0.627502,0.511353,-0.408386
2018-10-17T16:16:09.451127Z,0.8864139999999999,2.065491,0.075928
2018-10-17T16:16:09.651127Z,-1.411865,1.330933,1.9667970000000001
2018-10-17T16:16:09.854127Z,0.6660159999999999,-0.139648,0.611633
2018-10-17T16:16:10.051127Z,1.166565,1.550049,-1.0286870000000001
2018-10-17T16:16:10.258127Z,1.114685,0.8735350000000001,0.984009
2018-10-17T16:16:10.453127Z,1.423401,1.13385,-2.056885
2018-10-17T16:16:10.656127Z,-0.268311,1.3707280000000002,0.939636
2018-10-17T16:16:10.852127Z,-0.05426,0.620728,1.046997
2018-10-17T16:16:11.052127Z,-0.14325,1.502686,-0.7619020000000001
2018-10-17T16:16:11.254127Z,-1.522766,2.382629,-1.3099370000000001
2018-10-17T16:16:11.452127Z,-0.40063499999999996,1.959961,-1.02301
2018-10-17T16:16:11.652127Z,0.315247,0.8244020000000001,-0.089722
2018-10-17T16:16:11.851127Z,1.107849,1.089661,-1.296692
2018-10-17T16:16:12.051127Z,1.305725,1.960938,0.429504
2018-10-17T16:16:12.255127Z,-1.526367,0.560425,2.8405150000000003
2018-10-17T16:16:12.452127Z,1.599731,-0.504822,-1.5849
2018-10-17T16:16:12.656127Z,0.934509,0.198914,-0.9055790000000001
2018-10-17T16:16:12.857127Z,-1.16095,-0.54657,2.452759
2018-10-17T16:16:13.057127Z,1.7379759999999997,1.194458,-0.725342
2018-10-17T16:16:13.261127Z,0.072449,1.527832,-0.12396199999999999
2018-10-17T16:16:13.460127Z,-0.442993,2.1983029999999997,-0.35681199999999996
2018-10-17T16:16:13.653127Z,-0.150635,0.714417,-2.02771
2018-10-17T16:16:13.853127Z,-0.7932130000000001,1.3617549999999998,-1.786255
2018-10-17T16:16:14.052127Z,-1.184509,1.301758,0.764282
2018-10-17T16:16:14.251127Z,-0.104736,0.294617,0.778015
2018-10-17T16:16:14.452127Z,0.068176,0.350586,0.112488
2018-10-17T16:16:14.653127Z,-1.081238,1.393982,0.387817
2018-10-17T16:16:14.855127Z,-0.937622,0.327515,-0.425903
2018-10-17T16:16:15.055127Z,-0.955627,0.6306149999999999,0.032898000000000004
2018-10-17T16:16:15.252127Z,-1.8735959999999998,0.7482300000000001,-1.05072
2018-10-17T16:16:15.500127Z,-0.938477,0.898682,-0.465027
2018-10-17T16:16:15.663127Z,-0.41888400000000003,1.092651,-0.403564
2018-10-17T16:16:15.849127Z,0.141541,1.260498,-0.153198
2018-10-17T16:16:16.048127Z,0.7288819999999999,1.484497,-0.717957
2018-10-17T16:16:16.250127Z,0.470459,2.040955,-1.1655879999999998
2018-10-17T16:16:16.450127Z,-1.061523,1.5204469999999999,0.30749499999999996
2018-10-17T16:16:16.650127Z,-1.7349849999999998,1.0448,-1.098206
2018-10-17T16:16:16.851127Z,-2.04895,0.553772,-2.25885
2018-10-17T16:16:17.074127Z,-1.142212,1.445557,1.0622559999999999
2018-10-17T16:16:17.253127Z,-0.534241,0.295227,-1.330444
2018-10-17T16:16:17.454127Z,-1.986694,1.6141969999999999,-2.121643
2018-10-17T16:16:17.652127Z,-2.232056,1.7977290000000001,-0.144531
2018-10-17T16:16:17.852127Z,-3.7103269999999995,-1.0394290000000002,-0.0060420000000000005
2018-10-17T16:16:18.053127Z,-1.52478,0.629456,-0.944458
2018-10-17T16:16:18.252127Z,-0.265381,0.574951,1.325684
2018-10-17T16:16:18.452127Z,-0.327393,-0.643066,0.03186
2018-10-17T16:16:18.652127Z,-1.441711,1.1923219999999999,-1.074768
2018-10-17T16:16:18.852127Z,-1.909607,1.254089,-0.7620239999999999
2018-10-17T16:16:19.052127Z,-2.0964970000000003,0.027038999999999997,1.511536
2018-10-17T16:16:19.248127Z,-1.432434,0.174927,-0.881653
2018-10-17T16:16:19.451127Z,-0.73175,0.510559,0.488037
2018-10-17T16:16:19.651127Z,-1.8156130000000001,0.439331,-0.871338
2018-10-17T16:16:19.852127Z,-0.344116,1.6312870000000002,-0.11529500000000001
2018-10-17T16:16:20.050127Z,-0.437439,1.249023,0.30603
2018-10-17T16:16:20.252127Z,-0.767578,0.23761,-0.500488
2018-10-17T16:16:20.452127Z,-0.13555899999999999,0.16680899999999999,-1.751343
2018-10-17T16:16:20.647127Z,1.9794310000000002,0.017273,-0.385376
2018-10-17T16:16:20.851127Z,0.22894299999999998,-0.465271,-0.728394
2018-10-17T16:16:21.052127Z,-0.922791,1.084534,-1.039795
2018-10-17T16:16:21.251127Z,-0.21905500000000003,1.3078610000000002,0.077026
2018-10-17T16:16:21.452127Z,0.15673800000000002,-0.470764,0.288879
2018-10-17T16:16:21.652127Z,-0.681763,0.031127999999999996,-1.496582
2018-10-17T16:16:21.851127Z,-0.388977,1.373901,-0.053345000000000004
2018-10-17T16:16:22.053127Z,1.254944,-0.20971700000000001,0.165588
2018-10-17T16:16:22.251127Z,-0.6408689999999999,1.406677,-1.4714969999999998
2018-10-17T16:16:22.452127Z,-0.571167,2.3265990000000003,1.128235
2018-10-17T16:16:22.655127Z,-0.30188000000000004,0.423706,2.07251
2018-10-17T16:16:22.854127Z,-3.5456540000000003,-1.4421389999999998,-0.6738890000000001
2018-10-17T16:16:23.061127Z,-1.336609,-0.916199,-0.002502
2018-10-17T16:16:23.458127Z,-0.60144,0.386963,-1.0360719999999999
2018-10-17T16:16:23.653127Z,-0.999878,0.164124,-0.064941
2018-10-17T16:16:23.852127Z,-1.692261,0.17541500000000002,0.45648199999999994
2018-10-17T16:16:24.052127Z,-2.435181,0.531433,-0.15240499999999998
2018-10-17T16:16:24.251127Z,-1.022888,1.1995850000000001,-0.717957
2018-10-17T16:16:24.451127Z,-0.51593,0.570068,0.303894
2018-10-17T16:16:24.652127Z,0.7714840000000001,-0.303101,0.8446040000000001
2018-10-17T16:16:24.853127Z,0.64386,0.16076700000000002,-1.293579
2018-10-17T16:16:25.058127Z,-0.213562,0.2229,-0.135376
2018-10-17T16:16:25.252127Z,-1.90271,0.224976,2.157654
2018-10-17T16:16:25.487127Z,0.772705,-1.0401610000000001,-0.6350100000000001
2018-10-17T16:16:25.666127Z,-0.8188479999999999,-0.870483,-0.40118400000000004
2018-10-17T16:16:25.864127Z,-0.101624,-0.473999,0.239929
2018-10-17T16:16:26.061127Z,0.6464840000000001,-0.21221900000000002,0.296631
2018-10-17T16:16:26.250127Z,-0.231262,0.184326,0.332825
2018-10-17T16:16:26.453127Z,-0.7421260000000001,0.745422,-0.647644
2018-10-17T16:16:26.652127Z,-0.13458299999999998,1.305847,-0.723816
2018-10-17T16:16:26.851127Z,-0.057434000000000006,1.652771,-0.020812999999999998
2018-10-17T16:16:27.051127Z,-0.763,-0.697937,0.5821529999999999
2018-10-17T16:16:27.252127Z,-0.855225,-0.532104,-1.153931
2018-10-17T16:16:27.456127Z,-0.467041,0.460693,-0.6108399999999999
2018-10-17T16:16:27.651127Z,-0.12646500000000002,0.8806149999999999,1.057983
2018-10-17T16:16:27.853127Z,2.06665,-1.159851,0.031067
2018-10-17T16:16:28.052127Z,0.273499,0.37255900000000003,-1.4937129999999998
2018-10-17T16:16:28.256127Z,-0.533081,1.079041,-0.474915
2018-10-17T16:16:28.452127Z,-0.030029000000000004,1.067017,0.054077
2018-10-17T16:16:28.740127Z,-0.15741,-1.233765,3.639343
2018-10-17T16:16:28.851127Z,-1.015686,-1.569153,-0.993225
2018-10-17T16:16:29.058127Z,-1.106262,-1.222412,0.5627439999999999
2018-10-17T16:16:29.250127Z,-0.335022,0.0045780000000000005,-0.836304
2018-10-17T16:16:29.452127Z,-2.450012,0.111694,0.18548599999999998
2018-10-17T16:16:29.653127Z,-0.33874499999999996,0.794983,-0.5566409999999999
2018-10-17T16:16:29.853127Z,-0.096313,0.006653,0.18866
2018-10-17T16:16:30.052127Z,-0.075073,-0.837097,0.076538
2018-10-17T16:16:30.252127Z,0.330627,0.135071,-0.545349
2018-10-17T16:16:30.452127Z,-0.592834,0.809448,-0.078003
2018-10-17T16:16:30.653127Z,-1.094055,-0.47052,2.029358
2018-10-17T16:16:30.857127Z,-0.501709,-1.585815,0.277039
2018-10-17T16:16:31.120127Z,0.681946,-0.951111,0.336121
2018-10-17T16:16:31.259127Z,0.778503,-1.061523,0.24548299999999998
2018-10-17T16:16:31.461127Z,1.192688,-1.278015,-0.595154
2018-10-17T16:16:31.667127Z,0.8538209999999999,-0.20697,-0.523804
2018-10-17T16:16:31.859127Z,-0.106995,0.222473,0.20471199999999998
2018-10-17T16:16:32.052127Z,0.680908,1.8012080000000001,-0.502808
2018-10-17T16:16:32.249127Z,0.217896,0.939209,0.47644
2018-10-17T16:16:32.457127Z,-0.036255,-2.523315,-0.160461
2018-10-17T16:16:32.654127Z,-0.217957,-0.65564,-1.237732
2018-10-17T16:16:32.853127Z,-0.344727,1.285767,-0.641174
2018-10-17T16:16:33.060127Z,-0.52356,1.265747,-0.15551800000000002
2018-10-17T16:16:33.254127Z,0.144043,-1.577576,5.00592
2018-10-17T16:16:33.457127Z,0.32055700000000004,-1.139404,-1.8829349999999998
2018-10-17T16:16:33.654127Z,0.207092,-0.41479499999999997,-0.16009500000000002
2018-10-17T16:16:33.867127Z,0.405029,-0.42041000000000006,3.8259279999999998
2018-10-17T16:16:34.057127Z,1.331543,-1.858154,1.2276610000000001
2018-10-17T16:16:34.257127Z,1.354187,-0.379089,0.6672359999999999
2018-10-17T16:16:34.452127Z,0.825684,0.57428,-0.033447000000000005
2018-10-17T16:16:34.652127Z,2.349609,-0.10571300000000002,0.47729499999999997
2018-10-17T16:16:34.855127Z,0.863708,0.15020799999999998,-0.566956
2018-10-17T16:16:35.052127Z,-0.18573,2.3588869999999997,0.021912
2018-10-17T16:16:35.252127Z,0.038452,1.7568970000000002,-1.300598
2018-10-17T16:16:35.474127Z,-0.088684,-0.9076540000000001,0.019836000000000003
2018-10-17T16:16:35.860127Z,0.009276999999999999,-0.035278,-0.46948199999999995
2018-10-17T16:16:36.065127Z,1.173889,0.951782,0.43255600000000005
2018-10-17T16:16:36.255127Z,0.8306879999999999,-0.523621,-1.892639
2018-10-17T16:16:36.453127Z,-0.20776399999999998,1.322815,-0.196167
2018-10-17T16:16:36.711127Z,0.21435500000000002,0.8914790000000001,0.163574
2018-10-17T16:16:36.857127Z,0.35131799999999996,0.9287110000000001,-0.165955
2018-10-17T16:16:37.059127Z,-0.12103299999999999,0.848145,-0.002625
2018-10-17T16:16:37.254127Z,0.798584,0.684753,-0.224976
2018-10-17T16:16:37.452127Z,0.792725,0.150635,-1.379944
2018-10-17T16:16:37.653127Z,0.41766400000000004,0.864136,0.577026
2018-10-17T16:16:37.852127Z,-0.033997,0.392761,-0.5221560000000001
2018-10-17T16:16:38.052127Z,0.139099,0.7615970000000001,-1.070496
2018-10-17T16:16:38.253127Z,0.224976,0.337463,1.5153809999999999
2018-10-17T16:16:38.460127Z,0.06225599999999999,0.9292600000000001,-0.360535
2018-10-17T16:16:38.655127Z,-0.282959,1.177612,-0.47210699999999994
2018-10-17T16:16:38.858127Z,-0.507019,0.931213,-0.892273
2018-10-17T16:16:39.066127Z,-1.064453,1.426331,-0.327209
2018-10-17T16:16:39.259127Z,-0.09448200000000001,1.455322,-0.969849
2018-10-17T16:16:39.450127Z,-0.44329799999999997,-0.5275880000000001,1.09906
2018-10-17T16:16:39.649127Z,-0.817566,0.100159,-0.552979
2018-10-17T16:16:39.855127Z,0.07733200000000001,0.49054,-1.051941
2018-10-17T16:16:40.052127Z,-1.865784,-0.719971,2.101929
2018-10-17T16:16:40.251127Z,-0.8457030000000001,-0.515686,-1.430725
2018-10-17T16:16:40.451127Z,-0.430908,-0.048767000000000005,1.246399
2018-10-17T16:16:40.717127Z,-0.6002810000000001,-1.504944,-0.11828599999999999
2018-10-17T16:16:40.866127Z,-1.06134,-0.425598,-0.593567
2018-10-17T16:16:41.070127Z,-0.5257569999999999,0.26318400000000003,-0.209351
2018-10-17T16:16:41.257127Z,-0.63855,-0.294067,0.711731
2018-10-17T16:16:41.451127Z,-1.548462,-0.764648,-0.5375979999999999
2018-10-17T16:16:41.652127Z,-0.43444799999999995,1.0603639999999999,-0.766724
2018-10-17T16:16:41.842127Z,0.855713,-0.044067,1.5142209999999998
2018-10-17T16:16:42.053127Z,0.197449,-1.284668,-0.988892
2018-10-17T16:16:42.252127Z,-0.25488299999999997,0.141541,0.561157
2018-10-17T16:16:42.453127Z,-0.476807,0.748901,-0.336792
2018-10-17T16:16:42.658127Z,-2.6023560000000003,-0.980042,6.344482
2018-10-17T16:16:42.862127Z,-0.857361,-1.539795,-0.4953
2018-10-17T16:16:43.072127Z,-1.158875,-0.535828,1.5679319999999999
2018-10-17T16:16:43.258127Z,-1.0772709999999999,-0.348145,-0.502808
2018-10-17T16:16:43.462127Z,-2.7230220000000003,-0.025146,-0.6563720000000001
2018-10-17T16:16:43.652127Z,-1.4245,0.355103,-0.729248
2018-10-17T16:16:43.852127Z,-0.658325,0.203735,0.6245729999999999
2018-10-17T16:16:44.053127Z,-0.213745,-0.710449,0.168701
2018-10-17T16:16:44.253127Z,0.771057,0.379089,0.008911
2018-10-17T16:16:44.453127Z,-1.383362,0.147705,-0.290405
2018-10-17T16:16:44.653127Z,-0.584106,-1.601746,1.840393
2018-10-17T16:16:44.852127Z,0.708191,-0.953491,-2.0398560000000003
2018-10-17T16:16:45.064127Z,-0.8200069999999999,-0.429138,0.423401
2018-10-17T16:16:45.258127Z,-2.017212,-1.985962,2.5004880000000003
2018-10-17T16:16:45.521127Z,-1.001465,-1.292664,-0.05139199999999999
2018-10-17T16:16:45.652127Z,0.014771000000000001,-0.34936500000000004,0.29370100000000005
2018-10-17T16:16:45.857127Z,-0.005065999999999999,-0.7964479999999999,0.403564
2018-10-17T16:16:46.058127Z,0.47576899999999994,-0.663269,0.349426
2018-10-17T16:16:46.252127Z,0.722534,-1.185425,-0.450378
2018-10-17T16:16:46.451127Z,1.20343,-0.8961180000000001,-0.283997
2018-10-17T16:16:46.658127Z,-0.249207,0.28936799999999996,-0.80835
2018-10-17T16:16:46.852127Z,-1.492859,0.47296099999999996,-0.839111
2018-10-17T16:16:47.051127Z,-1.452393,0.352234,-0.41259799999999996
2018-10-17T16:16:47.252127Z,-0.00293,2.333801,0.002686
2018-10-17T16:16:47.449127Z,-2.0015259999999997,0.051208000000000004,1.031311
2018-10-17T16:16:47.652127Z,-0.816956,0.5679930000000001,-1.938843
2018-10-17T16:16:47.852127Z,-0.991394,2.0736689999999998,-0.118774
2018-10-17T16:16:48.066127Z,0.52179,0.096313,0.257812
2018-10-17T16:16:48.249127Z,-0.67572,-0.774536,-0.690979
2018-10-17T16:16:48.457127Z,-0.78363,-0.147705,-0.663574
2018-10-17T16:16:48.858127Z,-0.839966,0.7573850000000001,-0.035461
2018-10-17T16:16:49.052127Z,-0.420959,1.722107,-0.494568
2018-10-17T16:16:49.254127Z,0.464783,-0.271606,-0.416504
2018-10-17T16:16:49.453127Z,2.744995,-0.862244,0.748596
2018-10-17T16:16:49.652127Z,0.8537600000000001,-0.772766,0.9291379999999999
2018-10-17T16:16:49.852127Z,0.162659,-0.21722399999999997,-0.269165
2018-10-17T16:16:50.052127Z,0.302612,0.284851,-0.203979
2018-10-17T16:16:50.253127Z,-0.011536,-0.022827,-0.204224
2018-10-17T16:16:50.457127Z,-0.34674099999999997,-0.122375,-0.182007
2018-10-17T16:16:50.664127Z,0.851807,-0.56665,-0.007384999999999999
2018-10-17T16:16:50.855127Z,0.8634639999999999,-0.203491,0.097778
2018-10-17T16:16:51.050127Z,0.677307,-0.295471,-0.737427
2018-10-17T16:16:51.250127Z,0.428345,-0.150024,-0.007201999999999999
2018-10-17T16:16:51.449127Z,-0.321167,-0.11456300000000001,-0.170593
2018-10-17T16:16:51.652127Z,-1.2841799999999999,1.3728639999999999,-0.142151
2018-10-17T16:16:51.851127Z,-0.742432,1.2890620000000002,-0.820801
2018-10-17T16:16:52.052127Z,-0.7262569999999999,1.064819,-0.351074
2018-10-17T16:16:52.252127Z,-0.373413,-1.371765,0.14562999999999998
2018-10-17T16:16:52.452127Z,0.037964,-1.449707,-3.410767
2018-10-17T16:16:52.653127Z,-0.68457,0.379333,1.094482
2018-10-17T16:16:52.854127Z,-0.8518680000000001,-0.053345000000000004,1.7977290000000001
2018-10-17T16:16:53.053127Z,-1.088745,-0.07257100000000001,-0.694275
2018-10-17T16:16:53.300127Z,-2.138,0.707336,-1.64978
2018-10-17T16:16:53.468127Z,-0.926636,-0.674133,0.858093
2018-10-17T16:16:53.659127Z,-2.683289,-2.171997,-0.10919200000000001
2018-10-17T16:16:53.855127Z,-3.029419,-0.915588,0.664429
2018-10-17T16:16:54.052127Z,-2.050598,-0.136047,-0.8027340000000001
2018-10-17T16:16:54.252127Z,-1.286194,-0.103027,-1.426331
2018-10-17T16:16:54.453127Z,-0.731079,0.019348,-0.43774399999999997
2018-10-17T16:16:54.652127Z,0.264893,-1.027832,-2.224304
2018-10-17T16:16:54.852127Z,-0.546143,0.272949,-0.55365
2018-10-17T16:16:55.051127Z,-1.3798219999999999,0.7964479999999999,0.681335
2018-10-17T16:16:55.251127Z,-1.356323,-1.137329,-0.27533
2018-10-17T16:16:55.492127Z,-0.395752,-0.231079,-1.589661
2018-10-17T16:16:55.668127Z,-0.386536,0.061401,0.359802
2018-10-17T16:16:55.863127Z,-0.441284,-1.088196,4.30011
2018-10-17T16:16:56.063127Z,-0.089478,-1.869446,-1.019714
2018-10-17T16:16:56.263127Z,-1.1049799999999999,-0.8358760000000001,0.432007
2018-10-17T16:16:56.520127Z,-0.278198,-0.398499,1.36676
2018-10-17T16:16:56.670127Z,-0.095581,-0.233704,-0.274536
2018-10-17T16:16:56.869127Z,-0.599182,-0.28179899999999997,0.04657
2018-10-17T16:16:57.068127Z,1.408936,-0.207581,-0.352783
2018-10-17T16:16:57.262127Z,0.661377,-0.887573,-0.556763
2018-10-17T16:16:57.465127Z,1.357483,0.14917,0.608826
2018-10-17T16:16:57.676127Z,-1.095459,0.158447,-0.7106319999999999
2018-10-17T16:16:57.862127Z,-1.6644290000000002,1.828918,-1.197571
2018-10-17T16:16:58.062127Z,0.643738,0.991028,1.507263
2018-10-17T16:16:58.254127Z,-1.719238,0.642944,-0.44830299999999995
2018-10-17T16:16:58.468127Z,-0.11511199999999999,2.074219,-0.65155
2018-10-17T16:16:58.666127Z,-0.435608,1.39856,0.108948
2018-10-17T16:16:58.862127Z,-2.0199580000000004,-0.582947,0.017639
2018-10-17T16:16:59.058127Z,-0.613342,0.226379,-2.6696169999999997
2018-10-17T16:16:59.262127Z,-0.358154,1.4770510000000001,1.126831
2018-10-17T16:16:59.462127Z,-0.554077,-0.152039,-0.435852
2018-10-17T16:16:59.663127Z,-0.104004,0.191589,-1.426025
2018-10-17T16:16:59.863127Z,-0.497192,0.7011109999999999,0.64978
2018-10-17T16:17:00.063127Z,-0.409912,0.198792,2.4115599999999997
2018-10-17T16:17:00.501127Z,0.271973,-0.176208,-1.082458
2018-10-17T16:17:00.697127Z,-0.150818,0.584412,-0.704041
2018-10-17T16:17:00.897127Z,0.487183,0.630798,-0.387878
2018-10-17T16:17:01.092127Z,-0.094238,-0.735291,0.11492899999999999
2018-10-17T16:17:01.291127Z,-1.1015620000000002,-0.352173,0.078308
2018-10-17T16:17:01.493127Z,-0.719116,0.9103389999999999,-0.08081100000000001
2018-10-17T16:17:01.692127Z,0.15545699999999998,0.8389280000000001,0.050781
2018-10-17T16:17:01.892127Z,-1.852295,-0.960938,1.082092
2018-10-17T16:17:02.092127Z,-1.027405,-0.704651,-0.745728
2018-10-17T16:17:02.297127Z,-0.616333,-0.194275,0.033325
2018-10-17T16:17:02.498127Z,0.16009500000000002,-0.255798,0.036499000000000004
2018-10-17T16:17:02.693127Z,0.64093,-0.62915,-0.680847
2018-10-17T16:17:02.892127Z,-1.665344,-0.44647200000000004,0.7113649999999999
2018-10-17T16:17:03.093127Z,-1.251587,-1.149658,0.332092
2018-10-17T16:17:03.293127Z,-0.624939,-0.657776,-0.697449
2018-10-17T16:17:03.491127Z,-1.333801,-0.39050300000000004,-0.198181
2018-10-17T16:17:03.690127Z,-0.49231,-0.410522,-0.40918000000000004
2018-10-17T16:17:03.892127Z,-0.41516099999999995,-0.25854499999999997,-0.44824200000000003
2018-10-17T16:17:04.092127Z,-0.5151979999999999,-0.059570000000000005,-0.656738
2018-10-17T16:17:04.291127Z,-0.21966599999999997,0.020447,0.249146
2018-10-17T16:17:04.491127Z,-0.24291999999999997,0.060059,-0.059937
2018-10-17T16:17:04.712127Z,-0.297729,-0.208679,-0.114075
2018-10-17T16:17:04.905127Z,-0.091919,0.259949,0.36950700000000003
2018-10-17T16:17:05.115127Z,-0.216187,-0.065735,-0.507324
2018-10-17T16:17:05.299127Z,-0.26251199999999997,0.018433,0.20471199999999998
2018-10-17T16:17:05.492127Z,-1.096985,0.09491000000000001,-0.311157
2018-10-17T16:17:05.711127Z,-0.942139,0.237488,-0.204041
2018-10-17T16:17:05.891127Z,-0.737915,0.58844,-0.505127
2018-10-17T16:17:06.093127Z,-0.501953,0.000305,0.374695
2018-10-17T16:17:06.294127Z,0.35144000000000003,-1.455383,0.9457399999999999
2018-10-17T16:17:06.491127Z,0.36438000000000004,-0.767151,-1.1296389999999998
2018-10-17T16:17:06.691127Z,0.281921,-0.119629,-0.135681
2018-10-17T16:17:06.892127Z,0.179199,0.122253,1.237183
2018-10-17T16:17:07.092127Z,-0.511658,-1.146118,0.662292
2018-10-17T16:17:07.291127Z,-0.859619,-1.464783,-1.275513
2018-10-17T16:17:07.491127Z,0.015198,-0.09729,-0.31427
2018-10-17T16:17:07.691127Z,-0.551331,0.561646,0.693787
2018-10-17T16:17:07.960127Z,1.375916,-1.059692,0.285583
2018-10-17T16:17:08.091127Z,0.039185000000000005,-1.14032,-1.071289
2018-10-17T16:17:08.292127Z,-0.511536,0.44342,0.047363
2018-10-17T16:17:08.491127Z,1.073669,0.710022,0.35449200000000003
2018-10-17T16:17:08.691127Z,0.199463,-1.0221559999999998,0.201904
2018-10-17T16:17:08.898127Z,-0.721436,-0.732422,-1.747009
2018-10-17T16:17:09.093127Z,-0.15564,0.7093510000000001,-1.3952639999999998
2018-10-17T16:17:09.296127Z,1.879089,-0.137756,0.329895
2018-10-17T16:17:09.495127Z,-1.0354,-1.4829709999999998,-0.383606
2018-10-17T16:17:09.690127Z,-0.14721700000000001,-0.610657,-0.416687
2018-10-17T16:17:09.889127Z,0.04541,0.513306,0.49468999999999996
2018-10-17T16:17:10.102127Z,-0.53125,-1.142151,0.237488
2018-10-17T16:17:10.292127Z,-0.059387,0.015869,-1.7906490000000002
2018-10-17T16:17:10.494127Z,0.239319,-0.296204,0.789612
2018-10-17T16:17:10.692127Z,0.63031,-1.166809,1.031311
2018-10-17T16:17:10.891127Z,-0.9725950000000001,0.526062,-1.5774540000000001
2018-10-17T16:17:11.091127Z,-1.0101930000000001,-0.715515,1.1847530000000002
2018-10-17T16:17:11.291127Z,-0.29998800000000003,-1.786804,-1.8224490000000002
2018-10-17T16:17:11.503127Z,-0.405884,-0.121643,1.0966799999999999
2018-10-17T16:17:11.701127Z,0.382324,-1.4036870000000001,2.085754
2018-10-17T16:17:11.902127Z,0.005737,-1.081177,-0.598633
2018-10-17T16:17:12.091127Z,-0.67395,-0.571716,0.510315
2018-10-17T16:17:12.294127Z,-0.08001699999999999,0.545166,-0.449524
2018-10-17T16:17:12.495127Z,-0.424255,-1.3676760000000001,3.280212
2018-10-17T16:17:12.701127Z,0.69281,-0.926941,-1.632935
2018-10-17T16:17:12.902127Z,-0.802246,0.243713,-0.285522
2018-10-17T16:17:13.103127Z,1.508545,-0.5992430000000001,-0.23754899999999998
2018-10-17T16:17:13.310127Z,1.350159,-1.581116,0.26123
2018-10-17T16:17:13.505127Z,0.322083,-2.1998290000000003,-0.595154
2018-10-17T16:17:13.702127Z,0.8312379999999999,-1.095093,-0.167847
2018-10-17T16:17:13.901127Z,-0.516113,0.258728,-0.401123
2018-10-17T16:17:14.102127Z,0.00946,0.312012,-0.225647
2018-10-17T16:17:14.303127Z,-0.032958999999999995,-0.08514400000000001,-0.420349
2018-10-17T16:17:14.501127Z,0.442871,0.012573,-0.106018
2018-10-17T16:17:14.702127Z,0.720947,-0.460876,0.150269
2018-10-17T16:17:14.901127Z,-0.28674299999999997,-1.072388,-1.290771
2018-10-17T16:17:15.101127Z,1.315002,-0.006409000000000001,-0.418213
2018-10-17T16:17:15.301127Z,1.789551,1.100098,0.621216
2018-10-17T16:17:15.502127Z,-1.401001,-0.849915,1.271484
2018-10-17T16:17:15.701127Z,5.233276,0.9005129999999999,-1.371399
2018-10-17T16:17:15.902127Z,-3.570068,0.435547,2.399597
2018-10-17T16:17:16.103127Z,-1.9479369999999998,0.289612,-0.278748
2018-10-17T16:17:16.305127Z,-1.572083,-0.005676,-0.304871
2018-10-17T16:17:16.560127Z,-0.845886,0.661194,-0.052734
2018-10-17T16:17:16.711127Z,-0.24450700000000003,0.687683,-0.7132569999999999
2018-10-17T16:17:16.903127Z,-2.3449709999999997,0.433533,-0.770813
2018-10-17T16:17:17.105127Z,-1.52356,-0.134644,-1.085876
2018-10-17T16:17:17.503127Z,-1.014526,-0.41479499999999997,0.10131799999999999
2018-10-17T16:17:17.702127Z,0.21923800000000002,-0.447754,1.5128780000000002
2018-10-17T16:17:17.902127Z,1.77478,-1.122559,-0.7108760000000001
2018-10-17T16:17:18.102127Z,0.384094,-1.6576540000000002,-1.277649
2018-10-17T16:17:18.332127Z,0.204956,0.09845,-0.801636
2018-10-17T16:17:18.510127Z,0.29986599999999997,0.07959,1.080139
2018-10-17T16:17:18.700127Z,-0.744446,-1.620483,0.44976800000000006
2018-10-17T16:17:18.909127Z,-0.8110350000000001,-1.298584,-0.233215
2018-10-17T16:17:19.103127Z,-0.927185,-0.310608,-0.782349
2018-10-17T16:17:19.311127Z,-0.953857,-0.015015,-0.397278
2018-10-17T16:17:19.550127Z,-1.143311,-0.299194,-0.16375699999999999
2018-10-17T16:17:19.707127Z,-0.21411100000000002,0.68866,0.262085
2018-10-17T16:17:19.903127Z,-0.270874,0.665833,-0.603394
2018-10-17T16:17:20.106127Z,0.077637,0.533081,-0.919373
2018-10-17T16:17:20.302127Z,-0.289978,-1.191406,0.455872
2018-10-17T16:17:20.503127Z,0.00061,-0.32568400000000003,-1.500793
2018-10-17T16:17:20.702127Z,0.186157,0.334717,-0.958923
2018-10-17T16:17:20.901127Z,0.947876,0.561829,0.470825
2018-10-17T16:17:21.101127Z,1.78772,-0.905273,0.7445069999999999
2018-10-17T16:17:21.302127Z,-1.728577,-2.540649,-0.654846
2018-10-17T16:17:21.502127Z,-0.650452,0.43463100000000005,0.6792600000000001
2018-10-17T16:17:21.714127Z,0.547485,-0.210327,0.348389
2018-10-17T16:17:21.908127Z,1.268311,-1.7589110000000001,1.033875
2018-10-17T16:17:22.102127Z,0.363586,-1.107117,0.708252
2018-10-17T16:17:22.302127Z,0.19989,-0.75116,0.285889
2018-10-17T16:17:22.502127Z,-0.015869,0.01001,0.241882
2018-10-17T16:17:22.716127Z,0.741333,-0.0448,-0.5056149999999999
2018-10-17T16:17:22.902127Z,0.974792,-0.411804,-0.19287100000000001
2018-10-17T16:17:23.106127Z,1.251099,-0.149048,0.743591
2018-10-17T16:17:23.309127Z,1.313232,0.694092,-0.023438
2018-10-17T16:17:23.502127Z,-0.6149899999999999,0.426331,-0.15564
2018-10-17T16:17:23.709127Z,-1.697815,-1.455139,0.295959
2018-10-17T16:17:23.908127Z,-1.1597899999999999,-1.697754,-0.010742
2018-10-17T16:17:24.103127Z,-1.086609,-1.290222,-0.078979
2018-10-17T16:17:24.303127Z,0.530334,0.9366459999999999,-0.012268000000000001
2018-10-17T16:17:24.504127Z,0.239319,0.300476,-0.986816
2018-10-17T16:17:24.711127Z,0.756836,-0.9884639999999999,-2.403931
2018-10-17T16:17:24.903127Z,1.202515,0.489807,1.266602
2018-10-17T16:17:25.103127Z,-1.0006709999999999,-0.6019899999999999,4.765198000000001
2018-10-17T16:17:25.301127Z,1.222412,-0.42511000000000004,0.39624000000000004
2018-10-17T16:17:25.498127Z,-0.20587199999999997,0.129333,-1.452332
2018-10-17T16:17:25.701127Z,-0.419067,1.0067139999999999,-1.0162959999999999
2018-10-17T16:17:25.903127Z,0.286499,-0.38250700000000004,0.7407229999999999
2018-10-17T16:17:26.116127Z,0.322083,-0.231506,0.198669
2018-10-17T16:17:26.334127Z,0.31427,0.8250120000000001,-0.715454
2018-10-17T16:17:26.509127Z,0.845093,0.31048600000000004,-0.38354499999999997
2018-10-17T16:17:26.709127Z,2.463867,-2.464905,-0.09399400000000001
2018-10-17T16:17:26.908127Z,0.762207,-1.138794,-0.43414300000000006
2018-10-17T16:17:27.102127Z,-0.303711,1.578247,-0.560669
2018-10-17T16:17:27.300127Z,-0.093445,1.950806,-1.226501
2018-10-17T16:17:27.502127Z,-0.374023,0.989685,1.6370850000000001
2018-10-17T16:17:27.702127Z,-0.535706,0.257751,-1.235535
2018-10-17T16:17:27.902127Z,0.040770999999999995,0.690369,-1.260681
2018-10-17T16:17:28.102127Z,0.750916,1.288391,-0.270325
2018-10-17T16:17:28.307127Z,0.0061649999999999995,-0.228577,0.213745
2018-10-17T16:17:28.506127Z,-0.822083,0.21472199999999997,-0.9566040000000001
2018-10-17T16:17:28.703127Z,-0.186584,1.2425540000000002,-0.140625
2018-10-17T16:17:28.902127Z,0.670837,1.174133,-0.619934
2018-10-17T16:17:29.098127Z,0.629883,2.4261470000000003,-0.26507600000000003
2018-10-17T16:17:29.302127Z,0.19403099999999998,-0.191467,1.513
2018-10-17T16:17:29.502127Z,0.247131,-0.6516109999999999,0.40124499999999996
2018-10-17T16:17:29.703127Z,0.172241,0.111877,0.12725799999999998
2018-10-17T16:17:29.905127Z,0.046997000000000004,0.589233,-0.5578
2018-10-17T16:17:30.107127Z,0.309631,0.492737,-0.380249
2018-10-17T16:17:30.311127Z,1.045959,0.504883,-0.979675
2018-10-17T16:17:30.704127Z,0.782104,1.4300540000000002,0.951843
2018-10-17T16:17:30.902127Z,0.122681,2.044739,-0.03595
2018-10-17T16:17:31.102127Z,-0.23913600000000002,0.186279,2.2786869999999997
2018-10-17T16:17:31.301127Z,-0.63385,-0.437134,-0.24176
2018-10-17T16:17:31.502127Z,-0.869812,0.8993530000000001,-1.068665
2018-10-17T16:17:31.701127Z,0.378235,0.768066,-0.8472290000000001
2018-10-17T16:17:31.901127Z,1.313599,-1.084167,-0.747559
2018-10-17T16:17:32.101127Z,0.130859,0.40094,-1.54541
2018-10-17T16:17:32.307127Z,0.30456500000000003,1.4552,0.408752
2018-10-17T16:17:32.501127Z,-0.055725,0.48223900000000003,-1.056946
2018-10-17T16:17:32.739127Z,-0.532349,-1.390015,-1.1431879999999999
2018-10-17T16:17:32.909127Z,-1.023987,-0.565125,-0.8088989999999999
2018-10-17T16:17:33.103127Z,-0.6369630000000001,0.067322,0.151367
2018-10-17T16:17:33.313127Z,-0.769775,0.816284,-0.532837
2018-10-17T16:17:33.515127Z,-0.397156,1.588013,-0.511658
2018-10-17T16:17:33.700127Z,0.645569,-0.353088,1.160034
2018-10-17T16:17:33.903127Z,0.386169,-0.449646,-0.18908699999999998
2018-10-17T16:17:34.102127Z,0.347107,0.738159,-0.297302
2018-10-17T16:17:34.302127Z,-0.331177,0.603394,1.03241
2018-10-17T16:17:34.502127Z,0.325073,-1.331787,-0.368774
2018-10-17T16:17:34.701127Z,-0.423645,-0.41314700000000004,-0.927307
2018-10-17T16:17:34.905127Z,-0.446167,0.223083,0.184448
2018-10-17T16:17:35.107127Z,0.655151,-0.66571,-1.3214110000000001
2018-10-17T16:17:35.302127Z,-0.049072000000000005,-1.335754,-0.738464
2018-10-17T16:17:35.508127Z,0.312012,-0.170776,-0.182007
2018-10-17T16:17:35.708127Z,-0.24145500000000003,0.330261,-0.11511199999999999
2018-10-17T16:17:35.902127Z,-1.211975,-0.844116,-1.2996219999999998
2018-10-17T16:17:36.102127Z,-0.126282,0.022583000000000002,-1.449646
2018-10-17T16:17:36.303127Z,-0.715576,0.5534060000000001,-0.261292
2018-10-17T16:17:36.511127Z,-0.433228,-0.628967,2.721436
2018-10-17T16:17:36.704127Z,-0.20855700000000002,-0.7485350000000001,-0.364624
2018-10-17T16:17:36.906127Z,0.241089,0.367676,-0.305725
2018-10-17T16:17:37.102127Z,-0.13104200000000002,-0.042602999999999995,0.5903930000000001
2018-10-17T16:17:37.299127Z,0.17791700000000002,-1.7451169999999998,-0.071899
2018-10-17T16:17:37.510127Z,-0.916748,-1.340393,-0.286682
2018-10-17T16:17:37.714127Z,-0.552185,-0.653503,-0.231567
2018-10-17T16:17:37.902127Z,0.26855500000000004,-0.48681599999999997,0.403381
2018-10-17T16:17:38.110127Z,-0.394836,-0.253723,0.894958
2018-10-17T16:17:38.301127Z,1.517883,-1.104492,0.623108
2018-10-17T16:17:38.501127Z,2.59375,-1.295166,0.317017
2018-10-17T16:17:38.701127Z,1.546265,-1.9512330000000002,0.374512
2018-10-17T16:17:38.903127Z,0.853088,-2.654663,-1.2222899999999999
2018-10-17T16:17:39.103127Z,-0.053405999999999995,-0.068481,-0.09088099999999999
2018-10-17T16:17:39.301127Z,-2.858948,-0.38006599999999996,-0.989441
2018-10-17T16:17:39.502127Z,-4.4114379999999995,2.22937,-0.939026
2018-10-17T16:17:39.701127Z,-2.074768,3.9151,-0.836609
2018-10-17T16:17:39.899127Z,0.9552,1.1877440000000001,0.538086
2018-10-17T16:17:40.102127Z,-0.9837040000000001,0.54187,-1.345703
2018-10-17T16:17:40.302127Z,0.257874,2.807434,-0.982361
2018-10-17T16:17:40.502127Z,-1.317261,2.211548,-0.864075
2018-10-17T16:17:40.703127Z,-1.256836,0.7052,-0.456665
2018-10-17T16:17:40.902127Z,-1.395508,2.1821900000000003,-1.7599490000000002
2018-10-17T16:17:41.102127Z,0.910583,1.384155,0.365173
2018-10-17T16:17:41.306127Z,-0.6111449999999999,1.0109860000000002,-2.152161
2018-10-17T16:17:41.504127Z,-2.960449,2.7658080000000003,0.20153800000000002
2018-10-17T16:17:41.703127Z,-3.257935,1.05365,6.896178999999999
2018-10-17T16:17:41.901127Z,-1.4652100000000001,-0.591003,-2.91272
2018-10-17T16:17:42.101127Z,-0.950684,2.141052,-2.6320799999999998
2018-10-17T16:17:42.307127Z,-0.415466,2.769409,0.9475709999999999
2018-10-17T16:17:42.501127Z,1.086365,0.37243699999999996,-1.414307
2018-10-17T16:17:42.763127Z,0.504089,1.365112,0.42041000000000006
2018-10-17T16:17:42.901127Z,-0.745239,1.7687380000000001,-1.784668
2018-10-17T16:17:43.108127Z,-2.446411,0.227417,0.62146
2018-10-17T16:17:43.307127Z,-0.696289,0.856323,-1.522705
2018-10-17T16:17:43.502127Z,0.092651,2.0183720000000003,-0.251526
2018-10-17T16:17:43.703127Z,-1.2379149999999999,-0.44647200000000004,1.9240110000000001
2018-10-17T16:17:43.904127Z,-2.866333,0.001465,-1.2715450000000001
2018-10-17T16:17:44.103127Z,-1.723511,1.184021,-0.666321
2018-10-17T16:17:44.306127Z,-2.114563,-0.013793999999999999,2.852234
2018-10-17T16:17:44.501127Z,-0.687439,0.069092,-1.190979
2018-10-17T16:17:44.706127Z,-1.42688,0.705688,-0.478882
2018-10-17T16:17:45.104127Z,-0.407776,-0.337402,1.9396970000000002
2018-10-17T16:17:45.302127Z,-1.935242,0.13037100000000001,-0.94458
2018-10-17T16:17:45.504127Z,-1.191345,0.711487,0.062561
2018-10-17T16:17:45.700127Z,-0.24597199999999997,-0.181885,1.463623
2018-10-17T16:17:45.907127Z,-0.065308,-1.726074,0.801392
2018-10-17T16:17:46.107127Z,-0.197632,-0.741943,0.09716799999999999
2018-10-17T16:17:46.302127Z,-1.482422,-0.510681,-0.11224400000000001
2018-10-17T16:17:46.507127Z,-0.18634,0.198792,0.284851
2018-10-17T16:17:46.707127Z,-0.6914060000000001,-0.705505,-0.161438
2018-10-17T16:17:46.900127Z,-0.207275,0.419617,-0.320984
2018-10-17T16:17:47.111127Z,-0.9705809999999999,0.24591100000000002,0.120178
2018-10-17T16:17:47.303127Z,-1.304504,0.061767999999999997,-0.336792
2018-10-17T16:17:47.504127Z,-0.561768,0.480713,-0.738892
2018-10-17T16:17:47.700127Z,-0.5584720000000001,0.725037,-0.721558
2018-10-17T16:17:47.903127Z,0.618958,-0.14868199999999998,-0.367371
2018-10-17T16:17:48.112127Z,0.356628,-1.468811,0.492004
2018-10-17T16:17:48.310127Z,-0.204346,0.114014,-0.376343
2018-10-17T16:17:48.503127Z,-0.186646,0.75,0.01886
2018-10-17T16:17:48.702127Z,-1.027405,-1.265259,2.904297
2018-10-17T16:17:48.903127Z,-1.253906,-1.333191,-0.035278
2018-10-17T16:17:49.102127Z,-0.755432,0.061828999999999995,-0.9016719999999999
2018-10-17T16:17:49.302127Z,-0.623047,0.9274899999999999,0.660095
2018-10-17T16:17:49.502127Z,-1.541504,-1.535706,1.939575
2018-10-17T16:17:49.729127Z,0.357483,-0.784729,0.353638
2018-10-17T16:17:49.908127Z,0.008118,-0.078735,-0.528992
2018-10-17T16:17:50.109127Z,-0.975342,-0.579102,0.496521
2018-10-17T16:17:50.304127Z,-1.344482,-2.147583,0.352905
2018-10-17T16:17:50.502127Z,-0.656555,0.525452,-0.130432
2018-10-17T16:17:50.704127Z,0.414185,-0.12341300000000001,-0.09906000000000001
2018-10-17T16:17:50.902127Z,-1.4459229999999998,-2.3775630000000003,0.045654
2018-10-17T16:17:51.108127Z,-0.8047489999999999,0.089233,-0.586609
2018-10-17T16:17:51.303127Z,-1.938965,0.040466,1.3089600000000001
2018-10-17T16:17:51.503127Z,-3.289856,-2.293762,3.166016
2018-10-17T16:17:51.709127Z,-1.1527100000000001,-1.4867549999999998,-0.824097
2018-10-17T16:17:51.908127Z,-2.0814209999999997,-1.3209229999999998,0.7068479999999999
2018-10-17T16:17:52.114127Z,0.476257,-0.41900600000000005,-0.466125
2018-10-17T16:17:52.305127Z,-0.11682100000000001,-0.621033,0.8762209999999999
2018-10-17T16:17:52.502127Z,-1.147522,-0.391113,-0.350098
2018-10-17T16:17:52.702127Z,-1.257629,-0.476685,-0.009949
2018-10-17T16:17:53.019127Z,-1.490234,0.11389200000000001,1.560974
2018-10-17T16:17:53.106127Z,-1.278259,-0.312683,-0.599854
2018-10-17T16:17:53.310127Z,-1.162231,0.23822,-0.657166
2018-10-17T16:17:53.506127Z,-2.488159,0.267761,-1.241882
2018-10-17T16:17:53.704127Z,-2.025391,0.574707,0.146057
2018-10-17T16:17:53.904127Z,-1.901672,1.3483889999999998,0.10681199999999999
2018-10-17T16:17:54.104127Z,-2.041321,-0.705444,0.398865
2018-10-17T16:17:54.302127Z,-0.42688000000000004,-0.276672,-2.282349
2018-10-17T16:17:54.503127Z,-1.145325,0.085327,-0.930359
2018-10-17T16:17:54.703127Z,-1.28186,1.149414,3.0985720000000003
2018-10-17T16:17:54.905127Z,-2.621094,-0.9272459999999999,1.248779
2018-10-17T16:17:55.109127Z,-1.088196,-0.113647,-1.935791
2018-10-17T16:17:55.303127Z,-2.3432009999999996,0.396912,-0.375671
2018-10-17T16:17:55.499127Z,-2.928528,0.12298599999999998,0.637085
2018-10-17T16:17:55.702127Z,-2.120117,1.490234,-0.53479
2018-10-17T16:17:55.904127Z,-1.100403,1.178955,1.279724
2018-10-17T16:17:56.108127Z,-1.8533939999999998,0.813416,-0.388489
2018-10-17T16:17:56.308127Z,-2.706238,1.371155,-1.469666
2018-10-17T16:17:56.515127Z,-1.722229,1.4799799999999999,-0.21417199999999997
2018-10-17T16:17:56.702127Z,-0.121521,1.749939,-0.661926
2018-10-17T16:17:56.903127Z,-0.297913,0.6372680000000001,-0.46533199999999997
2018-10-17T16:17:57.102127Z,-0.005432,1.476685,-2.041504
2018-10-17T16:17:57.302127Z,0.564697,2.534973,0.047546
2018-10-17T16:17:57.505127Z,-0.904114,1.658508,-0.09753400000000001
2018-10-17T16:17:57.703127Z,-1.367371,-0.6405029999999999,-1.548706
2018-10-17T16:17:57.903127Z,-0.762085,-0.31781,-1.3122559999999999
2018-10-17T16:17:58.129127Z,0.415283,1.508972,0.5979
2018-10-17T16:17:58.303127Z,-0.8387450000000001,1.422852,-1.113342
2018-10-17T16:17:58.504127Z,-2.397095,1.7658080000000003,-0.261353
2018-10-17T16:17:58.902127Z,-0.5532229999999999,1.884216,-0.46368400000000004
2018-10-17T16:17:59.121127Z,0.378296,1.184265,0.507202
2018-10-17T16:17:59.299127Z,1.107178,-0.750549,-0.716003
2018-10-17T16:17:59.503127Z,0.623474,0.75,-0.386658
2018-10-17T16:17:59.709127Z,0.646423,0.8818360000000001,-0.875732
2018-10-17T16:17:59.898127Z,-0.420105,-0.335571,-0.6950069999999999
2018-10-17T16:18:00.108127Z,-1.246277,-0.521301,-0.668579
2018-10-17T16:18:00.308127Z,0.19049100000000002,1.39093,0.379272
2018-10-17T16:18:00.509127Z,-0.079773,0.7261350000000001,1.214844
2018-10-17T16:18:00.703127Z,0.8168949999999999,-0.6987300000000001,-1.537659
2018-10-17T16:18:00.902127Z,-0.728699,0.402039,-0.474609
2018-10-17T16:18:01.163127Z,-0.125,0.629456,0.6672359999999999
2018-10-17T16:18:01.310127Z,-0.8569950000000001,-1.225708,0.971252
2018-10-17T16:18:01.514127Z,-1.816345,-1.062439,-2.223389
2018-10-17T16:18:01.709127Z,-1.141418,0.661804,-0.012756
2018-10-17T16:18:01.904127Z,-0.241272,0.681763,0.25201399999999996
2018-10-17T16:18:02.100127Z,-0.336853,-0.493591,-0.942749
2018-10-17T16:18:02.301127Z,-0.896545,0.002625,-1.9300540000000002
2018-10-17T16:18:02.502127Z,-0.579773,0.047913,-0.65387
2018-10-17T16:18:02.701127Z,-1.0846559999999998,-0.518799,1.552673
2018-10-17T16:18:02.902127Z,-1.6543580000000002,-0.6663819999999999,-0.14941400000000002
2018-10-17T16:18:03.099127Z,-0.756775,0.388,0.638245
2018-10-17T16:18:03.309127Z,0.362244,-0.40564,0.16229200000000002
2018-10-17T16:18:03.504127Z,0.273254,-1.223511,-0.498352
2018-10-17T16:18:03.710127Z,-0.6248779999999999,0.269348,-1.025208
2018-10-17T16:18:03.902127Z,-2.5133669999999997,1.317871,1.6500240000000002
2018-10-17T16:18:04.104127Z,-1.7675779999999999,-0.728821,2.223694
2018-10-17T16:18:04.302127Z,-0.3396,-1.0706790000000002,-2.13385
2018-10-17T16:18:04.503127Z,-0.685791,0.571228,0.7463380000000001
2018-10-17T16:18:04.706127Z,-0.693542,-0.38000500000000004,1.228882
2018-10-17T16:18:04.903127Z,-0.899109,0.11926300000000001,-0.4104
2018-10-17T16:18:05.103127Z,-1.373779,0.298767,-0.073242
2018-10-17T16:18:05.298127Z,-0.498413,-0.135376,0.380981
2018-10-17T16:18:05.502127Z,-0.9233399999999999,-0.5134890000000001,0.024231
2018-10-17T16:18:05.713127Z,-0.571045,-0.258362,-0.858459
2018-10-17T16:18:05.906127Z,-0.572327,0.674377,0.282288
2018-10-17T16:18:06.109127Z,0.29180900000000004,-0.520203,-1.214783
2018-10-17T16:18:06.318127Z,0.040955,0.2146,-1.2529299999999999
2018-10-17T16:18:06.501127Z,-1.024902,1.198975,0.706543
2018-10-17T16:18:06.703127Z,-1.048157,-0.6228640000000001,0.66394
2018-10-17T16:18:06.903127Z,-0.370605,-0.6948850000000001,-1.611206
2018-10-17T16:18:07.103127Z,-0.588928,0.16583299999999998,-0.441406
2018-10-17T16:18:07.302127Z,0.073975,0.165222,1.49054
2018-10-17T16:18:07.502127Z,-0.953003,-0.294067,-1.590759
2018-10-17T16:18:07.709127Z,-0.15393099999999998,0.259644,0.145813
2018-10-17T16:18:07.908127Z,-0.294373,-0.32818600000000003,-0.875183
2018-10-17T16:18:08.139127Z,-0.595398,-1.411194,0.280945
2018-10-17T16:18:08.305127Z,-0.9743040000000001,-0.165771,-0.322205
2018-10-17T16:18:08.509127Z,-0.239563,0.229431,0.077271
2018-10-17T16:18:08.712127Z,1.044189,-0.801208,-1.8110959999999998
2018-10-17T16:18:08.902127Z,-0.700745,0.648987,-0.9028930000000001
2018-10-17T16:18:09.105127Z,-1.058716,0.806335,0.49883999999999995
2018-10-17T16:18:09.303127Z,-0.402771,-1.220642,-1.002502
2018-10-17T16:18:09.502127Z,-0.500061,-0.688904,-1.433899
2018-10-17T16:18:09.702127Z,-1.257568,-0.319641,1.4442139999999999
2018-10-17T16:18:09.902127Z,0.797607,-1.083679,-1.392212
2018-10-17T16:18:10.102127Z,-0.9174190000000001,-0.33581500000000003,-0.197632
2018-10-17T16:18:10.317127Z,-1.437805,-1.2836299999999998,-0.378357
2018-10-17T16:18:10.520127Z,-2.513184,-0.673401,-0.28979499999999997
2018-10-17T16:18:10.707127Z,-1.16156,-0.088318,-0.767944
2018-10-17T16:18:10.901127Z,-0.20929,0.910889,-0.210632
2018-10-17T16:18:11.101127Z,-0.543091,0.276855,-0.37756300000000004
2018-10-17T16:18:11.302127Z,-0.733093,-0.9794309999999999,-0.271301
2018-10-17T16:18:11.518127Z,-0.25415,0.6933590000000001,-0.623596
2018-10-17T16:18:11.708127Z,-0.563477,1.196228,0.02887
2018-10-17T16:18:11.898127Z,-2.758118,-0.141052,0.621155
2018-10-17T16:18:12.103127Z,-1.357483,-0.184753,-1.4850459999999999
2018-10-17T16:18:12.303127Z,-1.182251,0.8746950000000001,-1.115723
2018-10-17T16:18:12.508127Z,0.123047,0.163574,0.48132299999999995
2018-10-17T16:18:12.709127Z,-0.7183229999999999,-0.366028,0.648315
2018-10-17T16:18:13.103127Z,-1.371643,0.9057620000000001,-0.628174
2018-10-17T16:18:13.368127Z,-0.74585,0.9505620000000001,-0.061646000000000006
2018-10-17T16:18:13.518127Z,-0.88446,-0.341431,-1.3359379999999998
2018-10-17T16:18:13.698127Z,-1.278931,0.411987,-1.3671879999999998
2018-10-17T16:18:13.898127Z,-1.514343,1.2766110000000002,-0.589783
2018-10-17T16:18:14.101127Z,-1.679443,0.088379,0.789856
2018-10-17T16:18:14.302127Z,-0.876282,0.225769,-1.798401
2018-10-17T16:18:14.502127Z,-0.824341,1.41394,-0.388977
2018-10-17T16:18:14.778127Z,-1.879089,-0.15246600000000002,0.852783
2018-10-17T16:18:14.902127Z,-2.0721439999999998,-0.051514,-0.634888
2018-10-17T16:18:15.101127Z,-1.7793580000000002,0.64978,-0.5740970000000001
2018-10-17T16:18:15.303127Z,-0.6283569999999999,0.337097,-0.518921
2018-10-17T16:18:15.504127Z,-1.480408,-0.354065,0.173523
2018-10-17T16:18:15.709127Z,-2.140015,2.016235,0.114014
2018-10-17T16:18:15.909127Z,-1.08667,1.028381,-0.055908000000000006
2018-10-17T16:18:16.101127Z,-1.500183,-0.492188,-1.2847899999999999
2018-10-17T16:18:16.385127Z,-1.0298459999999998,0.838989,-1.737671
2018-10-17T16:18:16.501127Z,-1.057007,1.467163,1.1102290000000001
2018-10-17T16:18:16.705127Z,-1.205933,0.26532,0.14593499999999998
2018-10-17T16:18:16.903127Z,-0.708008,0.9688110000000001,-1.952881
2018-10-17T16:18:17.101127Z,-1.437439,2.443359,0.687439
2018-10-17T16:18:17.301127Z,-4.147583,1.003906,3.0443119999999997
2018-10-17T16:18:17.503127Z,-1.7144169999999999,0.0037229999999999997,-2.078735
2018-10-17T16:18:17.711127Z,-0.313354,1.440186,0.21875
2018-10-17T16:18:17.906127Z,-1.373413,0.874207,2.3549189999999998
2018-10-17T16:18:18.102127Z,-1.2047729999999999,1.4110719999999999,-2.7654419999999997
2018-10-17T16:18:18.302127Z,-1.825684,2.7295529999999997,1.09314
2018-10-17T16:18:18.504127Z,-3.18158,-0.22027600000000003,-0.9962770000000001
2018-10-17T16:18:18.698127Z,-1.742004,0.588074,-1.660522
2018-10-17T16:18:18.907127Z,-0.279053,1.571899,0.376038
2018-10-17T16:18:19.104127Z,-1.192566,0.685852,0.601929
2018-10-17T16:18:19.343127Z,-1.396301,1.016541,-3.3771970000000002
2018-10-17T16:18:19.508127Z,-1.1832280000000002,1.542725,-0.15423599999999998
2018-10-17T16:18:19.707127Z,-1.090637,0.599182,0.104126
2018-10-17T16:18:19.913127Z,-1.7767939999999998,0.52832,-0.782593
2018-10-17T16:18:20.103127Z,-2.149048,1.77478,0.10192899999999999
2018-10-17T16:18:20.305127Z,0.16217,1.819824,-0.604919
2018-10-17T16:18:20.504127Z,-0.16125499999999998,0.590576,-0.9885860000000001
2018-10-17T16:18:20.721127Z,-1.113708,1.3798219999999999,-1.169067
2018-10-17T16:18:20.907127Z,-0.46392799999999995,1.7344970000000002,0.32519499999999996
2018-10-17T16:18:21.109127Z,-1.326904,0.346985,-0.42401099999999997
2018-10-17T16:18:21.311127Z,-1.398621,0.9993290000000001,-1.600586
2018-10-17T16:18:21.513127Z,-0.926636,1.3521729999999998,-0.85083
2018-10-17T16:18:21.711127Z,0.9880979999999999,1.395569,-0.315308
2018-10-17T16:18:21.911127Z,-0.118103,0.398987,0.240112
2018-10-17T16:18:22.116127Z,-0.028198,1.484436,-1.146301
2018-10-17T16:18:22.302127Z,-0.48547399999999996,1.9605709999999998,0.384033
2018-10-17T16:18:22.503127Z,-2.34613,0.5354,2.598938
2018-10-17T16:18:22.703127Z,-0.322388,0.265808,-0.26416
2018-10-17T16:18:22.902127Z,-0.522461,1.286804,-0.48944099999999996
2018-10-17T16:18:23.102127Z,-0.5603640000000001,0.810852,-0.358643
2018-10-17T16:18:23.301127Z,0.846619,-0.330811,-0.689575
2018-10-17T16:18:23.505127Z,-0.300659,1.257568,-0.762756
2018-10-17T16:18:23.707127Z,-0.142029,0.902466,-0.7711180000000001
2018-10-17T16:18:23.908127Z,-0.594849,0.19873,2.2387080000000004
2018-10-17T16:18:24.098127Z,0.12091099999999999,-0.28772,1.307312
2018-10-17T16:18:24.306127Z,-0.254456,-0.065491,-0.599731
2018-10-17T16:18:24.507127Z,-0.092896,1.213684,0.099487
2018-10-17T16:18:24.705127Z,-1.910095,-0.626343,2.48584
2018-10-17T16:18:24.902127Z,-0.764282,0.15270999999999998,-0.637756
2018-10-17T16:18:25.104127Z,0.179016,0.8164060000000001,-0.06854199999999999
2018-10-17T16:18:25.303127Z,0.20776399999999998,0.6892699999999999,1.2828979999999999
2018-10-17T16:18:25.499127Z,-0.50592,-1.027161,-0.16430699999999998
2018-10-17T16:18:25.703127Z,-0.920959,-1.035767,-0.48303199999999996
2018-10-17T16:18:25.902127Z,-0.300171,-0.144897,0.08325199999999999
2018-10-17T16:18:26.109127Z,0.08667000000000001,0.49316400000000005,-0.004944
2018-10-17T16:18:26.327127Z,-0.056701999999999995,0.699341,-0.323608
2018-10-17T16:18:26.499127Z,-0.47125200000000006,0.027405000000000002,1.115051
2018-10-17T16:18:26.698127Z,-0.085754,-0.703064,0.262878
2018-10-17T16:18:26.898127Z,0.977051,0.435425,0.093567
2018-10-17T16:18:27.109127Z,1.416931,0.9249879999999999,0.946167
2018-10-17T16:18:27.302127Z,-0.006409000000000001,0.283875,0.14502
2018-10-17T16:18:27.501127Z,-1.367615,-0.83606,-1.0322879999999999
2018-10-17T16:18:27.709127Z,-0.097778,-0.625061,0.408447
2018-10-17T16:18:27.900127Z,0.689331,0.40612800000000004,0.021422999999999998
2018-10-17T16:18:28.104127Z,0.413208,0.802429,0.11151099999999999
2018-10-17T16:18:28.502127Z,0.699951,0.319153,-0.445068
2018-10-17T16:18:28.702127Z,0.670471,0.39032,-0.793823
2018-10-17T16:18:28.909127Z,0.520447,0.088501,0.13708499999999998
2018-10-17T16:18:29.129127Z,-0.68634,-0.314026,-0.093323
2018-10-17T16:18:29.532127Z,-0.805176,-0.01123,-0.7124020000000001
2018-10-17T16:18:29.735127Z,-0.467712,0.55896,-0.49517799999999995
2018-10-17T16:18:30.124127Z,-0.005981,0.784485,0.032898000000000004
2018-10-17T16:18:30.323127Z,0.11260999999999999,-1.108032,0.564697
2018-10-17T16:18:30.521127Z,0.155396,0.09454299999999999,-0.661011
2018-10-17T16:18:30.721127Z,0.251404,0.08313,-0.9291379999999999
2018-10-17T16:18:30.921127Z,0.572815,0.5690310000000001,1.002869
2018-10-17T16:18:31.121127Z,0.698242,0.13208,-0.6427
2018-10-17T16:18:31.329127Z,-2.344177,-1.4086299999999998,-2.226807
2018-10-17T16:18:31.524127Z,-1.36731,-0.8316040000000001,-0.541931
2018-10-17T16:18:31.726127Z,-0.7641600000000001,-0.494629,1.2841799999999999
2018-10-17T16:18:31.927127Z,-0.8726809999999999,-0.342896,-0.984253
2018-10-17T16:18:32.122127Z,-1.871643,-0.18243399999999999,0.22351100000000002
2018-10-17T16:18:32.321127Z,-0.908386,0.511108,-0.519775
2018-10-17T16:18:32.522127Z,0.285034,-0.463379,-1.163025
2018-10-17T16:18:32.742127Z,-0.29742399999999997,-1.420898,0.9671629999999999
2018-10-17T16:18:32.922127Z,-0.029175,-1.8713990000000003,-0.9299930000000001
2018-10-17T16:18:33.122127Z,0.583069,0.144592,0.981323
2018-10-17T16:18:33.323127Z,-0.278564,0.488159,0.023438
2018-10-17T16:18:33.518127Z,-0.764038,-0.665161,-0.7462770000000001
2018-10-17T16:18:33.731127Z,-1.589294,-1.2547,0.198547
2018-10-17T16:18:33.922127Z,-1.080933,-0.823486,-0.460388
2018-10-17T16:18:34.158127Z,-1.4633180000000001,-0.5405270000000001,0.084534
2018-10-17T16:18:34.327127Z,-1.0516969999999999,0.831299,0.36248800000000003
2018-10-17T16:18:34.526127Z,-1.770447,-0.942139,0.8911129999999999
2018-10-17T16:18:34.727127Z,-0.5802609999999999,-1.569153,0.598511
2018-10-17T16:18:34.922127Z,0.039978,-0.07623300000000001,-0.895508
2018-10-17T16:18:35.125127Z,-0.191589,0.7676390000000001,-0.457153
2018-10-17T16:18:35.329127Z,-1.166626,0.057312,0.478699
2018-10-17T16:18:35.518127Z,-1.271118,-0.8629760000000001,-0.35754400000000003
2018-10-17T16:18:35.722127Z,-1.0288700000000002,-0.210144,-0.144653
2018-10-17T16:18:35.921127Z,-0.585266,-0.563354,0.11480699999999999
2018-10-17T16:18:36.124127Z,0.610718,-1.2685549999999999,-0.707825
2018-10-17T16:18:36.324127Z,-0.309265,-0.365234,0.284668
2018-10-17T16:18:36.529127Z,-1.284424,-0.852844,-0.679565
2018-10-17T16:18:36.722127Z,-1.342407,-2.0852049999999998,-0.733215
2018-10-17T16:18:36.921127Z,-1.458191,-0.68335,0.591431
2018-10-17T16:18:37.121127Z,-1.343811,-0.020325,0.682983
2018-10-17T16:18:37.318127Z,-1.342224,-1.686279,-0.306458
2018-10-17T16:18:37.520127Z,-0.186462,-1.633545,-0.286072
2018-10-17T16:18:37.733127Z,-0.550842,-1.078308,0.5486449999999999
2018-10-17T16:18:37.927127Z,-0.5297850000000001,-0.463379,0.36230500000000004
2018-10-17T16:18:38.121127Z,-1.584106,-1.530823,-0.192749
2018-10-17T16:18:38.322127Z,-1.732666,-0.457581,2.418213
2018-10-17T16:18:38.524127Z,-0.376587,0.8551639999999999,0.033875
2018-10-17T16:18:38.725127Z,-0.502869,0.068359,0.426208
2018-10-17T16:18:38.930127Z,-0.911316,-1.1552120000000001,0.027832
2018-10-17T16:18:39.122127Z,-0.811829,-1.221191,-0.569397
2018-10-17T16:18:39.322127Z,-1.432922,-0.33075,0.11761500000000001
2018-10-17T16:18:39.526127Z,-0.531067,-1.09314,0.279724
2018-10-17T16:18:39.722127Z,-1.168884,-1.738098,0.649109
2018-10-17T16:18:39.941127Z,-0.8552860000000001,-0.719543,-0.25238
2018-10-17T16:18:40.121127Z,-1.179626,0.12878399999999998,-0.306946
2018-10-17T16:18:40.402127Z,-0.261963,-0.159363,0.165527
2018-10-17T16:18:40.523127Z,-0.000793,-2.099182,0.21026599999999998
2018-10-17T16:18:40.728127Z,-0.9494020000000001,-1.1363530000000002,0.126709
2018-10-17T16:18:40.928127Z,-1.194092,-0.580017,0.549133
2018-10-17T16:18:41.121127Z,-1.723022,-1.0983889999999998,0.80304
2018-10-17T16:18:41.323127Z,-2.07312,-1.179016,0.47613500000000003
2018-10-17T16:18:41.523127Z,-2.1670529999999997,0.225952,1.6694950000000002
2018-10-17T16:18:41.723127Z,-1.932739,-0.10607899999999999,-1.2453610000000002
2018-10-17T16:18:41.922127Z,-2.097595,0.932068,0.382996
2018-10-17T16:18:42.122127Z,-0.893127,-0.309204,2.054749
2018-10-17T16:18:42.325127Z,-1.541199,-1.271667,-0.793823
2018-10-17T16:18:42.518127Z,-1.012512,0.506409,0.087036
2018-10-17T16:18:42.723127Z,-0.291565,-0.35736100000000004,0.45251499999999995
2018-10-17T16:18:42.925127Z,-1.112732,-1.976013,0.116577
2018-10-17T16:18:43.148127Z,-1.058716,-1.166199,-0.850281
2018-10-17T16:18:43.323127Z,0.873108,-0.594604,-0.59137
2018-10-17T16:18:43.522127Z,-0.072021,-0.325867,0.21209699999999998
2018-10-17T16:18:43.724127Z,-0.385437,-0.300781,0.022583000000000002
2018-10-17T16:18:44.147127Z,-0.5585939999999999,-0.38855,-0.012451
2018-10-17T16:18:44.325127Z,-0.73645,-1.2160030000000002,0.22528099999999998
2018-10-17T16:18:44.527127Z,-0.100647,-0.74762,0.504272
2018-10-17T16:18:44.729127Z,0.236145,-0.411499,-0.066223
2018-10-17T16:18:44.924127Z,-0.12408399999999999,0.814758,-0.101013
2018-10-17T16:18:45.122127Z,-1.031433,0.482727,-0.32263200000000003
2018-10-17T16:18:45.322127Z,-0.013793999999999999,-0.326416,0.233154
2018-10-17T16:18:45.523127Z,0.468811,-0.749207,0.5257569999999999
2018-10-17T16:18:45.728127Z,0.7575069999999999,0.15802,-1.05835
2018-10-17T16:18:45.931127Z,0.694153,0.215942,0.161377
2018-10-17T16:18:46.122127Z,-0.179565,-0.9776610000000001,0.672913
2018-10-17T16:18:46.327127Z,-0.172852,-1.26593,-0.301819
2018-10-17T16:18:46.527127Z,0.363037,-0.357727,-1.200012
2018-10-17T16:18:46.724127Z,-0.059753,0.560425,-1.4505
2018-10-17T16:18:46.930127Z,-0.30236799999999997,1.030518,0.197998
2018-10-17T16:18:47.123127Z,1.279968,-0.100159,0.356995
2018-10-17T16:18:47.321127Z,0.22412100000000001,-2.133667,-0.42248500000000005
2018-10-17T16:18:47.517127Z,0.449402,-1.154053,2.630432
2018-10-17T16:18:47.758127Z,0.35436999999999996,-0.701172,-0.187927
2018-10-17T16:18:47.930127Z,0.8935549999999999,-0.557434,-0.9534299999999999
2018-10-17T16:18:48.124127Z,0.934692,0.243652,0.10229500000000001
2018-10-17T16:18:48.321127Z,1.928284,1.4884030000000001,0.078735
2018-10-17T16:18:48.522127Z,-0.644409,-0.037964,-0.218811
2018-10-17T16:18:48.723127Z,-1.585083,-1.0253299999999999,-0.83667
2018-10-17T16:18:48.922127Z,-2.043396,-0.658569,0.079468
2018-10-17T16:18:49.122127Z,-0.783813,0.290649,-1.49231
2018-10-17T16:18:49.324127Z,-0.216309,0.8562620000000001,-0.558228
2018-10-17T16:18:49.523127Z,0.592102,-0.494507,0.16748
2018-10-17T16:18:49.756127Z,0.6838380000000001,-1.218384,-0.032654
2018-10-17T16:18:49.932127Z,0.045898,0.091309,-0.846985
2018-10-17T16:18:50.131127Z,-0.242065,0.7693479999999999,0.576538
2018-10-17T16:18:50.326127Z,-0.27624499999999996,-0.60968,2.230347
2018-10-17T16:18:50.522127Z,-0.21307399999999999,-0.49938999999999995,0.32000700000000004
2018-10-17T16:18:50.723127Z,-0.033325,0.47351099999999996,-1.1812129999999998
2018-10-17T16:18:50.921127Z,0.32501199999999997,0.718689,0.168823
2018-10-17T16:18:51.121127Z,-0.749634,-0.412537,1.285706
2018-10-17T16:18:51.322127Z,0.512085,-0.20483400000000002,-0.721924
2018-10-17T16:18:51.526127Z,0.084839,0.455933,-1.325928
2018-10-17T16:18:51.719127Z,-0.066528,0.49231,0.973877
2018-10-17T16:18:51.927127Z,-0.5021359999999999,-1.3348389999999999,1.142456
2018-10-17T16:18:52.126127Z,-1.286255,-1.142944,1.0942379999999998
2018-10-17T16:18:52.321127Z,-1.157776,-0.447388,-0.016846
2018-10-17T16:18:52.527127Z,-1.623291,0.129822,-1.099548
2018-10-17T16:18:52.728127Z,-2.442505,-0.40509,0.747253
2018-10-17T16:18:52.919127Z,-0.743591,-0.42071499999999995,-0.62146
2018-10-17T16:18:53.123127Z,-1.484497,-0.87439,-0.03241
2018-10-17T16:18:53.325127Z,-0.38561999999999996,-1.643677,0.005737
2018-10-17T16:18:53.521127Z,-0.212036,-0.136414,-0.32824699999999996
2018-10-17T16:18:53.725127Z,-0.344238,0.501648,0.07775900000000001
2018-10-17T16:18:53.922127Z,-1.199829,0.03772,-0.839233
2018-10-17T16:18:54.121127Z,-1.627075,-1.095337,-0.36248800000000003
2018-10-17T16:18:54.328127Z,-1.8161009999999997,-0.043762,-0.5157470000000001
2018-10-17T16:18:54.523127Z,-1.5709229999999998,0.001465,-1.00177
2018-10-17T16:18:54.733127Z,-1.620239,0.976196,0.501892
2018-10-17T16:18:55.122127Z,-2.3473509999999997,-0.8852540000000001,2.25116
2018-10-17T16:18:55.322127Z,-0.633057,-0.0060420000000000005,-0.7988890000000001
2018-10-17T16:18:55.521127Z,-1.418579,-0.606567,-0.235229
2018-10-17T16:18:55.722127Z,-0.486389,-0.7094729999999999,-0.306213
2018-10-17T16:18:55.927127Z,0.255981,-0.207275,-0.49139399999999994
2018-10-17T16:18:56.131127Z,-2.197937,-0.6896359999999999,2.408569
2018-10-17T16:18:56.337127Z,-0.815369,0.554321,-0.33520500000000003
2018-10-17T16:18:56.538127Z,-2.356384,0.091736,-0.410034
2018-10-17T16:18:56.737127Z,-2.198242,0.328308,-1.077148
2018-10-17T16:18:56.934127Z,-2.626587,0.322449,0.054688
2018-10-17T16:18:57.134127Z,-1.498779,-0.5387569999999999,0.257263
2018-10-17T16:18:57.332127Z,0.52179,-0.757812,0.102905
2018-10-17T16:18:57.532127Z,-0.32513400000000003,-0.435669,-0.484436
2018-10-17T16:18:57.731127Z,-0.10321,0.480652,-0.28009
2018-10-17T16:18:57.997127Z,-0.513245,-0.002869,0.643066
2018-10-17T16:18:58.127127Z,-1.209961,-0.612915,0.995667
2018-10-17T16:18:58.347127Z,-1.5772709999999999,-0.016602000000000002,-0.28326399999999996
2018-10-17T16:18:58.537127Z,-0.969543,1.20105,-0.443542
2018-10-17T16:18:58.732127Z,-0.843872,0.405334,-0.16528299999999999
2018-10-17T16:18:58.933127Z,0.43041999999999997,-0.6643680000000001,-1.0652469999999998
2018-10-17T16:18:59.132127Z,-0.929565,-0.48175,-0.747253
2018-10-17T16:18:59.332127Z,-0.47186300000000003,0.922791,-0.063171
2018-10-17T16:18:59.532127Z,0.14562999999999998,-0.413818,-0.638245
2018-10-17T16:18:59.735127Z,-0.092834,-2.1540529999999998,0.350098
2018-10-17T16:18:59.932127Z,-0.29657,-0.780334,-0.394409
2018-10-17T16:19:00.147127Z,-0.045531999999999996,-0.688293,0.37854
2018-10-17T16:19:00.346127Z,-1.009155,-2.5032959999999997,1.7491459999999999
2018-10-17T16:19:00.531127Z,1.020508,-1.617371,0.834778
2018-10-17T16:19:00.731127Z,0.936157,-0.125,1.353333
2018-10-17T16:19:00.932127Z,0.7417600000000001,-0.006104,0.052307000000000006
2018-10-17T16:19:01.131127Z,-0.25402800000000003,-0.379639,0.16656500000000002
2018-10-17T16:19:01.331127Z,-0.305786,-0.099915,-0.220032
2018-10-17T16:19:01.531127Z,0.613586,-0.155701,-0.354187
2018-10-17T16:19:01.729127Z,0.655518,0.48053,-0.588013
2018-10-17T16:19:01.931127Z,0.429993,0.723083,0.315308
2018-10-17T16:19:02.132127Z,0.37255900000000003,0.891968,-0.386108
2018-10-17T16:19:02.332127Z,1.625305,-0.955017,-0.052917
2018-10-17T16:19:02.532127Z,2.83313,-0.5858760000000001,-0.48999
2018-10-17T16:19:02.732127Z,0.826233,1.173828,0.316956
2018-10-17T16:19:02.933127Z,0.07635499999999999,1.606384,1.84021
2018-10-17T16:19:03.151127Z,-0.5547489999999999,0.626587,-1.217957
2018-10-17T16:19:03.332127Z,-0.386963,0.784485,-1.8799439999999998
2018-10-17T16:19:03.536127Z,-0.5623779999999999,2.379211,0.190552
2018-10-17T16:19:03.733127Z,0.24542199999999997,2.042725,-0.080505
2018-10-17T16:19:03.934127Z,0.702271,-0.536987,0.100342
2018-10-17T16:19:04.131127Z,0.134216,0.993347,-0.728638
2018-10-17T16:19:04.331127Z,0.46557600000000005,0.868591,-0.614075
2018-10-17T16:19:04.531127Z,-0.230408,0.532959,0.482605
2018-10-17T16:19:04.733127Z,-0.806519,-0.965088,1.5692139999999999
2018-10-17T16:19:04.933127Z,-1.913757,-0.162415,-0.8515010000000001
2018-10-17T16:19:05.143127Z,-1.587646,-0.680359,0.290527
2018-10-17T16:19:05.335127Z,-0.041260000000000005,0.102905,0.016174
2018-10-17T16:19:05.528127Z,-0.9801639999999999,-0.027222000000000003,1.6538700000000002
2018-10-17T16:19:05.732127Z,-0.573242,-1.107849,-0.866577
2018-10-17T16:19:05.939127Z,0.277161,-0.07006799999999999,-0.439575
2018-10-17T16:19:06.133127Z,0.264465,0.555847,0.269836
2018-10-17T16:19:06.333127Z,-0.6209720000000001,0.21520999999999998,0.810913
2018-10-17T16:19:06.529127Z,-1.616455,-0.9379270000000001,-0.667358
2018-10-17T16:19:06.732127Z,-1.77417,-0.292419,-1.325806
2018-10-17T16:19:06.948127Z,-0.561462,0.721069,-0.9483030000000001
2018-10-17T16:19:07.142127Z,-1.937561,-0.9149780000000001,2.833313
2018-10-17T16:19:07.333127Z,-1.458008,-0.390808,-1.407043
2018-10-17T16:19:07.532127Z,-0.580811,0.592957,0.302124
2018-10-17T16:19:07.732127Z,-0.6912229999999999,0.10540799999999999,0.106628
2018-10-17T16:19:07.932127Z,-0.48407,-1.6788939999999999,-0.6937260000000001
2018-10-17T16:19:08.133127Z,-0.19653299999999999,-1.172607,-1.88031
2018-10-17T16:19:08.341127Z,-1.332031,0.178589,2.16687
2018-10-17T16:19:08.540127Z,-0.239441,0.785767,-0.418579
2018-10-17T16:19:08.734127Z,-1.176453,-2.2388310000000002,3.1105959999999997
2018-10-17T16:19:09.132127Z,0.359375,-1.335022,-0.193787
2018-10-17T16:19:09.334127Z,0.34179699999999996,-0.270813,0.602722
2018-10-17T16:19:09.534127Z,-0.16925,0.713501,0.501343
2018-10-17T16:19:09.734127Z,1.002686,0.07836900000000001,2.735779
2018-10-17T16:19:09.936127Z,-1.09314,0.092468,0.42218
2018-10-17T16:19:10.132127Z,-0.825867,-0.9124760000000001,-0.468689
2018-10-17T16:19:10.333127Z,0.439148,0.328369,-0.799194
2018-10-17T16:19:10.546127Z,-0.261841,1.1292719999999998,0.209961
2018-10-17T16:19:10.738127Z,-0.018799,-0.508972,1.753479
2018-10-17T16:19:10.937127Z,0.720642,-0.142517,-1.134949
2018-10-17T16:19:11.145127Z,0.216614,1.155029,0.747498
2018-10-17T16:19:11.330127Z,0.32195999999999997,0.166077,1.263855
2018-10-17T16:19:11.533127Z,1.167419,-1.941772,2.42395
2018-10-17T16:19:11.736127Z,1.034363,-0.530151,-0.667175
2018-10-17T16:19:11.932127Z,-0.18670699999999998,1.863464,-0.380554
2018-10-17T16:19:12.131127Z,0.892395,1.6682130000000002,-0.42981
2018-10-17T16:19:12.336127Z,0.763,0.41925,-0.10907
2018-10-17T16:19:12.532127Z,0.462646,1.6856080000000002,-1.6995240000000003
2018-10-17T16:19:12.734127Z,0.562866,2.454285,-0.40008499999999997
2018-10-17T16:19:12.932127Z,-0.09930399999999999,1.3676760000000001,2.944275
2018-10-17T16:19:13.135127Z,0.043701,-0.43060299999999996,-0.7186279999999999
2018-10-17T16:19:13.362127Z,-0.596619,1.115356,-1.369812
2018-10-17T16:19:13.537127Z,0.081604,1.3477780000000001,-0.624512
2018-10-17T16:19:13.740127Z,-0.018799,-0.131958,0.644409
2018-10-17T16:19:13.934127Z,0.5717770000000001,-0.6678470000000001,-0.115479
2018-10-17T16:19:14.132127Z,-0.347961,1.338989,-0.196472
2018-10-17T16:19:14.331127Z,0.07147200000000001,0.7928470000000001,0.042542
2018-10-17T16:19:14.532127Z,-0.35754400000000003,-1.7230830000000001,0.744751
2018-10-17T16:19:14.732127Z,-0.21606399999999998,-1.6256709999999999,-0.7612300000000001
2018-10-17T16:19:14.931127Z,-0.645691,-0.80011,0.368164
2018-10-17T16:19:15.131127Z,-0.219849,-0.46588100000000005,-0.032532
2018-10-17T16:19:15.331127Z,0.114258,0.482544,-0.095886
2018-10-17T16:19:15.528127Z,2.452881,1.8139040000000002,-1.103882
2018-10-17T16:19:15.732127Z,1.6553959999999999,1.023376,-0.886719
2018-10-17T16:19:15.934127Z,-1.7215580000000001,0.028748000000000003,0.557983
2018-10-17T16:19:16.132127Z,-1.1636959999999998,0.923645,-0.307739
2018-10-17T16:19:16.328127Z,-0.780273,0.555786,0.737793
2018-10-17T16:19:16.532127Z,1.38031,1.2445680000000001,-0.11328099999999999
2018-10-17T16:19:16.729127Z,0.280884,0.664246,-0.03717
2018-10-17T16:19:16.940127Z,1.0559690000000002,0.9630129999999999,-0.330994
2018-10-17T16:19:17.154127Z,1.460632,1.303284,-0.968994
2018-10-17T16:19:17.341127Z,0.369751,1.549133,-1.012573
2018-10-17T16:19:17.542127Z,0.741394,1.708496,-0.153809
2018-10-17T16:19:17.745127Z,-1.020386,0.42053199999999996,2.0043330000000004
2018-10-17T16:19:17.947127Z,-0.8345950000000001,-0.451416,-1.6768189999999998
2018-10-17T16:19:18.141127Z,0.516479,0.581604,-0.904114
2018-10-17T16:19:18.341127Z,-0.134155,-0.6149899999999999,1.6317139999999999
2018-10-17T16:19:18.548127Z,-0.182068,0.174316,-1.098083
2018-10-17T16:19:18.750127Z,-0.054871,1.201965,0.362793
2018-10-17T16:19:18.942127Z,-1.132263,-0.7877810000000001,1.124084
2018-10-17T16:19:19.142127Z,-1.7960209999999999,-1.427368,0.023315
2018-10-17T16:19:19.342127Z,-0.284546,0.572388,0.158997
2018-10-17T16:19:19.542127Z,0.044128,1.180664,-0.600769
2018-10-17T16:19:19.743127Z,-1.3604129999999999,-1.3610229999999999,1.495667
2018-10-17T16:19:19.942127Z,0.00885,-0.046814,-1.269592
2018-10-17T16:19:20.141127Z,-0.8713989999999999,0.396912,0.268982
2018-10-17T16:19:20.338127Z,0.261841,-0.280396,0.477051
2018-10-17T16:19:20.543127Z,0.882019,0.508484,-1.397644
2018-10-17T16:19:20.748127Z,-1.115173,-1.382507,-0.794067
2018-10-17T16:19:20.940127Z,-0.48754899999999995,-1.2772219999999999,0.982483
2018-10-17T16:19:21.142127Z,-1.49884,-0.087341,0.044677999999999995
2018-10-17T16:19:21.353127Z,-2.961182,-0.45752,-0.904358
2018-10-17T16:19:21.542127Z,-1.365723,-0.325623,1.087585
2018-10-17T16:19:21.742127Z,-0.013977000000000002,-0.491333,0.136902
2018-10-17T16:19:21.942127Z,1.246277,-1.083984,0.116943
2018-10-17T16:19:22.143127Z,0.694824,0.344177,0.183472
2018-10-17T16:19:22.338127Z,-0.161377,0.11834700000000001,0.081116
2018-10-17T16:19:22.542127Z,-1.113831,-1.132263,0.952881
2018-10-17T16:19:22.749127Z,-1.159119,0.13763399999999998,-0.624634
2018-10-17T16:19:22.941127Z,-0.408936,0.6252439999999999,0.10272200000000001
2018-10-17T16:19:23.149127Z,-1.179382,0.617798,-0.181335
2018-10-17T16:19:23.351127Z,-1.1761469999999998,-1.2739260000000001,0.10437
2018-10-17T16:19:23.545127Z,-1.315186,-0.070435,-0.57782
2018-10-17T16:19:23.742127Z,-0.440308,0.20977800000000002,-0.884827
2018-10-17T16:19:23.946127Z,-0.706299,0.257263,-0.49957299999999993
2018-10-17T16:19:24.141127Z,-0.804443,-0.046752999999999996,-0.22405999999999998
2018-10-17T16:19:24.346127Z,-3.476929,-0.06854199999999999,-1.072937
2018-10-17T16:19:24.546127Z,-3.349854,0.577209,-0.894531
2018-10-17T16:19:24.763127Z,-1.4731450000000001,0.76239,0.01886
2018-10-17T16:19:24.942127Z,-1.8588259999999999,-0.452759,-0.40808099999999997
2018-10-17T16:19:25.142127Z,-0.5272220000000001,-0.141968,-0.18158
2018-10-17T16:19:25.356127Z,-0.653931,1.2308350000000001,0.48748800000000003
2018-10-17T16:19:25.745127Z,-0.046997000000000004,1.079956,0.419617
2018-10-17T16:19:25.954127Z,-1.059998,0.039062,0.23175
2018-10-17T16:19:26.143127Z,-2.011536,1.053284,-0.715332
2018-10-17T16:19:26.342127Z,-0.8524780000000001,1.899658,-0.958923
2018-10-17T16:19:26.552127Z,-0.277893,0.698547,0.9026489999999999
2018-10-17T16:19:26.742127Z,-1.281372,-0.31048600000000004,-0.9137569999999999
2018-10-17T16:19:26.950127Z,-0.5250239999999999,0.72821,-1.202515
2018-10-17T16:19:27.152127Z,-0.12738,1.4852290000000001,0.073486
2018-10-17T16:19:27.346127Z,-0.52832,-1.7283330000000001,0.250305
2018-10-17T16:19:27.549127Z,0.833801,-0.81897,-1.7826540000000002
2018-10-17T16:19:27.742127Z,-1.048401,-0.266296,0.5668949999999999
2018-10-17T16:19:27.943127Z,-1.188782,0.438538,0.5356449999999999
2018-10-17T16:19:28.141127Z,-0.470947,-2.022339,-0.681763
2018-10-17T16:19:28.344127Z,-0.422791,0.061462,-1.463562
2018-10-17T16:19:28.543127Z,0.124573,1.508362,-0.441162
2018-10-17T16:19:28.738127Z,-0.621826,-0.5607300000000001,2.357361
2018-10-17T16:19:28.947127Z,-1.636169,-0.676086,0.6369630000000001
2018-10-17T16:19:29.141127Z,0.003235,0.8382569999999999,-0.774475
2018-10-17T16:19:29.347127Z,0.710388,0.85083,0.190002
2018-10-17T16:19:29.542127Z,-0.39502,-0.938843,-1.4624629999999998
2018-10-17T16:19:29.802127Z,-0.5688479999999999,0.34845,-1.438477
2018-10-17T16:19:29.942127Z,-0.590332,-0.153076,-0.314819
2018-10-17T16:19:30.143127Z,-1.829834,-1.105042,0.838623
2018-10-17T16:19:30.347127Z,-1.4254149999999999,0.102173,-0.055847
2018-10-17T16:19:30.542127Z,-1.0023799999999998,0.212769,-0.479675
2018-10-17T16:19:30.743127Z,-0.7189939999999999,0.838867,-0.9456180000000001
2018-10-17T16:19:30.945127Z,-0.559204,0.838318,-0.409302
2018-10-17T16:19:31.143127Z,0.40802,-0.5001220000000001,-1.240173
2018-10-17T16:19:31.346127Z,-0.9680790000000001,0.273376,-1.177185
2018-10-17T16:19:31.542127Z,-0.5626220000000001,0.724304,-0.992798
2018-10-17T16:19:31.744127Z,0.8122560000000001,1.69928,-0.377808
2018-10-17T16:19:31.948127Z,-2.718689,-0.503296,5.5327150000000005
2018-10-17T16:19:32.139127Z,-1.537048,-1.445129,-0.164673
2018-10-17T16:19:32.340127Z,-0.763733,-0.535583,0.053162
2018-10-17T16:19:32.552127Z,-0.556396,-0.213196,-0.391846
2018-10-17T16:19:32.747127Z,-0.8414309999999999,-1.560486,-0.577637
2018-10-17T16:19:32.946127Z,1.045715,0.314148,-0.93634
2018-10-17T16:19:33.148127Z,0.815491,0.611633,-0.203735
2018-10-17T16:19:33.352127Z,0.35320999999999997,0.861877,-0.600464
2018-10-17T16:19:33.543127Z,-1.442871,-0.780334,-0.12103299999999999
2018-10-17T16:19:33.743127Z,-1.6428220000000002,-0.5276489999999999,-0.689087
2018-10-17T16:19:33.942127Z,-0.549988,0.537842,-0.800293
2018-10-17T16:19:34.142127Z,-0.378967,0.823059,0.784058
2018-10-17T16:19:34.342127Z,-0.2052,-1.294067,-0.24273699999999998
2018-10-17T16:19:34.543127Z,0.007324,-0.067078,-0.710205
2018-10-17T16:19:34.764127Z,0.412292,-0.069458,-1.020935
2018-10-17T16:19:34.948127Z,0.520508,-0.49578900000000004,-1.5132450000000002
2018-10-17T16:19:35.148127Z,0.665283,-0.922974,-2.032837
2018-10-17T16:19:35.347127Z,0.7229,-0.030579000000000002,0.349976
2018-10-17T16:19:35.538127Z,0.2453,-1.155945,-0.263855
2018-10-17T16:19:35.742127Z,1.809875,0.19934100000000002,-1.658875
2018-10-17T16:19:35.955127Z,0.991821,1.627686,-0.755188
2018-10-17T16:19:36.141127Z,0.284058,1.444092,0.651978
2018-10-17T16:19:36.341127Z,-0.509583,0.141785,-0.316772
2018-10-17T16:19:36.543127Z,-0.854614,0.13915999999999998,-1.649414
2018-10-17T16:19:36.747127Z,-0.686096,1.1535030000000002,-0.5330199999999999
2018-10-17T16:19:36.953127Z,-0.233948,1.6911009999999997,-0.831177
2018-10-17T16:19:37.151127Z,0.45098900000000003,1.859131,-0.44384799999999996
2018-10-17T16:19:37.349127Z,1.170593,-0.7280270000000001,1.0667719999999998
2018-10-17T16:19:37.545127Z,1.6820680000000001,0.535706,-1.306335
2018-10-17T16:19:37.747127Z,-0.22985799999999998,1.605713,-0.543457
2018-10-17T16:19:38.140127Z,0.8125,2.180542,0.8146359999999999
2018-10-17T16:19:38.339127Z,-0.623474,-0.91571,0.778992
2018-10-17T16:19:38.538127Z,-0.024963,-1.22699,0.341492
2018-10-17T16:19:38.741127Z,-0.551025,0.545227,-0.303406
2018-10-17T16:19:38.946127Z,-0.539856,2.156128,0.34484899999999996
2018-10-17T16:19:39.148127Z,0.23083499999999998,1.094666,-0.284912
2018-10-17T16:19:39.347127Z,-0.179626,0.18634,-0.281677
2018-10-17T16:19:39.548127Z,0.7096560000000001,0.243652,-1.619995
2018-10-17T16:19:39.762127Z,0.318726,0.824585,-0.020142
2018-10-17T16:19:39.949127Z,0.45996099999999995,0.6193850000000001,-0.303833
2018-10-17T16:19:40.150127Z,0.715454,0.36486799999999997,0.5189819999999999
2018-10-17T16:19:40.350127Z,-0.764893,0.260803,-0.262878
2018-10-17T16:19:40.544127Z,-0.804932,0.9951780000000001,-1.3059690000000002
2018-10-17T16:19:40.752127Z,-0.764038,1.2805790000000001,-0.334045
2018-10-17T16:19:40.941127Z,-0.058411000000000005,1.127441,1.1740110000000001
2018-10-17T16:19:41.144127Z,0.782288,-0.56958,-0.741699
2018-10-17T16:19:41.343127Z,-0.6599729999999999,-0.791077,-0.12854000000000002
2018-10-17T16:19:41.542127Z,-0.145508,-0.476501,-0.2948
2018-10-17T16:19:41.742127Z,1.2979129999999999,0.191589,-0.08313
2018-10-17T16:19:41.945127Z,-0.7281489999999999,-0.096252,2.897278
2018-10-17T16:19:42.146127Z,-2.9828490000000003,-0.933472,0.263428
2018-10-17T16:19:42.342127Z,-0.942749,0.34191900000000003,-0.46606400000000003
2018-10-17T16:19:42.542127Z,-0.20605500000000002,0.776367,0.352905
2018-10-17T16:19:42.743127Z,-0.47174099999999997,-0.779846,0.8250120000000001
2018-10-17T16:19:42.953127Z,-0.558716,-0.589661,-1.926941
