Datetime,accx,accy,accz
2018-10-16T22:39:15.324749Z,0.0,0.0,0.0
2018-10-16T22:39:15.508749Z,-0.20440899999999998,0.021440999999999998,0.036043
2018-10-16T22:39:15.728749Z,-0.017194,-0.085421,0.6975600000000001
2018-10-16T22:39:15.945749Z,0.234031,-1.900498,1.376459
2018-10-16T22:39:16.139749Z,0.426997,-2.105076,-0.219419
2018-10-16T22:39:16.349749Z,0.178198,-0.922583,1.018506
2018-10-16T22:39:16.550749Z,1.9083450000000002,-1.56054,0.9841209999999999
2018-10-16T22:39:16.750749Z,0.345878,-1.198343,1.103481
2018-10-16T22:39:16.931749Z,-0.587651,-1.358295,0.9672040000000001
2018-10-16T22:39:17.142749Z,-0.265419,-1.6920330000000001,0.200401
2018-10-16T22:39:17.351749Z,-1.2657040000000002,-0.727543,-0.17110999999999998
2018-10-16T22:39:17.550749Z,-2.114799,-0.339574,1.453511
2018-10-16T22:39:17.749749Z,-1.5384790000000002,-1.64175,-0.911898
2018-10-16T22:39:17.953749Z,0.321361,0.06437999999999999,0.123776
2018-10-16T22:39:18.155749Z,-0.130423,-0.701112,1.9823680000000001
2018-10-16T22:39:18.345749Z,0.627725,-1.284282,-0.522616
2018-10-16T22:39:18.529749Z,0.18685,-0.086811,-0.323075
2018-10-16T22:39:18.749749Z,0.764734,0.259633,1.189884
2018-10-16T22:39:18.961749Z,0.552457,-1.0313219999999998,-0.25829
2018-10-16T22:39:19.149749Z,1.010417,-0.167168,0.973123
2018-10-16T22:39:19.356749Z,-0.26976700000000003,-0.849291,1.10685
2018-10-16T22:39:19.569749Z,0.191003,-1.441871,-0.709009
2018-10-16T22:39:19.751749Z,-0.656515,0.250302,-0.15604500000000002
2018-10-16T22:39:19.949749Z,-0.368863,0.309682,1.30055
2018-10-16T22:39:20.134749Z,0.772233,-1.653688,-0.47901099999999996
2018-10-16T22:39:20.353749Z,-0.12371099999999999,-0.18537,0.14445
2018-10-16T22:39:20.543749Z,-0.7771859999999999,-0.134608,1.541334
2018-10-16T22:39:20.746749Z,-0.615726,-1.222361,-0.982765
2018-10-16T22:39:20.976749Z,0.175037,0.23690999999999998,-0.268737
2018-10-16T22:39:21.154749Z,0.5487489999999999,-0.127633,1.6246049999999999
2018-10-16T22:39:21.353749Z,0.681502,-1.092243,-0.573673
2018-10-16T22:39:21.557749Z,0.518392,0.126431,-0.12254000000000001
2018-10-16T22:39:21.777749Z,0.051313,-0.455721,2.117685
2018-10-16T22:39:21.932749Z,0.548513,-1.249676,-0.8378979999999999
2018-10-16T22:39:22.152749Z,0.980663,-0.47398199999999996,0.381496
2018-10-16T22:39:22.331749Z,1.3044639999999998,-0.6098359999999999,1.316547
2018-10-16T22:39:22.546749Z,1.114175,-1.411735,0.09739400000000001
2018-10-16T22:39:22.751749Z,1.1213959999999998,-0.184836,0.7419859999999999
2018-10-16T22:39:22.934749Z,-1.158576,-0.796385,1.821653
2018-10-16T22:39:23.135749Z,0.019233,-1.377477,-0.722383
2018-10-16T22:39:23.334749Z,0.705701,-0.214352,-0.049676
2018-10-16T22:39:23.532749Z,0.515717,-0.11018800000000001,1.179351
2018-10-16T22:39:23.733749Z,0.322839,-1.20066,0.5459649999999999
2018-10-16T22:39:23.934749Z,0.289078,-0.9351450000000001,-0.39310500000000004
2018-10-16T22:39:24.146749Z,-0.9143620000000001,0.07366,1.228429
2018-10-16T22:39:24.353749Z,-0.9256700000000001,-1.107084,0.099737
2018-10-16T22:39:24.557749Z,-0.407393,-0.696496,-0.429522
2018-10-16T22:39:24.784749Z,0.780263,-0.047928,1.357534
2018-10-16T22:39:24.948749Z,0.33834000000000003,-0.934731,0.751622
2018-10-16T22:39:25.146749Z,0.7094550000000001,-0.8423809999999999,-0.9928520000000001
2018-10-16T22:39:25.382749Z,-0.125622,0.406517,1.37729
2018-10-16T22:39:25.580749Z,-0.75717,-0.9729110000000001,0.7792479999999999
2018-10-16T22:39:25.735749Z,0.069802,-0.9046219999999999,-1.347148
2018-10-16T22:39:26.036749Z,0.10468,0.157865,0.518614
2018-10-16T22:39:26.134749Z,0.166691,-0.20616500000000001,1.0101
2018-10-16T22:39:26.348749Z,0.781463,-1.004243,-0.444334
2018-10-16T22:39:26.536749Z,0.39604,0.557876,0.013462
2018-10-16T22:39:26.754749Z,-0.14945999999999998,-0.512758,1.8165790000000002
2018-10-16T22:39:26.947749Z,0.101108,-1.253024,-0.889832
2018-10-16T22:39:27.155749Z,-0.21806799999999998,0.17565699999999998,-0.33345199999999997
2018-10-16T22:39:27.356749Z,0.042866,0.146808,1.211012
2018-10-16T22:39:27.554749Z,0.508089,-0.809819,-0.40560799999999997
2018-10-16T22:39:27.758749Z,0.288578,-0.09277200000000001,-0.622165
2018-10-16T22:39:27.957749Z,-0.050726,0.022216999999999997,1.953948
2018-10-16T22:39:28.275749Z,0.44509,-1.035274,-0.470359
2018-10-16T22:39:28.366749Z,0.6957369999999999,-0.639709,-0.229323
2018-10-16T22:39:28.546749Z,1.5894780000000002,-0.130888,1.2090379999999998
2018-10-16T22:39:28.754749Z,1.8933369999999998,-1.3361049999999999,1.075476
2018-10-16T22:39:28.937749Z,1.8787509999999998,-1.47858,0.431954
2018-10-16T22:39:29.147749Z,0.045484,-0.665613,1.152531
2018-10-16T22:39:29.350749Z,-0.6640520000000001,-0.728259,0.407161
2018-10-16T22:39:29.553749Z,-0.173236,-0.657278,-0.23871399999999998
2018-10-16T22:39:29.757749Z,-0.012137,-0.12081700000000001,0.392692
2018-10-16T22:39:29.957749Z,-0.286605,-0.702171,0.7563409999999999
2018-10-16T22:39:30.156749Z,-0.053535,-0.762439,-1.135781
2018-10-16T22:39:30.356749Z,-0.061707000000000005,0.10303699999999999,0.576968
2018-10-16T22:39:30.559749Z,-0.44535,-0.5444399999999999,1.6876970000000002
2018-10-16T22:39:30.739749Z,0.11237899999999999,-1.178403,-0.634363
2018-10-16T22:39:30.956749Z,1.7372419999999997,-0.9920459999999999,0.262034
2018-10-16T22:39:31.156749Z,1.3831879999999999,-0.737255,1.659575
2018-10-16T22:39:31.339749Z,2.389465,-2.107856,0.6184109999999999
2018-10-16T22:39:31.561749Z,1.406535,-1.052376,0.371859
2018-10-16T22:39:31.759749Z,-0.414542,0.307503,0.750243
2018-10-16T22:39:31.965749Z,-0.41975500000000004,-1.140051,0.160102
2018-10-16T22:39:32.156749Z,-0.7010069999999999,-0.5588069999999999,-0.342578
2018-10-16T22:39:32.360749Z,-0.8012640000000001,0.28883200000000003,0.265648
2018-10-16T22:39:32.557749Z,-1.107801,-1.349651,1.329608
2018-10-16T22:39:32.758749Z,-1.3791639999999998,-0.967669,-0.881024
2018-10-16T22:39:32.961749Z,-1.933935,-0.43574799999999997,1.026153
2018-10-16T22:39:33.161749Z,-0.107117,-0.08443400000000001,0.520753
2018-10-16T22:39:33.342749Z,-0.457905,-0.710316,-0.43928100000000003
2018-10-16T22:39:33.544749Z,0.469696,-0.54428,0.64557
2018-10-16T22:39:33.760749Z,0.249756,-0.60947,0.667981
2018-10-16T22:39:33.958749Z,0.224617,-0.994125,0.018412
2018-10-16T22:39:34.156749Z,-0.627497,-0.053277,-0.516998
2018-10-16T22:39:34.358749Z,-0.741804,0.23945999999999998,0.31569200000000003
2018-10-16T22:39:34.560749Z,-0.042283999999999995,-0.453982,0.095325
2018-10-16T22:39:34.759749Z,0.677092,-0.20331300000000002,-0.29282199999999997
2018-10-16T22:39:34.943749Z,0.558042,0.407788,0.508285
2018-10-16T22:39:35.160749Z,0.9393600000000001,-0.123824,1.1800700000000002
2018-10-16T22:39:35.353749Z,1.198387,-0.791403,-0.42153900000000005
2018-10-16T22:39:35.559749Z,1.5382280000000002,-0.198284,0.007079
2018-10-16T22:39:35.756749Z,1.668048,-0.178755,1.259219
2018-10-16T22:39:35.957749Z,0.642945,-1.212204,0.581635
2018-10-16T22:39:36.142749Z,1.15279,-0.768016,0.283684
2018-10-16T22:39:36.354749Z,0.9352739999999999,-0.7172390000000001,0.805301
2018-10-16T22:39:36.554749Z,0.592396,-1.4020920000000001,0.953793
2018-10-16T22:39:36.743749Z,0.613838,-0.980733,-0.661853
2018-10-16T22:39:36.962749Z,1.446913,-0.283453,0.36985500000000004
2018-10-16T22:39:37.164749Z,-0.9779190000000001,0.550643,0.23827600000000002
2018-10-16T22:39:37.353749Z,-0.945591,-1.0123090000000001,0.979123
2018-10-16T22:39:37.553749Z,-0.18399000000000001,-0.554723,-0.751961
2018-10-16T22:39:37.800749Z,-2.5268200000000003,0.097388,0.327812
2018-10-16T22:39:37.960749Z,-1.8555840000000001,-1.17229,0.937234
2018-10-16T22:39:38.161749Z,-1.6922810000000001,-1.5937649999999999,-0.14541300000000001
2018-10-16T22:39:38.363749Z,-0.171198,-0.333328,-0.06676499999999999
2018-10-16T22:39:38.545749Z,1.643059,-0.35281,1.363381
2018-10-16T22:39:38.745749Z,0.125067,-0.447029,1.008334
2018-10-16T22:39:38.965749Z,0.9108729999999999,-0.7297130000000001,-0.873409
2018-10-16T22:39:39.160749Z,1.233392,0.688224,-0.707655
2018-10-16T22:39:39.362749Z,1.286577,0.406545,1.110754
2018-10-16T22:39:39.561749Z,1.933878,-0.92848,0.9954129999999999
2018-10-16T22:39:39.760749Z,0.900667,-0.365701,-0.241655
2018-10-16T22:39:39.966749Z,0.771829,0.265308,0.089059
2018-10-16T22:39:40.164749Z,-0.374429,0.624748,0.48207
2018-10-16T22:39:40.365749Z,-0.30245500000000003,-0.817038,0.09743099999999999
2018-10-16T22:39:40.566749Z,0.08367899999999999,-0.011555,-1.213722
2018-10-16T22:39:40.767749Z,0.047455000000000004,0.257791,0.387533
2018-10-16T22:39:40.955749Z,0.279758,-0.329486,1.454395
2018-10-16T22:39:41.211749Z,0.151563,-1.6636630000000001,0.361501
2018-10-16T22:39:41.358749Z,0.465825,-0.515547,-0.627725
2018-10-16T22:39:41.590749Z,0.6718029999999999,-0.033707,0.48083100000000006
2018-10-16T22:39:41.763749Z,0.563156,-0.724965,1.19309
2018-10-16T22:39:41.963749Z,1.322028,-1.2636020000000001,0.724668
2018-10-16T22:39:42.167749Z,0.74555,-1.1165770000000002,0.19562000000000002
2018-10-16T22:39:42.363749Z,0.002379,-0.874418,0.336946
2018-10-16T22:39:42.568749Z,-0.589854,-0.10254400000000001,0.7826609999999999
2018-10-16T22:39:42.770749Z,0.150804,-1.379353,1.2773649999999999
2018-10-16T22:39:42.968749Z,0.853925,-1.913366,-0.063952
2018-10-16T22:39:43.249749Z,0.358052,-0.271931,-0.268419
2018-10-16T22:39:43.363749Z,0.157499,0.466958,-0.069627
2018-10-16T22:39:43.563749Z,-0.060624000000000004,-0.10707799999999999,2.066764
2018-10-16T22:39:43.764749Z,-0.47496099999999997,-1.813453,-0.12274600000000001
2018-10-16T22:39:43.967749Z,-0.230419,-0.412062,-1.218469
2018-10-16T22:39:44.169749Z,-0.447233,0.22446999999999998,0.380591
2018-10-16T22:39:44.367749Z,0.026381,-0.053902,1.681273
2018-10-16T22:39:44.563749Z,0.524918,-1.8437189999999999,0.31469
2018-10-16T22:39:44.781749Z,0.703272,-1.0470959999999998,-0.501052
2018-10-16T22:39:44.948749Z,0.07460800000000001,0.619487,-0.103498
2018-10-16T22:39:45.164749Z,-0.894827,0.194632,1.010638
2018-10-16T22:39:45.367749Z,-0.41707299999999997,-1.9695880000000001,0.26561599999999996
2018-10-16T22:39:45.565749Z,0.331829,-0.771183,-0.677613
2018-10-16T22:39:45.770749Z,0.152313,0.350204,0.32607800000000003
2018-10-16T22:39:45.968749Z,0.134655,0.144656,1.038624
2018-10-16T22:39:46.159749Z,-0.081122,-1.6924419999999998,0.567819
2018-10-16T22:39:46.359749Z,0.052947,-0.6733100000000001,-0.566787
2018-10-16T22:39:46.566749Z,-0.59658,0.555619,-0.614396
2018-10-16T22:39:46.764749Z,-0.498192,0.743503,0.78886
2018-10-16T22:39:46.966749Z,-1.294023,-0.977176,0.020566
2018-10-16T22:39:47.169749Z,-0.789872,-0.610034,-0.420128
2018-10-16T22:39:47.362749Z,-0.309848,0.554325,0.023353
2018-10-16T22:39:47.570749Z,-0.051332,0.588862,0.41440200000000005
2018-10-16T22:39:47.772749Z,0.616835,-1.3681219999999998,0.25207399999999996
2018-10-16T22:39:47.969749Z,0.906597,-0.577701,-0.039516
2018-10-16T22:39:48.151749Z,0.8324809999999999,0.452524,-0.425467
2018-10-16T22:39:48.366749Z,-0.7430979999999999,0.8863270000000001,0.860635
2018-10-16T22:39:48.566749Z,-1.527053,-1.3974229999999999,0.955297
2018-10-16T22:39:48.753749Z,-0.9552120000000001,-1.507958,-0.41015100000000004
2018-10-16T22:39:48.967749Z,-0.24264499999999997,-1.117634,0.08830299999999999
2018-10-16T22:39:49.152749Z,0.270065,0.065134,0.1964
2018-10-16T22:39:49.374749Z,1.043113,-0.314202,0.956119
2018-10-16T22:39:49.574749Z,0.515301,-0.8186260000000001,0.328164
2018-10-16T22:39:49.763749Z,1.0099639999999999,-0.35663,-0.55267
2018-10-16T22:39:49.963749Z,0.983433,0.56484,0.328019
2018-10-16T22:39:50.202749Z,0.674891,-0.503628,1.6875790000000002
2018-10-16T22:39:50.370749Z,1.119709,-1.0496020000000001,-0.412724
2018-10-16T22:39:50.569749Z,1.061161,-0.31022,-0.431039
2018-10-16T22:39:50.771749Z,0.946227,0.197482,0.808508
2018-10-16T22:39:50.973749Z,1.498089,-0.811092,1.134591
2018-10-16T22:39:51.211749Z,1.8959849999999998,-0.91601,-0.198311
2018-10-16T22:39:51.365749Z,2.059936,-0.083841,-0.029983999999999997
2018-10-16T22:39:51.590749Z,1.050247,-0.49343400000000004,1.788346
2018-10-16T22:39:51.767749Z,1.320168,-1.839394,1.012001
2018-10-16T22:39:51.968749Z,0.746845,-0.752147,-0.016604
2018-10-16T22:39:52.179749Z,-0.009376,0.09965700000000001,-0.339143
2018-10-16T22:39:52.355749Z,-0.37959,0.342422,0.655944
2018-10-16T22:39:52.573749Z,-0.19253299999999998,-1.376929,0.766574
2018-10-16T22:39:52.790749Z,0.5428029999999999,-0.44943299999999997,-0.992675
2018-10-16T22:39:52.968749Z,1.408902,0.225296,0.828635
2018-10-16T22:39:53.170749Z,0.9137790000000001,-0.8340350000000001,1.8497279999999998
2018-10-16T22:39:53.367749Z,0.998383,-1.851649,0.372206
2018-10-16T22:39:53.587749Z,0.847564,-1.289117,0.41361899999999996
2018-10-16T22:39:53.763749Z,-0.448172,-0.386358,0.774216
2018-10-16T22:39:53.969749Z,0.291702,-1.161902,1.454684
2018-10-16T22:39:54.198749Z,-0.997323,-0.821274,-1.138315
2018-10-16T22:39:54.397749Z,-2.0486400000000002,-0.18144000000000002,-0.27215500000000004
2018-10-16T22:39:54.556749Z,-2.086435,-0.682905,1.2692510000000001
2018-10-16T22:39:54.793749Z,-0.337186,-1.305157,0.039139
2018-10-16T22:39:54.995749Z,-0.228415,-0.058591,-0.324206
2018-10-16T22:39:55.194749Z,0.184969,0.23236700000000002,1.174759
2018-10-16T22:39:55.393749Z,1.077253,-0.657855,0.003901
2018-10-16T22:39:55.567749Z,0.885891,-0.11148599999999999,-0.338337
2018-10-16T22:39:55.773749Z,0.475767,0.291188,0.190202
2018-10-16T22:39:55.971749Z,0.358327,-0.13367,0.7778970000000001
2018-10-16T22:39:56.171749Z,0.014091,-0.682479,0.33560300000000004
2018-10-16T22:39:56.381749Z,0.5214840000000001,-0.35225300000000004,-0.428375
2018-10-16T22:39:56.577749Z,0.535067,0.037491000000000003,0.289418
2018-10-16T22:39:56.829749Z,0.019951,-0.131276,0.752579
2018-10-16T22:39:56.968749Z,0.22055500000000003,-1.0472110000000001,0.19069
2018-10-16T22:39:57.169749Z,0.8512049999999999,-0.395832,-0.253261
2018-10-16T22:39:57.358749Z,1.312198,-0.23407600000000003,0.155348
2018-10-16T22:39:57.574749Z,-0.03428,-0.040185000000000005,0.726842
2018-10-16T22:39:57.774749Z,-0.42236599999999996,-0.725054,0.127975
2018-10-16T22:39:57.977749Z,-0.11401900000000001,-0.43460200000000004,0.06879199999999999
2018-10-16T22:39:58.177749Z,-0.781096,0.011139,0.12600799999999998
2018-10-16T22:39:58.379749Z,-1.037752,-0.098691,0.6143689999999999
2018-10-16T22:39:58.581749Z,-0.9310930000000001,-1.057704,-0.160919
2018-10-16T22:39:58.759749Z,-1.248499,-0.257938,-0.252771
2018-10-16T22:39:58.978749Z,-0.717549,-0.089568,0.332869
2018-10-16T22:39:59.176749Z,-0.262654,-0.059516999999999994,-0.406593
2018-10-16T22:39:59.379749Z,0.344418,0.32453000000000004,-0.405719
2018-10-16T22:39:59.578749Z,0.479213,0.719779,0.568254
2018-10-16T22:39:59.776749Z,-0.198623,-0.066345,0.583723
2018-10-16T22:39:59.980749Z,0.667792,-0.326106,-0.621459
2018-10-16T22:40:00.179749Z,0.456429,0.326348,-0.526258
2018-10-16T22:40:00.360749Z,-0.017159,0.856712,-0.12726099999999999
2018-10-16T22:40:00.576749Z,0.32774200000000003,0.20930100000000001,1.3998110000000001
2018-10-16T22:40:00.770749Z,-0.603292,-1.073769,-0.54057
2018-10-16T22:40:00.975749Z,-0.665207,-0.047889999999999995,-0.704426
2018-10-16T22:40:01.176749Z,-1.049183,0.571651,0.355108
2018-10-16T22:40:01.377749Z,-1.688893,-1.055412,0.540375
2018-10-16T22:40:01.577749Z,-0.732039,-1.1552069999999999,-0.221559
2018-10-16T22:40:01.780749Z,-0.237693,-0.249754,0.17599700000000001
2018-10-16T22:40:01.981749Z,1.113353,-0.347624,1.69851
2018-10-16T22:40:02.209749Z,1.603536,-1.3716190000000001,0.382319
2018-10-16T22:40:02.377749Z,1.4692290000000001,-0.427446,-0.386615
2018-10-16T22:40:02.576749Z,1.276889,0.536276,-0.070381
2018-10-16T22:40:02.773749Z,0.574647,0.254114,1.252253
2018-10-16T22:40:02.961749Z,0.935066,-0.843715,-0.15897999999999998
2018-10-16T22:40:03.181749Z,1.180808,-0.238558,-0.6403810000000001
2018-10-16T22:40:03.397749Z,1.190531,0.498567,0.8729450000000001
2018-10-16T22:40:03.579749Z,0.8674440000000001,-0.356121,1.300471
2018-10-16T22:40:03.780749Z,1.338584,-0.9023469999999999,-0.366392
2018-10-16T22:40:03.977749Z,1.371135,-0.15545,-0.436737
2018-10-16T22:40:04.172749Z,0.60448,0.41211499999999995,0.591432
2018-10-16T22:40:04.375749Z,0.974613,-0.600224,1.287886
2018-10-16T22:40:04.583749Z,1.760159,-1.395848,0.021966
2018-10-16T22:40:04.763749Z,1.029909,-0.545593,0.010957
2018-10-16T22:40:04.964749Z,0.033319,0.39652,0.49319300000000005
2018-10-16T22:40:05.162749Z,-0.75539,-0.742133,0.312371
2018-10-16T22:40:05.380749Z,-0.19079200000000002,-0.43471899999999997,-0.7386659999999999
2018-10-16T22:40:05.578749Z,-0.348977,0.185841,0.44291099999999994
2018-10-16T22:40:05.777749Z,-0.005012,-0.41810699999999995,1.238897
2018-10-16T22:40:05.977749Z,-0.014478999999999999,-0.749943,-0.508815
2018-10-16T22:40:06.181749Z,0.143681,0.016501,-0.503229
2018-10-16T22:40:06.364749Z,-0.072911,0.606426,0.603883
2018-10-16T22:40:06.565749Z,-0.7836890000000001,-0.48697399999999996,0.721129
2018-10-16T22:40:06.784749Z,-0.176843,-0.697911,-0.8352799999999999
2018-10-16T22:40:06.985749Z,-0.287138,0.25225,-0.33426300000000003
2018-10-16T22:40:07.184749Z,0.118152,0.20263499999999998,1.12889
2018-10-16T22:40:07.366749Z,0.108426,-1.362454,0.070639
2018-10-16T22:40:07.582749Z,0.379494,-0.46320500000000003,-0.613438
2018-10-16T22:40:07.785749Z,0.286548,0.509415,0.700558
2018-10-16T22:40:08.003749Z,-0.113044,-0.37654499999999996,0.757097
2018-10-16T22:40:08.184749Z,-0.078498,-0.6564840000000001,-0.453996
2018-10-16T22:40:08.382749Z,0.153527,0.061439999999999995,-0.44523500000000005
2018-10-16T22:40:08.566749Z,0.146074,0.7144199999999999,0.593936
2018-10-16T22:40:08.779749Z,0.323895,-0.71055,0.438033
2018-10-16T22:40:08.986749Z,-0.097727,-0.42878,-0.884124
2018-10-16T22:40:09.182749Z,0.49611000000000005,0.383477,-0.1831
2018-10-16T22:40:09.378749Z,0.132448,0.342685,1.162931
2018-10-16T22:40:09.586749Z,-0.38703000000000004,-1.010324,0.22716399999999998
2018-10-16T22:40:09.777749Z,0.574018,-0.660623,-0.327698
2018-10-16T22:40:09.981749Z,0.548971,-0.11573699999999999,0.20647100000000002
2018-10-16T22:40:10.187749Z,1.0244149999999999,-0.821816,1.845893
2018-10-16T22:40:10.367749Z,0.9141370000000001,-1.7044080000000001,0.153346
2018-10-16T22:40:10.568749Z,0.968686,-0.417338,0.013556
2018-10-16T22:40:10.785749Z,-0.419706,-0.12138199999999999,1.030445
2018-10-16T22:40:10.989749Z,-1.014017,-0.7340270000000001,0.877189
2018-10-16T22:40:11.189749Z,-0.259384,-0.32672399999999996,-0.193705
2018-10-16T22:40:11.388749Z,0.145176,-1.026995,0.002133
2018-10-16T22:40:11.570749Z,-0.8199489999999999,0.058625,-0.055497000000000005
2018-10-16T22:40:11.769749Z,-0.781863,-0.6514310000000001,0.943084
2018-10-16T22:40:12.006749Z,-0.403437,-0.8900790000000001,-0.244331
2018-10-16T22:40:12.186749Z,-0.384534,0.384467,-1.145359
2018-10-16T22:40:12.384749Z,-0.098466,0.46849300000000005,0.807458
2018-10-16T22:40:12.582749Z,-0.08228099999999999,-0.513626,0.939147
2018-10-16T22:40:12.783749Z,0.43577899999999997,-0.7825310000000001,-1.054039
2018-10-16T22:40:12.988749Z,-0.0853,-0.07574199999999999,0.45499799999999996
2018-10-16T22:40:13.188749Z,-0.545452,0.36580100000000004,0.5143810000000001
2018-10-16T22:40:13.388749Z,0.471504,-1.075963,0.16886199999999998
2018-10-16T22:40:13.588749Z,0.73929,-0.42868900000000004,-0.460743
2018-10-16T22:40:13.785749Z,-0.384179,0.970089,0.28879299999999997
2018-10-16T22:40:13.984749Z,-0.388374,0.011556,1.18106
2018-10-16T22:40:14.186749Z,0.099455,-0.892951,-0.665508
2018-10-16T22:40:14.370749Z,-0.078752,0.029929,-0.713758
2018-10-16T22:40:14.581749Z,-0.520166,0.530343,0.973601
2018-10-16T22:40:14.785749Z,0.14810399999999999,-1.1548969999999998,0.585979
2018-10-16T22:40:14.989749Z,0.6015739999999999,-0.827102,-0.564719
2018-10-16T22:40:15.190749Z,0.297716,0.004128,0.566298
2018-10-16T22:40:15.388749Z,-0.172043,-0.290164,1.594234
2018-10-16T22:40:15.606749Z,-0.173434,-0.833176,-0.952533
2018-10-16T22:40:15.787749Z,-0.2599,0.037848,-0.664041
2018-10-16T22:40:15.987749Z,-0.386767,0.617293,1.3305200000000001
2018-10-16T22:40:16.186749Z,-0.349056,-0.726734,0.189692
2018-10-16T22:40:16.390749Z,-0.16986700000000002,-0.680838,-0.9787129999999999
2018-10-16T22:40:16.591749Z,-0.928104,0.364843,-0.062415
2018-10-16T22:40:16.789749Z,-1.155979,0.005633,1.428939
2018-10-16T22:40:16.971749Z,-0.193825,-1.077607,0.181578
2018-10-16T22:40:17.184749Z,-0.671246,-0.293917,-0.6736310000000001
2018-10-16T22:40:17.390749Z,-0.760655,0.786111,0.190527
2018-10-16T22:40:17.591749Z,-0.42057100000000003,-0.245916,0.46661800000000003
2018-10-16T22:40:17.790749Z,0.166402,-0.263386,-0.7848729999999999
2018-10-16T22:40:17.991749Z,1.303449,0.005033,0.24605700000000003
2018-10-16T22:40:18.188749Z,0.413364,-0.030683999999999996,1.3946530000000001
2018-10-16T22:40:18.395749Z,1.257134,-0.657564,-0.054780999999999996
2018-10-16T22:40:18.589749Z,0.001149,0.670415,-1.4349450000000001
2018-10-16T22:40:18.791749Z,-0.29516,0.451744,1.539448
2018-10-16T22:40:18.991749Z,-0.15168299999999998,-0.474371,-0.57926
2018-10-16T22:40:19.187749Z,0.916816,-0.054479,-0.549072
2018-10-16T22:40:19.393749Z,0.553944,0.666373,0.633451
2018-10-16T22:40:19.593749Z,0.14591800000000002,0.013822,0.511868
2018-10-16T22:40:19.794749Z,-0.10634300000000001,-0.576072,-0.812937
2018-10-16T22:40:19.992749Z,0.7088909999999999,0.37935100000000005,-0.7733439999999999
2018-10-16T22:40:20.188749Z,1.1449610000000001,0.744487,1.7413830000000001
2018-10-16T22:40:20.418749Z,1.382211,-1.446696,1.354241
2018-10-16T22:40:20.583749Z,0.196981,-0.501931,-1.137159
2018-10-16T22:40:20.783749Z,-1.155473,0.7315729999999999,-0.8756450000000001
2018-10-16T22:40:20.992749Z,-0.599568,0.593634,0.677962
2018-10-16T22:40:21.188749Z,0.780091,-0.985476,0.121183
2018-10-16T22:40:21.393749Z,0.771066,-0.133202,-0.27926999999999996
2018-10-16T22:40:21.608749Z,1.014229,0.632254,0.8400340000000001
2018-10-16T22:40:21.794749Z,0.759959,-0.947109,1.389233
2018-10-16T22:40:22.016749Z,1.185003,-0.9602379999999999,-0.5130939999999999
2018-10-16T22:40:22.191749Z,0.408928,0.540447,-0.294982
2018-10-16T22:40:22.390749Z,-0.349043,0.526564,0.537871
2018-10-16T22:40:22.590749Z,-0.543768,-0.197171,-0.6552819999999999
2018-10-16T22:40:22.790749Z,0.443633,0.050567,-0.579874
2018-10-16T22:40:22.995749Z,-0.032286,0.404942,1.270473
2018-10-16T22:40:23.177749Z,0.688774,-0.342314,0.28239899999999996
2018-10-16T22:40:23.395749Z,1.094603,-0.844585,-0.211517
2018-10-16T22:40:23.594749Z,0.168478,0.180854,-0.517092
2018-10-16T22:40:23.796749Z,0.217861,-0.226663,2.068145
2018-10-16T22:40:23.987749Z,0.8924290000000001,-0.8271350000000001,-0.429345
2018-10-16T22:40:24.193749Z,-0.46619499999999997,0.350165,-0.9468610000000001
2018-10-16T22:40:24.392749Z,-0.26454,0.6163609999999999,0.315135
2018-10-16T22:40:24.595749Z,-0.630822,-0.656267,0.496175
2018-10-16T22:40:24.792749Z,0.271402,-0.154297,-1.1083120000000002
2018-10-16T22:40:24.997749Z,0.20213399999999998,0.751996,0.46768699999999996
2018-10-16T22:40:25.197749Z,-0.047412,-0.186553,1.872693
2018-10-16T22:40:25.397749Z,1.138775,-1.056367,-0.600593
2018-10-16T22:40:25.612749Z,0.383146,-0.172624,-0.771
2018-10-16T22:40:25.796749Z,0.134409,0.728358,0.780713
2018-10-16T22:40:26.025749Z,0.425342,-0.08602,0.523767
2018-10-16T22:40:26.218749Z,0.027239,-0.636717,-0.9574370000000001
2018-10-16T22:40:26.427749Z,-0.101694,0.431361,-0.464024
2018-10-16T22:40:26.579749Z,0.405438,0.289941,1.059564
2018-10-16T22:40:26.821749Z,0.210186,-0.631149,0.742464
2018-10-16T22:40:27.047749Z,1.2040600000000001,-0.285553,-0.948958
2018-10-16T22:40:27.221749Z,0.43837299999999996,0.297093,1.0087780000000002
2018-10-16T22:40:27.422749Z,0.17407999999999998,-0.523291,1.197791
2018-10-16T22:40:27.639749Z,1.16265,-0.9039010000000001,-0.537988
2018-10-16T22:40:27.779749Z,0.40417600000000004,-0.055531,-0.762063
2018-10-16T22:40:27.980749Z,1.0834409999999999,0.813628,1.150407
2018-10-16T22:40:28.179749Z,0.643279,-1.215589,0.601962
2018-10-16T22:40:28.420749Z,1.457255,-0.681475,-0.515879
2018-10-16T22:40:28.667749Z,0.976345,-0.027485000000000002,0.034932
2018-10-16T22:40:28.791749Z,1.0791879999999998,-0.705164,1.7395009999999997
2018-10-16T22:40:28.996749Z,1.220459,-1.851596,0.8199629999999999
2018-10-16T22:40:29.195749Z,0.035052,-1.102009,-0.470013
2018-10-16T22:40:29.397749Z,0.891458,0.216873,0.062149
2018-10-16T22:40:29.598749Z,-0.20659699999999998,0.298682,1.293075
2018-10-16T22:40:29.800749Z,-0.31449299999999997,-1.791141,0.418073
2018-10-16T22:40:29.983749Z,0.253348,-0.695108,-0.785351
2018-10-16T22:40:30.196749Z,1.498134,0.052446000000000007,0.272998
2018-10-16T22:40:30.392749Z,0.861375,-1.196898,2.92561
2018-10-16T22:40:30.597749Z,2.04773,-3.238914,1.872196
2018-10-16T22:40:30.797749Z,1.121346,-3.0359220000000002,0.77396
2018-10-16T22:40:30.997749Z,-0.43032299999999996,-2.10515,2.1898880000000003
2018-10-16T22:40:31.200749Z,-1.8269540000000002,-0.682851,-0.358981
2018-10-16T22:40:31.403749Z,-1.2553,-1.050376,2.739109
2018-10-16T22:40:31.601749Z,-0.279803,-0.9450799999999999,-0.9406110000000001
2018-10-16T22:40:31.801749Z,0.16148800000000002,-0.852367,0.316769
2018-10-16T22:40:32.002749Z,0.42515699999999995,-0.14148,0.44684399999999996
2018-10-16T22:40:32.184749Z,0.9915290000000001,-0.669143,0.595835
2018-10-16T22:40:32.399749Z,0.25594,-0.228814,0.098062
2018-10-16T22:40:32.601749Z,-0.025802999999999996,-0.11174500000000001,0.09865
2018-10-16T22:40:32.783749Z,0.08100800000000001,-0.19529200000000002,0.090495
2018-10-16T22:40:33.004749Z,-0.004312,0.105024,-0.175596
2018-10-16T22:40:33.198749Z,0.098517,-0.551834,0.784624
2018-10-16T22:40:33.398749Z,1.2283819999999999,-0.32786,-0.037335
2018-10-16T22:40:33.600749Z,0.385223,-0.111722,0.177122
2018-10-16T22:40:33.804749Z,0.068682,-0.37509499999999996,0.6846899999999999
2018-10-16T22:40:34.002749Z,0.248529,-0.109203,-0.868267
2018-10-16T22:40:34.185749Z,0.809632,0.144858,0.304757
2018-10-16T22:40:34.403749Z,0.623009,0.352693,-0.291354
2018-10-16T22:40:34.604749Z,1.251449,0.026594,0.743302
2018-10-16T22:40:34.804749Z,-0.112955,-0.008301000000000001,0.610228
2018-10-16T22:40:35.007749Z,0.561638,-0.220142,-1.032183
2018-10-16T22:40:35.188749Z,0.5863649999999999,0.28026799999999996,-0.46709300000000004
2018-10-16T22:40:35.407749Z,0.134293,0.361748,0.322437
2018-10-16T22:40:35.608749Z,-0.023631,0.6561859999999999,0.019514
2018-10-16T22:40:35.805749Z,0.746901,0.5960529999999999,0.023875999999999998
2018-10-16T22:40:36.006749Z,0.9535520000000001,0.7922859999999999,0.470829
2018-10-16T22:40:36.188749Z,0.223667,-0.647968,0.883634
2018-10-16T22:40:36.405749Z,0.058786,-0.44118500000000005,-1.048905
2018-10-16T22:40:36.605749Z,-0.340095,-0.02431,0.11594600000000001
2018-10-16T22:40:36.845749Z,-0.010255,0.8322940000000001,0.66579
2018-10-16T22:40:37.006749Z,-0.066068,-0.841167,0.505016
2018-10-16T22:40:37.202749Z,0.47395299999999996,-1.162847,-0.6852199999999999
2018-10-16T22:40:37.387749Z,0.47529899999999997,0.1575,-0.186039
2018-10-16T22:40:37.602749Z,-0.49228,-0.015182,1.434727
2018-10-16T22:40:37.806749Z,-0.357985,-0.961261,-0.7009
2018-10-16T22:40:38.006749Z,0.303615,-0.124304,0.109901
2018-10-16T22:40:38.207749Z,0.025535,0.077959,1.3001719999999999
2018-10-16T22:40:38.396749Z,-0.154282,-1.169063,-0.281346
2018-10-16T22:40:38.605749Z,-2.326083,-0.7384539999999999,-0.613592
2018-10-16T22:40:38.807749Z,-2.529852,-1.1898520000000001,1.375825
2018-10-16T22:40:39.002749Z,-0.7259439999999999,-1.7443240000000002,0.16229200000000002
2018-10-16T22:40:39.205749Z,-0.47241700000000003,-0.400258,-0.031362
2018-10-16T22:40:39.408749Z,0.621215,-0.06614199999999999,0.775556
2018-10-16T22:40:39.606749Z,1.005121,-0.180254,0.965425
2018-10-16T22:40:39.790749Z,1.142411,-0.6595989999999999,-0.555496
2018-10-16T22:40:39.990749Z,1.331939,0.09171499999999999,-0.234767
2018-10-16T22:40:40.209749Z,0.586553,0.408881,0.8006479999999999
2018-10-16T22:40:40.404749Z,0.310488,-1.2116559999999998,0.41877700000000007
2018-10-16T22:40:40.605749Z,0.8622850000000001,-0.7812979999999999,-0.284534
2018-10-16T22:40:40.804749Z,0.308371,0.213256,0.44592
2018-10-16T22:40:41.004749Z,0.713978,-0.5578649999999999,1.071868
2018-10-16T22:40:41.209749Z,0.843363,-1.100905,0.064236
2018-10-16T22:40:41.400749Z,0.641795,-0.340061,-0.341901
2018-10-16T22:40:41.600749Z,0.128149,-0.048294,0.602564
2018-10-16T22:40:41.807749Z,-1.036793,-0.8645219999999999,0.669701
2018-10-16T22:40:42.006749Z,-0.40172800000000003,-0.665968,-0.606186
2018-10-16T22:40:42.206749Z,-0.147541,-0.234375,0.138631
2018-10-16T22:40:42.409749Z,0.8125479999999999,0.265495,0.142112
2018-10-16T22:40:42.603749Z,1.063223,-0.32269699999999996,0.820254
2018-10-16T22:40:42.792749Z,1.348806,-0.581322,-0.311948
2018-10-16T22:40:43.009749Z,0.43851899999999994,-0.036489,0.005469
2018-10-16T22:40:43.212749Z,0.8415469999999999,0.39679200000000003,0.00617
2018-10-16T22:40:43.410749Z,0.664194,0.11749000000000001,0.904109
2018-10-16T22:40:43.606749Z,0.8364590000000001,-1.039833,0.201077
2018-10-16T22:40:43.807749Z,0.8195600000000001,-0.426329,-0.509301
2018-10-16T22:40:44.005749Z,0.6866439999999999,0.12682100000000002,0.531738
2018-10-16T22:40:44.208749Z,0.932309,-0.284316,1.05789
2018-10-16T22:40:44.408749Z,2.0300830000000003,-0.959684,-0.100326
2018-10-16T22:40:44.606749Z,0.818817,-0.08452799999999999,-0.52494
2018-10-16T22:40:44.809749Z,0.6129439999999999,0.75737,0.80604
2018-10-16T22:40:45.004749Z,-0.006644,-0.94375,0.48065399999999997
2018-10-16T22:40:45.208749Z,0.5997020000000001,-0.530193,-0.515373
2018-10-16T22:40:45.412749Z,0.086175,0.253918,-0.23216199999999998
2018-10-16T22:40:45.604749Z,0.622765,0.271216,0.7082470000000001
2018-10-16T22:40:45.811749Z,0.546161,-1.284943,0.6896100000000001
2018-10-16T22:40:46.017749Z,0.443248,-0.544553,-1.015617
2018-10-16T22:40:46.208749Z,0.6051380000000001,0.424874,0.992087
2018-10-16T22:40:46.395749Z,-0.152561,-1.171072,1.494285
2018-10-16T22:40:46.609749Z,1.367402,-1.206443,-0.17876199999999998
2018-10-16T22:40:46.811749Z,0.762538,-0.305707,-0.749796
2018-10-16T22:40:47.021749Z,0.334986,0.49446599999999996,0.372771
2018-10-16T22:40:47.215749Z,0.051911,-0.542801,1.615944
2018-10-16T22:40:47.414749Z,0.47911800000000004,-1.661284,-0.191114
2018-10-16T22:40:47.610749Z,0.71421,-0.945558,0.01349
2018-10-16T22:40:47.813749Z,-0.29344499999999996,-0.171421,0.40836
2018-10-16T22:40:48.015749Z,-0.11713699999999999,-0.471812,1.043759
2018-10-16T22:40:48.210749Z,-1.172279,-0.756245,-0.286672
2018-10-16T22:40:48.411749Z,-0.481716,-0.222927,-0.304175
2018-10-16T22:40:48.610749Z,-0.8900129999999999,0.002527,0.567581
2018-10-16T22:40:48.812749Z,-1.088156,-1.1697620000000002,0.562826
2018-10-16T22:40:49.010749Z,-0.6754640000000001,-0.175128,-1.0117399999999999
2018-10-16T22:40:49.215749Z,0.199515,0.629246,-0.089121
2018-10-16T22:40:49.415749Z,0.391959,0.978196,0.989922
2018-10-16T22:40:49.615749Z,-0.423023,-0.545046,0.969685
2018-10-16T22:40:49.817749Z,-0.071796,-1.015314,-0.692297
2018-10-16T22:40:50.009749Z,0.192779,0.323866,-0.536539
2018-10-16T22:40:50.217749Z,-0.5594180000000001,0.515413,0.7644270000000001
2018-10-16T22:40:50.413749Z,-0.36321,-1.194621,0.395131
2018-10-16T22:40:50.613749Z,0.207882,-0.79591,-0.22155
2018-10-16T22:40:50.813749Z,0.11281500000000001,-0.102047,-0.007764
2018-10-16T22:40:51.011749Z,0.629278,0.404059,0.44660900000000003
2018-10-16T22:40:51.198749Z,-0.200663,-0.5881109999999999,0.296051
2018-10-16T22:40:51.407749Z,0.644239,-0.17164200000000002,-0.9143450000000001
2018-10-16T22:40:51.618749Z,0.538441,0.190776,0.346204
2018-10-16T22:40:51.799749Z,1.6759169999999999,0.028073,0.992707
2018-10-16T22:40:52.044749Z,1.394172,-0.924061,0.297063
2018-10-16T22:40:52.211749Z,1.356767,-0.6159439999999999,0.014828999999999998
2018-10-16T22:40:52.409749Z,1.6544599999999998,0.07786699999999999,0.198419
2018-10-16T22:40:52.609749Z,1.85044,-1.127992,1.309742
2018-10-16T22:40:52.810749Z,1.005433,-0.9247209999999999,-0.042776999999999996
2018-10-16T22:40:52.998749Z,0.512077,-1.142153,1.398787
2018-10-16T22:40:53.215749Z,-0.07613400000000001,-0.274515,-0.791399
2018-10-16T22:40:53.418749Z,0.526985,-0.817399,0.89999
2018-10-16T22:40:53.617749Z,0.628514,-1.23367,-0.283184
2018-10-16T22:40:53.819749Z,0.053266999999999995,0.369348,-0.6229680000000001
2018-10-16T22:40:54.016749Z,-0.48593800000000004,0.877984,1.1860760000000001
2018-10-16T22:40:54.216749Z,0.389166,-1.365609,1.867546
2018-10-16T22:40:54.400749Z,-0.11297,-1.2366059999999999,-0.808566
2018-10-16T22:40:54.599749Z,-0.059927,-0.46743199999999996,-0.554871
2018-10-16T22:40:54.811749Z,-0.189368,0.393432,-0.11176300000000002
2018-10-16T22:40:55.017749Z,-1.9889459999999999,-0.82239,1.765486
2018-10-16T22:40:55.201749Z,-1.652497,-1.387364,-0.16181500000000001
2018-10-16T22:40:55.415749Z,-1.3937899999999999,-0.590757,-0.84316
2018-10-16T22:40:55.621749Z,0.6240180000000001,0.409499,0.191874
2018-10-16T22:40:55.801749Z,1.045998,-0.431137,1.931184
2018-10-16T22:40:56.019749Z,0.633205,-1.232636,-0.306836
2018-10-16T22:40:56.244749Z,1.069268,-0.43541499999999994,-0.067815
2018-10-16T22:40:56.411749Z,0.280504,1.160069,-0.673624
2018-10-16T22:40:56.616749Z,0.8253950000000001,0.074088,0.8514729999999999
2018-10-16T22:40:56.817749Z,1.1433309999999999,-0.836109,-0.486232
2018-10-16T22:40:57.032749Z,1.111564,0.073063,-0.145956
2018-10-16T22:40:57.220749Z,0.694181,0.522989,0.318256
2018-10-16T22:40:57.420749Z,0.763548,-0.384964,1.480332
2018-10-16T22:40:57.654749Z,1.219035,-1.1628889999999998,0.258939
2018-10-16T22:40:57.908749Z,1.911344,-0.560875,-0.9020309999999999
2018-10-16T22:40:58.037749Z,0.385646,0.41852700000000004,-0.043425
2018-10-16T22:40:58.243749Z,0.762234,-1.077576,1.871441
2018-10-16T22:40:58.442749Z,0.48023599999999994,-1.5685719999999999,0.132216
2018-10-16T22:40:58.644749Z,0.304073,-0.5263329999999999,-0.003932
2018-10-16T22:40:58.879749Z,0.14082999999999998,0.35155,0.064261
2018-10-16T22:40:59.044749Z,-0.52918,0.43205600000000005,1.345572
2018-10-16T22:40:59.270749Z,-0.278171,-1.838237,0.49226800000000004
2018-10-16T22:40:59.414749Z,0.06525800000000001,-0.806525,-0.411387
2018-10-16T22:40:59.623749Z,0.17435,-0.594743,-0.118546
2018-10-16T22:40:59.838749Z,-0.6979380000000001,-0.338727,0.578427
2018-10-16T22:41:00.020749Z,0.45195799999999997,-0.9641850000000001,0.748257
2018-10-16T22:41:00.221749Z,-0.013769,-0.754803,-0.446246
2018-10-16T22:41:00.417749Z,0.06691799999999999,0.197961,-0.094625
2018-10-16T22:41:00.623749Z,0.47594899999999996,0.139516,0.075556
2018-10-16T22:41:00.825749Z,0.002242,0.34823200000000004,1.345665
2018-10-16T22:41:01.022749Z,-0.059508000000000005,-1.124766,0.36699
2018-10-16T22:41:01.217749Z,-0.222084,-1.232848,-0.21935100000000002
2018-10-16T22:41:01.418749Z,0.035883,-0.049937999999999996,-0.37233499999999997
2018-10-16T22:41:01.605749Z,0.48587700000000006,-0.153901,0.632674
2018-10-16T22:41:01.819749Z,0.8764620000000001,-1.095528,0.18623499999999998
2018-10-16T22:41:02.005749Z,0.90954,-0.633798,-0.006829000000000001
2018-10-16T22:41:02.227749Z,0.5487850000000001,0.264832,-0.015934
2018-10-16T22:41:02.425749Z,-0.18181,0.02204,1.05521
2018-10-16T22:41:02.623749Z,0.122749,-1.614355,0.606908
2018-10-16T22:41:02.825749Z,0.22218200000000002,-0.6232300000000001,-0.39295
2018-10-16T22:41:03.056749Z,0.282727,-0.257681,0.11149400000000001
2018-10-16T22:41:03.215749Z,-0.28068200000000004,0.35446700000000003,0.47448199999999996
2018-10-16T22:41:03.421749Z,0.054453999999999995,-1.1096700000000002,0.52746
2018-10-16T22:41:03.607749Z,0.098521,-0.879705,-0.241073
2018-10-16T22:41:03.821749Z,-0.023548,-0.017108,-0.370863
2018-10-16T22:41:04.012749Z,0.294249,0.46816599999999997,0.509552
2018-10-16T22:41:04.219749Z,-0.373449,-0.97505,1.174089
2018-10-16T22:41:04.407749Z,-1.551393,-0.743805,-0.8504430000000001
2018-10-16T22:41:04.621749Z,-0.698868,-0.31396399999999997,-0.24500500000000003
2018-10-16T22:41:04.807749Z,-1.407749,0.037670999999999996,0.475492
2018-10-16T22:41:05.022749Z,-2.207747,-1.012271,1.063515
2018-10-16T22:41:05.208749Z,-1.518071,-1.913368,0.233514
2018-10-16T22:41:05.424749Z,0.06805800000000001,-0.79513,-0.254709
2018-10-16T22:41:05.627749Z,0.863028,-0.182768,0.607463
2018-10-16T22:41:05.826749Z,0.837952,-0.430411,1.32951
2018-10-16T22:41:06.010749Z,1.122631,-1.20075,-0.143785
2018-10-16T22:41:06.227749Z,1.25076,-0.151836,-0.711001
2018-10-16T22:41:06.427749Z,0.725259,0.194699,0.7364350000000001
2018-10-16T22:41:06.628749Z,1.3705049999999999,-0.633405,0.611251
2018-10-16T22:41:06.809749Z,1.494617,-0.326654,-0.843147
2018-10-16T22:41:07.024749Z,1.7327110000000001,0.26820700000000003,-0.434812
2018-10-16T22:41:07.222749Z,0.587629,1.2712350000000001,0.284197
2018-10-16T22:41:07.424749Z,-0.079101,-0.87235,1.450407
2018-10-16T22:41:07.620749Z,0.962717,-0.873064,-0.9388690000000001
2018-10-16T22:41:07.825749Z,1.028337,0.383098,-0.121616
2018-10-16T22:41:08.023749Z,0.257342,0.129102,0.9036870000000001
2018-10-16T22:41:08.225749Z,1.135644,-1.193414,0.152396
2018-10-16T22:41:08.422749Z,0.8138310000000001,-0.28622600000000004,-0.7430399999999999
2018-10-16T22:41:08.625749Z,0.084288,0.603889,1.122235
2018-10-16T22:41:08.828749Z,-0.12769,-0.5262479999999999,1.012355
2018-10-16T22:41:09.024749Z,0.16603199999999999,-1.042244,-1.385772
2018-10-16T22:41:09.225749Z,0.203329,0.032113,-0.532086
2018-10-16T22:41:09.425749Z,0.124174,1.183537,1.172995
2018-10-16T22:41:09.630749Z,0.7273189999999999,-0.925961,0.953405
2018-10-16T22:41:09.829749Z,0.655225,-0.8329030000000001,-1.2959829999999999
2018-10-16T22:41:10.021749Z,-0.343529,0.13234200000000002,0.252137
2018-10-16T22:41:10.212749Z,-0.706651,0.238317,0.810713
2018-10-16T22:41:10.429749Z,-0.16738599999999998,-0.71191,-0.33064699999999997
2018-10-16T22:41:10.624749Z,-0.8499540000000001,0.311198,-0.808292
2018-10-16T22:41:10.823749Z,-0.08387,0.9681770000000001,0.597885
2018-10-16T22:41:11.023749Z,0.754786,-0.6237560000000001,0.506817
2018-10-16T22:41:11.228749Z,0.142508,-0.525045,-0.7786930000000001
2018-10-16T22:41:11.431749Z,-0.018288,0.650401,0.034163
2018-10-16T22:41:11.630749Z,-0.527328,-0.587672,1.321979
2018-10-16T22:41:11.831749Z,-0.43533299999999997,-0.669132,-0.539944
2018-10-16T22:41:12.050749Z,0.084488,0.280132,-0.41420799999999997
2018-10-16T22:41:12.229749Z,-0.9668680000000001,0.821966,0.685083
2018-10-16T22:41:12.429749Z,0.055836000000000004,-0.9923649999999999,-0.237179
2018-10-16T22:41:12.625749Z,-0.23959299999999997,0.117245,-0.5967060000000001
2018-10-16T22:41:12.829749Z,0.622213,0.276331,0.747448
2018-10-16T22:41:13.027749Z,0.09149299999999999,-0.001111,0.41166
2018-10-16T22:41:13.231749Z,0.798346,-0.366858,-0.8351059999999999
2018-10-16T22:41:13.415749Z,0.7095819999999999,0.21072399999999997,-0.497909
2018-10-16T22:41:13.627749Z,0.234342,1.591541,0.10366700000000001
2018-10-16T22:41:13.814749Z,1.3541729999999998,-0.222987,0.970125
2018-10-16T22:41:14.014749Z,1.521152,-0.788558,-0.907956
2018-10-16T22:41:14.214749Z,0.9998950000000001,0.229762,-0.049280000000000004
2018-10-16T22:41:14.429749Z,-0.526243,0.45484600000000003,1.140842
2018-10-16T22:41:14.615749Z,-0.171632,-1.284769,-0.194304
2018-10-16T22:41:14.831749Z,-0.129298,-0.190691,-0.965672
2018-10-16T22:41:15.025749Z,0.12806900000000002,1.0382790000000002,0.19580799999999998
2018-10-16T22:41:15.215749Z,0.11581300000000001,-0.494792,1.457554
2018-10-16T22:41:15.430749Z,-0.052711,-0.7081149999999999,-1.160591
2018-10-16T22:41:15.630749Z,-0.21516999999999997,0.188324,-0.197168
2018-10-16T22:41:15.832749Z,-0.30241599999999996,0.482918,0.935009
2018-10-16T22:41:16.037749Z,-0.6840390000000001,-0.9199870000000001,0.10919100000000001
2018-10-16T22:41:16.233749Z,-0.012708,-0.073306,-1.0457319999999999
2018-10-16T22:41:16.416749Z,-0.03898,0.810519,1.034289
2018-10-16T22:41:16.633749Z,0.521091,-0.835791,0.23924
2018-10-16T22:41:16.830749Z,0.026481,-0.356138,-1.120968
2018-10-16T22:41:17.033749Z,-1.099733,0.8398040000000001,0.006441
2018-10-16T22:41:17.305749Z,-1.095769,-0.15750699999999998,1.807986
2018-10-16T22:41:17.430749Z,-1.790272,-1.001571,-0.28457899999999997
2018-10-16T22:41:17.637749Z,-0.9408559999999999,-0.15673800000000002,-0.583356
2018-10-16T22:41:17.831749Z,0.25943499999999997,0.986928,0.22143400000000002
2018-10-16T22:41:18.031749Z,-0.089738,-0.167704,-0.185173
2018-10-16T22:41:18.234749Z,0.972728,-0.12580999999999998,-0.729893
2018-10-16T22:41:18.436749Z,0.849524,1.230297,0.022803999999999998
2018-10-16T22:41:18.636749Z,0.609536,0.560924,1.571669
2018-10-16T22:41:18.834749Z,0.9244180000000001,-1.2348379999999999,-0.6630699999999999
2018-10-16T22:41:19.034749Z,0.193384,0.15185099999999999,-1.284404
2018-10-16T22:41:19.242749Z,0.6742819999999999,1.084625,1.08588
2018-10-16T22:41:19.438749Z,0.71617,-1.060633,0.661459
2018-10-16T22:41:19.634749Z,1.162807,-0.645845,-1.190963
2018-10-16T22:41:19.833749Z,0.936792,0.498112,1.091148
2018-10-16T22:41:20.019749Z,-0.100097,-0.483984,0.705383
2018-10-16T22:41:20.229749Z,0.605201,-0.444942,-1.4939790000000002
2018-10-16T22:41:20.433749Z,0.394611,1.031839,0.36081599999999997
2018-10-16T22:41:20.635749Z,0.407767,-0.286937,0.831041
2018-10-16T22:41:20.833749Z,0.734887,-0.528644,-1.141681
2018-10-16T22:41:21.037749Z,0.5666899999999999,0.433825,0.441784
2018-10-16T22:41:21.238749Z,-0.462363,-0.21276199999999998,0.978701
2018-10-16T22:41:21.435749Z,0.7944899999999999,-0.66198,-0.533602
2018-10-16T22:41:21.634749Z,0.11166199999999998,0.7130850000000001,-1.112741
2018-10-16T22:41:21.837749Z,-0.072007,0.736096,1.796259
2018-10-16T22:41:22.056749Z,0.400805,-1.214099,-0.45141499999999996
2018-10-16T22:41:22.223749Z,0.389488,-0.260337,-0.8875200000000001
2018-10-16T22:41:22.452749Z,-0.38559699999999997,0.8271719999999999,1.026834
2018-10-16T22:41:22.621749Z,-0.00563,-0.205783,0.251388
2018-10-16T22:41:22.828749Z,0.101717,-0.701567,-0.919466
2018-10-16T22:41:23.021749Z,-0.08043,0.486087,0.490541
2018-10-16T22:41:23.222749Z,0.140663,-0.43322,0.731533
2018-10-16T22:41:23.431749Z,-0.086452,-0.686574,-1.1843139999999999
2018-10-16T22:41:23.634749Z,-1.184183,0.558203,0.030275999999999997
2018-10-16T22:41:23.821749Z,-0.9131360000000001,-0.29133000000000003,0.8703989999999999
2018-10-16T22:41:24.038749Z,0.289568,-0.8988659999999999,-0.707075
2018-10-16T22:41:24.241749Z,0.8613149999999999,0.119729,0.49103900000000006
2018-10-16T22:41:24.442749Z,1.159967,0.033389999999999996,1.236019
2018-10-16T22:41:24.628749Z,1.4971780000000001,-0.571705,-0.948053
2018-10-16T22:41:24.841749Z,0.888793,0.305064,-0.190939
2018-10-16T22:41:25.024749Z,-0.194461,0.273075,1.6948919999999998
2018-10-16T22:41:25.231749Z,0.33321100000000003,-0.732951,-0.655597
2018-10-16T22:41:25.441749Z,1.538074,0.188894,-0.68329
2018-10-16T22:41:25.641749Z,0.934491,0.307874,1.985323
2018-10-16T22:41:25.835749Z,1.148973,-1.1955,-0.372053
2018-10-16T22:41:26.037749Z,0.700699,0.015394999999999999,-0.8639969999999999
2018-10-16T22:41:26.240749Z,0.25071,0.758649,1.2985719999999998
2018-10-16T22:41:26.441749Z,-0.541862,-0.786998,-0.013581999999999999
2018-10-16T22:41:26.624749Z,0.870609,-0.709159,-0.422548
2018-10-16T22:41:26.838749Z,0.109056,0.191052,1.236915
2018-10-16T22:41:27.103749Z,0.546316,-1.019886,0.828734
2018-10-16T22:41:27.264749Z,-0.088123,-0.172211,-2.093412
2018-10-16T22:41:27.466749Z,-0.335926,0.40436700000000003,0.7225050000000001
2018-10-16T22:41:27.663749Z,-1.372088,0.264781,0.520126
2018-10-16T22:41:27.993749Z,-0.4485,-0.49817700000000004,-0.758125
2018-10-16T22:41:28.032749Z,0.373173,0.21571700000000002,-0.32966100000000004
2018-10-16T22:41:28.261749Z,0.238539,0.20310599999999998,1.486297
2018-10-16T22:41:28.444749Z,1.3471030000000002,-0.947111,-0.42928299999999997
2018-10-16T22:41:28.642749Z,1.515885,-0.169231,-0.169296
2018-10-16T22:41:28.837749Z,1.155558,0.23374899999999998,1.415435
2018-10-16T22:41:29.040749Z,0.503019,-0.517246,0.5826020000000001
2018-10-16T22:41:29.240749Z,1.239276,-0.802111,-0.513994
2018-10-16T22:41:29.436749Z,0.6759029999999999,0.465822,0.30590900000000004
2018-10-16T22:41:29.641749Z,0.292532,-0.313237,1.300082
2018-10-16T22:41:29.826749Z,0.505911,-0.938973,-0.817032
2018-10-16T22:41:30.042749Z,0.030876,0.009881000000000001,0.36952399999999996
2018-10-16T22:41:30.312749Z,-0.603878,0.01174,0.780728
2018-10-16T22:41:30.436749Z,-1.212466,-0.658569,-0.776365
2018-10-16T22:41:30.670749Z,-1.8463900000000002,-0.248693,-0.34778400000000004
2018-10-16T22:41:30.841749Z,-1.254867,-0.631441,1.430413
2018-10-16T22:41:31.045749Z,-1.053772,-0.734516,-0.721934
2018-10-16T22:41:31.246749Z,0.500903,-0.15120999999999998,-0.132845
2018-10-16T22:41:31.439749Z,0.8504809999999999,0.36683899999999997,1.596684
2018-10-16T22:41:31.640749Z,0.795786,-0.987791,0.422288
