Datetime,accx,accy,accz
2018-09-27T02:58:18.271729Z,0.75,0.48,0.91
2018-09-27T02:58:18.416729Z,-0.32,-0.1,-0.38
2018-09-27T02:58:18.621729Z,-0.33,0.39,-0.87
2018-09-27T02:58:18.834729Z,0.26,0.3,1.72
2018-09-27T02:58:19.042729Z,-0.68,-0.89,-0.19
2018-09-27T02:58:19.255729Z,0.45,-0.11,1.67
2018-09-27T02:58:19.462729Z,0.16,0.76,0.6
2018-09-27T02:58:19.676729Z,0.43,0.58,0.05
2018-09-27T02:58:19.816729Z,0.5,-0.66,-1.52
2018-09-27T02:58:20.044729Z,0.3,0.94,0.21
2018-09-27T02:58:20.233729Z,-0.55,-0.02,0.09
2018-09-27T02:58:20.443729Z,0.12,1.4,-2.2
2018-09-27T02:58:20.669729Z,-0.2,-1.2,0.37
2018-09-27T02:58:20.802729Z,0.81,0.59,0.88
2018-09-27T02:58:21.014729Z,0.69,0.23,-1.83
2018-09-27T02:58:21.223729Z,-0.02,0.02,0.49
2018-09-27T02:58:21.439729Z,0.04,0.34,-0.03
2018-09-27T02:58:21.647729Z,-0.42,-0.65,0.12
2018-09-27T02:58:21.854729Z,-0.18,0.66,0.06
2018-09-27T02:58:21.994729Z,-0.75,-1.02,0.23
2018-09-27T02:58:22.206729Z,0.22,-0.36,-0.52
2018-09-27T02:58:22.416729Z,0.4,0.98,1.71
2018-09-27T02:58:22.627729Z,0.12,1.01,2.39
2018-09-27T02:58:22.836729Z,1.15,0.29,0.42
2018-09-27T02:58:23.043729Z,0.93,1.07,0.46
2018-09-27T02:58:23.253729Z,-0.71,0.15,2.4
2018-09-27T02:58:23.394729Z,-0.1,-0.86,-2.52
2018-09-27T02:58:23.601729Z,-0.24,-0.39,0.7
2018-09-27T02:58:23.819729Z,0.67,-0.44,0.48
2018-09-27T02:58:24.023729Z,0.64,0.94,-0.43
2018-09-27T02:58:24.233729Z,0.0,0.42,0.95
2018-09-27T02:58:24.376729Z,-0.65,-0.71,-0.97
2018-09-27T02:58:24.593729Z,0.32,0.12,0.51
2018-09-27T02:58:24.793729Z,0.22,-0.15,-0.28
2018-09-27T02:58:25.006729Z,-0.01,0.44,0.61
2018-09-27T02:58:25.214729Z,-0.01,0.2,-0.61
2018-09-27T02:58:25.425729Z,0.32,0.22,1.26
2018-09-27T02:58:25.637729Z,-0.93,-1.88,-1.78
2018-09-27T02:58:25.775729Z,-0.27,-0.04,0.12
2018-09-27T02:58:25.989729Z,0.34,0.24,0.6
2018-09-27T02:58:26.192729Z,0.16,0.06,-0.25
2018-09-27T02:58:26.412729Z,-0.22,-0.1,-1.88
2018-09-27T02:58:26.615729Z,-0.98,0.45,-3.96
2018-09-27T02:58:26.754729Z,0.36,1.05,-0.1
2018-09-27T02:58:26.979729Z,-0.11,-1.14,1.84
2018-09-27T02:58:27.176729Z,-0.86,1.42,-5.93
2018-09-27T02:58:27.382729Z,-0.78,-0.81,-2.37
2018-09-27T02:58:27.594729Z,0.07,0.21,1.48
2018-09-27T02:58:27.804729Z,0.54,0.85,1.02
2018-09-27T02:58:27.949729Z,-0.19,-0.39,0.0
2018-09-27T02:58:28.162729Z,1.06,0.25,-1.26
2018-09-27T02:58:28.365729Z,0.32,1.53,2.02
2018-09-27T02:58:28.579729Z,0.1,-1.8,-2.38
2018-09-27T02:58:28.784729Z,-0.04,-0.88,1.16
2018-09-27T02:58:28.999729Z,-0.43,0.66,-0.2
2018-09-27T02:58:29.134729Z,0.28,-0.13,-0.22
2018-09-27T02:58:29.343729Z,-0.84,-0.31,0.69
2018-09-27T02:58:29.555729Z,-1.25,0.96,3.93
2018-09-27T02:58:29.764729Z,0.96,0.15,-1.47
2018-09-27T02:58:29.973729Z,-3.21,-2.85,-2.27
2018-09-27T02:58:30.184729Z,-0.24,-0.52,-1.09
2018-09-27T02:58:30.323729Z,-1.69,-0.07,-1.01
2018-09-27T02:58:30.542729Z,2.26,1.46,3.39
2018-09-27T02:58:30.744729Z,-12.71,-4.6,-4.55
2018-09-27T02:58:30.959729Z,-1.36,-1.86,-5.56
2018-09-27T02:58:31.164729Z,2.28,4.15,6.27
2018-09-27T02:58:31.375729Z,-1.38,-1.43,-0.25
2018-09-27T02:58:31.520729Z,0.34,1.26,-2.1
2018-09-27T02:58:31.724729Z,0.89,-0.59,0.73
2018-09-27T02:58:31.933729Z,-0.45,0.57,1.15
2018-09-27T02:58:32.145729Z,0.45,1.38,-0.72
2018-09-27T02:58:32.351729Z,0.03,-0.42,-0.1
2018-09-27T02:58:32.564729Z,0.24,0.08,-0.86
2018-09-27T02:58:32.775729Z,-0.99,0.52,1.89
2018-09-27T02:58:32.916729Z,0.49,-0.64,-0.49
2018-09-27T02:58:33.124729Z,0.29,-0.47,-0.57
2018-09-27T02:58:33.342729Z,-0.68,0.39,0.79
2018-09-27T02:58:33.546729Z,0.29,-0.28,-0.48
2018-09-27T02:58:33.758729Z,-1.08,-1.18,1.09
2018-09-27T02:58:33.902729Z,-0.16,0.05,0.01
2018-09-27T02:58:34.123729Z,-0.09,0.34,0.0
2018-09-27T02:58:34.317729Z,0.44,0.26,-2.06
2018-09-27T02:58:34.523729Z,-0.72,-0.63,0.81
2018-09-27T02:58:34.735729Z,0.9,-0.52,1.55
2018-09-27T02:58:34.945729Z,-0.41,0.07,-0.88
2018-09-27T02:58:35.155729Z,0.32,0.56,-0.1
2018-09-27T02:58:35.294729Z,0.16,0.0,0.5
2018-09-27T02:58:35.521729Z,-0.44,-1.01,0.34
2018-09-27T02:58:35.719729Z,-0.17,0.27,0.18
2018-09-27T02:58:35.932729Z,0.15,0.36,-0.75
2018-09-27T02:58:36.134729Z,0.53,-0.21,0.27
2018-09-27T02:58:36.344729Z,-0.2,0.38,0.09
2018-09-27T02:58:36.492729Z,-0.79,-0.5,-0.5
2018-09-27T02:58:36.693729Z,1.31,-0.5,0.71
2018-09-27T02:58:36.907729Z,-0.64,0.3,1.47
2018-09-27T02:58:37.113729Z,0.0,0.46,-0.11
2018-09-27T02:58:37.324729Z,0.57,0.09,-0.96
2018-09-27T02:58:37.534729Z,-0.62,-0.2,1.71
2018-09-27T02:58:37.681729Z,0.29,0.27,0.2
2018-09-27T02:58:37.891729Z,0.01,0.66,0.09
2018-09-27T02:58:38.093729Z,0.13,0.1,-0.62
2018-09-27T02:58:38.303729Z,-0.09,-0.56,-2.55
2018-09-27T02:58:38.511729Z,-0.06,-0.16,0.9
2018-09-27T02:58:38.653729Z,0.17,0.06,-0.82
2018-09-27T02:58:38.864729Z,-0.43,0.37,-0.74
2018-09-27T02:58:39.075729Z,0.31,-0.06,0.24
2018-09-27T02:58:39.282729Z,-0.52,-0.49,0.24
2018-09-27T02:58:39.494729Z,0.5,-0.44,0.98
2018-09-27T02:58:39.704729Z,-0.71,0.64,-1.28
2018-09-27T02:58:39.913729Z,0.09,0.74,-0.51
2018-09-27T02:58:40.058729Z,0.02,0.39,-0.12
2018-09-27T02:58:40.267729Z,1.25,-0.23,1.7
2018-09-27T02:58:40.472729Z,-0.3,0.88,0.55
2018-09-27T02:58:40.682729Z,-0.38,0.07,-0.33
2018-09-27T02:58:40.901729Z,0.01,0.17,0.66
2018-09-27T02:58:41.109729Z,-0.39,-1.88,0.4
2018-09-27T02:58:41.247729Z,0.31,0.74,-1.3
2018-09-27T02:58:41.454729Z,0.37,1.14,1.85
2018-09-27T02:58:41.668729Z,0.38,0.0,1.74
2018-09-27T02:58:41.874729Z,0.18,-0.58,-0.14
2018-09-27T02:58:42.085729Z,-0.27,0.89,0.4
2018-09-27T02:58:42.296729Z,0.0,-0.46,0.44
2018-09-27T02:58:42.453729Z,-0.53,-1.06,-3.33
2018-09-27T02:58:42.642729Z,0.04,0.18,-1.77
2018-09-27T02:58:42.866729Z,0.07,0.14,-0.03
2018-09-27T02:58:43.064729Z,-0.56,0.22,0.66
2018-09-27T02:58:43.271729Z,0.28,-1.03,-2.67
2018-09-27T02:58:43.420729Z,-1.0,0.27,-0.63
2018-09-27T02:58:43.625729Z,0.54,0.44,0.04
2018-09-27T02:58:43.836729Z,-0.13,-0.88,0.12
2018-09-27T02:58:44.041729Z,-0.16,-0.02,1.17
2018-09-27T02:58:44.254729Z,-0.13,1.05,0.62
2018-09-27T02:58:44.465729Z,0.65,0.25,-0.21
2018-09-27T02:58:44.605729Z,-0.09,-1.45,-0.17
2018-09-27T02:58:44.816729Z,-0.9,0.33,-1.16
2018-09-27T02:58:45.021729Z,0.12,0.56,-0.15
2018-09-27T02:58:45.236729Z,0.82,0.16,-0.05
2018-09-27T02:58:45.444729Z,0.0,-1.58,-2.11
2018-09-27T02:58:45.654729Z,-0.28,-0.06,-0.26
2018-09-27T02:58:45.863729Z,0.28,0.51,-0.93
2018-09-27T02:58:46.002729Z,-0.46,0.32,0.34
2018-09-27T02:58:46.212729Z,0.26,-0.18,-1.09
2018-09-27T02:58:46.430729Z,0.17,0.55,-0.29
2018-09-27T02:58:46.633729Z,0.89,1.47,0.67
2018-09-27T02:58:46.843729Z,-0.89,-0.43,-0.63
2018-09-27T02:58:46.981729Z,0.41,-0.11,0.3
2018-09-27T02:58:47.200729Z,-0.22,-0.58,0.95
2018-09-27T02:58:47.411729Z,0.98,-0.56,-1.42
2018-09-27T02:58:47.625729Z,-0.75,0.86,-0.39
2018-09-27T02:58:47.826729Z,-0.4,0.55,-0.25
2018-09-27T02:58:48.041729Z,0.29,-1.82,2.66
2018-09-27T02:58:48.178729Z,-0.59,-0.63,-1.34
2018-09-27T02:58:48.390729Z,-0.09,0.55,1.38
2018-09-27T02:58:48.601729Z,0.22,0.47,-0.78
2018-09-27T02:58:48.805729Z,-0.72,-0.06,1.54
2018-09-27T02:58:49.014729Z,0.81,-0.7,-0.39
2018-09-27T02:58:49.224729Z,0.0,-0.45,-2.34
2018-09-27T02:58:49.371729Z,0.03,0.43,0.64
2018-09-27T02:58:49.579729Z,0.42,0.63,1.49
2018-09-27T02:58:49.782729Z,-0.55,-0.71,2.34
2018-09-27T02:58:49.998729Z,0.41,0.66,-1.93
2018-09-27T02:58:50.203729Z,1.22,1.21,0.48
2018-09-27T02:58:50.414729Z,-0.76,-0.21,-1.31
2018-09-27T02:58:50.624729Z,-0.58,-0.43,0.3
2018-09-27T02:58:50.763729Z,0.99,-0.3,0.09
2018-09-27T02:58:50.976729Z,-1.35,0.41,0.26
2018-09-27T02:58:51.184729Z,0.42,0.25,-0.55
2018-09-27T02:58:51.395729Z,0.92,-0.44,-1.56
2018-09-27T02:58:51.606729Z,-0.71,0.54,-1.02
2018-09-27T02:58:51.745729Z,0.08,0.58,0.18
2018-09-27T02:58:51.955729Z,0.27,0.3,0.73
2018-09-27T02:58:52.162729Z,-1.22,-1.24,-4.75
2018-09-27T02:58:52.370729Z,-0.9,-0.97,-0.66
2018-09-27T02:58:52.582729Z,0.33,0.82,-0.52
2018-09-27T02:58:52.793729Z,0.59,-0.04,0.78
2018-09-27T02:58:52.933729Z,-0.46,-0.06,-0.68
2018-09-27T02:58:53.151729Z,-0.12,-0.8,1.5
2018-09-27T02:58:53.354729Z,-0.88,-0.65,-0.77
2018-09-27T02:58:53.563729Z,0.33,0.91,0.11
2018-09-27T02:58:53.778729Z,-0.17,0.02,0.72
2018-09-27T02:58:53.985729Z,-0.43,-1.41,2.59
2018-09-27T02:58:54.127729Z,0.13,0.05,2.67
2018-09-27T02:58:54.344729Z,0.1,1.14,0.65
2018-09-27T02:58:54.543729Z,-0.02,0.09,-0.95
2018-09-27T02:58:54.756729Z,1.77,1.46,1.83
2018-09-27T02:58:54.965729Z,0.76,-0.35,-0.14
2018-09-27T02:58:55.172729Z,-0.75,0.59,0.23
2018-09-27T02:58:55.385729Z,0.54,0.63,1.16
2018-09-27T02:58:55.525729Z,-0.01,0.15,-0.65
2018-09-27T02:58:55.745729Z,-1.27,-0.18,2.13
2018-09-27T02:58:55.940729Z,0.45,0.2,-0.56
2018-09-27T02:58:56.153729Z,0.05,0.32,-0.76
2018-09-27T02:58:56.362729Z,-0.02,0.35,-1.08
2018-09-27T02:58:56.502729Z,-0.35,0.44,0.55
2018-09-27T02:58:56.715729Z,-0.4,-0.84,0.64
2018-09-27T02:58:56.922729Z,0.27,0.99,0.42
2018-09-27T02:58:57.133729Z,-0.57,-0.57,-0.7
2018-09-27T02:58:57.342729Z,-0.23,-1.02,0.24
2018-09-27T02:58:57.563729Z,-0.08,-0.37,1.03
2018-09-27T02:58:57.703729Z,0.64,1.4,-0.14
2018-09-27T02:58:57.913729Z,-0.32,-0.34,-0.58
2018-09-27T02:58:58.122729Z,0.36,1.02,-0.82
2018-09-27T02:58:58.332729Z,-0.66,-1.51,-1.2
2018-09-27T02:58:58.582729Z,-0.53,-0.18,-0.61
2018-09-27T02:58:58.763729Z,0.19,0.24,0.21
2018-09-27T02:58:58.893729Z,0.59,0.31,-0.07
2018-09-27T02:58:59.105729Z,-0.44,0.25,1.07
2018-09-27T02:58:59.322729Z,0.59,0.34,-2.17
2018-09-27T02:58:59.525729Z,0.46,0.88,-0.04
2018-09-27T02:58:59.734729Z,-0.56,-0.4,0.5
2018-09-27T02:58:59.945729Z,0.2,-0.19,1.57
2018-09-27T02:59:00.086729Z,0.05,-0.25,0.74
2018-09-27T02:59:00.296729Z,-0.29,-0.56,0.14
2018-09-27T02:59:00.506729Z,-0.14,0.49,0.01
2018-09-27T02:59:00.720729Z,0.07,0.47,0.47
2018-09-27T02:59:00.931729Z,-0.29,-0.93,-0.21
2018-09-27T02:59:01.134729Z,-0.07,-0.22,-0.6
2018-09-27T02:59:01.283729Z,-0.45,0.01,1.6
2018-09-27T02:59:01.488729Z,-0.61,0.07,-0.91
2018-09-27T02:59:01.691729Z,0.01,0.53,-0.25
2018-09-27T02:59:01.902729Z,0.02,0.28,-0.36
2018-09-27T02:59:02.114729Z,-0.96,-1.56,0.23
2018-09-27T02:59:02.258729Z,-0.93,-1.29,0.97
2018-09-27T02:59:02.462729Z,1.38,1.11,-0.39
2018-09-27T02:59:02.671729Z,-0.31,0.17,-0.6
2018-09-27T02:59:02.889729Z,0.07,0.58,0.45
2018-09-27T02:59:03.093729Z,0.18,0.42,-0.72
2018-09-27T02:59:03.306729Z,-0.12,-0.46,1.23
2018-09-27T02:59:03.445729Z,0.21,0.55,-0.83
2018-09-27T02:59:03.661729Z,0.0,1.4,0.16
2018-09-27T02:59:03.870729Z,0.05,-1.04,-0.35
2018-09-27T02:59:04.072729Z,0.13,0.71,-0.06
2018-09-27T02:59:04.291729Z,0.18,0.56,-0.3
2018-09-27T02:59:04.500729Z,-0.07,-0.21,-0.98
2018-09-27T02:59:04.641729Z,-0.27,-1.03,-0.51
2018-09-27T02:59:04.845729Z,-0.62,0.58,-0.69
2018-09-27T02:59:05.053729Z,0.17,-0.34,0.41
2018-09-27T02:59:05.272729Z,-0.46,-0.01,-1.41
2018-09-27T02:59:05.476729Z,0.17,-0.02,0.34
2018-09-27T02:59:05.682729Z,-0.06,-0.46,-1.29
2018-09-27T02:59:05.828729Z,0.28,0.59,-0.19
2018-09-27T02:59:06.045729Z,-0.14,-0.31,0.27
2018-09-27T02:59:06.242729Z,0.46,-0.59,1.45
2018-09-27T02:59:06.451729Z,0.44,-1.38,2.82
2018-09-27T02:59:06.669729Z,-0.48,-0.03,-0.9
2018-09-27T02:59:06.873729Z,0.41,0.39,0.43
2018-09-27T02:59:07.085729Z,0.37,-0.17,0.73
2018-09-27T02:59:07.225729Z,-0.35,0.25,-0.4
2018-09-27T02:59:07.434729Z,0.18,0.6,-0.9
2018-09-27T02:59:07.645729Z,-1.09,-2.1,-1.0
2018-09-27T02:59:07.854729Z,-0.11,-1.08,0.02
2018-09-27T02:59:08.066729Z,0.39,0.94,0.5
2018-09-27T02:59:08.286729Z,-0.95,0.68,-0.72
2018-09-27T02:59:08.413729Z,0.55,-1.46,-2.96
2018-09-27T02:59:08.623729Z,0.04,1.29,0.14
2018-09-27T02:59:08.837729Z,-0.45,0.51,-0.4
2018-09-27T02:59:09.047729Z,0.21,-0.24,-0.56
2018-09-27T02:59:09.255729Z,-1.72,-2.35,0.62
2018-09-27T02:59:09.462729Z,0.24,0.01,-1.37
2018-09-27T02:59:09.602729Z,0.5,0.38,-0.3
2018-09-27T02:59:09.817729Z,-0.01,0.33,-1.21
2018-09-27T02:59:10.024729Z,-0.92,-0.23,-0.36
2018-09-27T02:59:10.232729Z,0.96,0.14,1.63
2018-09-27T02:59:10.445729Z,-0.05,-0.04,0.02
2018-09-27T02:59:10.654729Z,0.84,0.74,1.14
2018-09-27T02:59:10.794729Z,-0.09,0.88,-0.79
2018-09-27T02:59:11.003729Z,0.07,0.15,0.36
2018-09-27T02:59:11.214729Z,0.46,-0.16,0.79
2018-09-27T02:59:11.424729Z,0.06,0.15,-0.24
2018-09-27T02:59:11.635729Z,0.53,0.44,1.22
2018-09-27T02:59:11.779729Z,-0.35,0.08,0.81
2018-09-27T02:59:11.985729Z,-1.18,-1.08,-2.92
2018-09-27T02:59:12.194729Z,0.39,0.51,-0.64
2018-09-27T02:59:12.408729Z,0.29,0.37,-0.27
2018-09-27T02:59:12.621729Z,-0.01,-1.15,2.75
2018-09-27T02:59:12.764729Z,-0.64,0.0,-1.0
2018-09-27T02:59:12.974729Z,0.17,0.45,0.02
2018-09-27T02:59:13.189729Z,0.0,-0.11,-0.21
2018-09-27T02:59:13.392729Z,0.2,0.11,-0.63
2018-09-27T02:59:13.612729Z,-0.23,-0.02,-0.72
2018-09-27T02:59:13.815729Z,-0.02,0.2,0.08
2018-09-27T02:59:13.952729Z,-0.09,-0.02,0.64
2018-09-27T02:59:14.161729Z,-0.04,0.06,-0.08
2018-09-27T02:59:14.375729Z,0.0,-0.68,-0.2
2018-09-27T02:59:14.586729Z,-0.86,-0.84,-0.53
2018-09-27T02:59:14.793729Z,0.41,0.23,-0.56
2018-09-27T02:59:14.942729Z,-0.17,0.36,-0.13
2018-09-27T02:59:15.155729Z,0.42,-0.41,1.21
2018-09-27T02:59:15.352729Z,0.24,-0.81,-0.86
2018-09-27T02:59:15.566729Z,-0.71,0.4,-0.17
2018-09-27T02:59:15.776729Z,0.08,0.4,0.01
2018-09-27T02:59:15.981729Z,-0.48,-1.51,0.97
2018-09-27T02:59:16.126729Z,-0.37,-0.44,0.26
2018-09-27T02:59:16.333729Z,0.12,0.48,-1.5
2018-09-27T02:59:16.542729Z,0.23,0.43,-0.13
2018-09-27T02:59:16.778729Z,0.38,-1.01,2.05
2018-09-27T02:59:16.964729Z,0.85,1.43,0.15
2018-09-27T02:59:17.174729Z,0.07,-0.2,-0.03
2018-09-27T02:59:17.388729Z,-0.18,0.48,0.18
2018-09-27T02:59:17.523729Z,-0.4,-0.16,0.19
2018-09-27T02:59:17.737729Z,0.37,0.17,0.75
2018-09-27T02:59:17.942729Z,0.46,1.08,-0.08
2018-09-27T02:59:18.152729Z,-0.69,-1.2,-1.97
2018-09-27T02:59:18.370729Z,-0.07,-0.54,2.03
2018-09-27T02:59:18.511729Z,0.11,1.04,0.16
2018-09-27T02:59:18.719729Z,0.89,0.61,0.17
2018-09-27T02:59:18.923729Z,-2.73,-2.86,-4.66
2018-09-27T02:59:19.136729Z,0.63,1.43,-1.66
2018-09-27T02:59:19.343729Z,-0.04,-0.05,0.07
2018-09-27T02:59:19.556729Z,-0.05,0.8,0.35
2018-09-27T02:59:19.762729Z,-0.54,-1.55,-0.67
2018-09-27T02:59:19.905729Z,0.05,-0.09,0.13
2018-09-27T02:59:20.118729Z,-0.42,0.2,-0.37
2018-09-27T02:59:20.321729Z,0.15,0.31,-0.48
2018-09-27T02:59:20.536729Z,-0.78,0.16,-1.59
2018-09-27T02:59:20.744729Z,1.4,0.14,0.25
2018-09-27T02:59:20.882729Z,-0.51,0.35,-0.87
2018-09-27T02:59:21.092729Z,-0.05,-0.11,-0.1
2018-09-27T02:59:21.309729Z,0.7,0.66,2.52
2018-09-27T02:59:21.516729Z,-0.57,-0.73,-0.96
2018-09-27T02:59:21.723729Z,0.32,0.05,-0.54
2018-09-27T02:59:21.935729Z,0.2,0.66,-0.24
2018-09-27T02:59:22.076729Z,-0.48,0.75,-0.26
2018-09-27T02:59:22.283729Z,0.58,-0.68,-1.64
2018-09-27T02:59:22.491729Z,-0.1,0.66,0.65
2018-09-27T02:59:22.706729Z,0.09,0.41,-0.46
2018-09-27T02:59:22.912729Z,0.22,0.39,-0.53
2018-09-27T02:59:23.126729Z,-0.36,-0.89,0.23
2018-09-27T02:59:23.338729Z,-0.39,-0.61,-0.25
2018-09-27T02:59:23.472729Z,-0.26,0.57,0.61
2018-09-27T02:59:23.691729Z,-0.52,-0.03,0.23
2018-09-27T02:59:23.904729Z,0.72,0.4,-0.36
2018-09-27T02:59:24.103729Z,0.21,0.23,1.51
2018-09-27T02:59:24.315729Z,0.72,-0.01,1.79
2018-09-27T02:59:24.453729Z,-0.63,0.08,-1.39
2018-09-27T02:59:24.664729Z,0.68,1.08,-0.31
2018-09-27T02:59:24.876729Z,-0.2,-0.55,1.44
2018-09-27T02:59:25.090729Z,0.12,0.04,-4.61
2018-09-27T02:59:25.294729Z,-0.35,0.44,-0.57
2018-09-27T02:59:25.507729Z,-0.07,0.43,0.08
2018-09-27T02:59:25.649729Z,1.1,-0.18,3.78
2018-09-27T02:59:25.858729Z,-1.02,-0.28,-1.75
2018-09-27T02:59:26.065729Z,0.76,0.13,0.17
2018-09-27T02:59:26.271729Z,0.36,0.0,-0.64
2018-09-27T02:59:26.490729Z,-0.32,0.33,0.25
2018-09-27T02:59:26.693729Z,0.0,0.22,-1.52
2018-09-27T02:59:26.834729Z,-0.04,0.37,-0.57
2018-09-27T02:59:27.044729Z,0.02,0.2,1.15
2018-09-27T02:59:27.261729Z,0.04,-1.1,0.83
2018-09-27T02:59:27.465729Z,-0.45,-0.03,0.6
2018-09-27T02:59:27.679729Z,0.12,0.19,-0.2
2018-09-27T02:59:27.885729Z,0.54,0.65,0.52
2018-09-27T02:59:28.024729Z,-0.26,-1.11,-0.59
2018-09-27T02:59:28.235729Z,-0.34,-0.57,1.56
2018-09-27T02:59:28.443729Z,0.44,0.67,0.71
2018-09-27T02:59:28.654729Z,-0.4,0.3,0.05
2018-09-27T02:59:28.863729Z,0.03,-0.55,0.79
2018-09-27T02:59:29.072729Z,0.43,-0.57,1.13
2018-09-27T02:59:29.260729Z,0.51,0.81,0.43
2018-09-27T02:59:29.428729Z,0.1,-0.03,-0.17
2018-09-27T02:59:29.633729Z,-0.24,0.11,0.71
2018-09-27T02:59:29.842729Z,-0.14,-0.45,1.21
2018-09-27T02:59:30.053729Z,-0.46,-0.15,-1.02
2018-09-27T02:59:30.264729Z,0.25,1.13,-0.66
2018-09-27T02:59:30.405729Z,-0.04,0.06,0.31
2018-09-27T02:59:30.615729Z,-0.15,-1.72,3.07
2018-09-27T02:59:30.836729Z,0.01,0.19,-0.78
2018-09-27T02:59:31.039729Z,-0.42,1.3,1.0
2018-09-27T02:59:31.243729Z,0.69,-0.75,-0.2
2018-09-27T02:59:31.459729Z,-0.11,0.72,-1.46
2018-09-27T02:59:31.595729Z,-1.29,-0.82,1.5
2018-09-27T02:59:31.804729Z,-0.25,-0.13,0.66
2018-09-27T02:59:32.021729Z,0.68,0.05,0.36
2018-09-27T02:59:32.242729Z,-0.07,0.23,0.37
2018-09-27T02:59:32.437729Z,0.04,0.0,0.0
2018-09-27T02:59:32.642729Z,0.29,0.05,-0.54
2018-09-27T02:59:32.804729Z,-0.74,-0.78,0.21
2018-09-27T02:59:32.994729Z,0.3,-0.42,-1.64
2018-09-27T02:59:33.211729Z,0.74,-0.21,0.56
2018-09-27T02:59:33.421729Z,-0.98,-1.15,1.99
2018-09-27T02:59:33.625729Z,-1.05,-0.91,-1.35
2018-09-27T02:59:33.764729Z,1.56,1.83,0.13
2018-09-27T02:59:33.977729Z,-0.09,0.5,0.24
2018-09-27T02:59:34.184729Z,-0.95,-1.24,-0.58
2018-09-27T02:59:34.393729Z,-0.12,0.97,-0.61
2018-09-27T02:59:34.602729Z,0.78,1.04,1.05
2018-09-27T02:59:34.819729Z,-0.17,-0.18,-0.02
2018-09-27T02:59:35.022729Z,-0.25,-1.56,5.26
2018-09-27T02:59:35.163729Z,-0.73,-0.04,-2.35
2018-09-27T02:59:35.374729Z,0.3,-0.11,0.74
2018-09-27T02:59:35.582729Z,-0.24,0.28,0.22
2018-09-27T02:59:35.794729Z,-0.07,0.34,0.05
2018-09-27T02:59:36.014729Z,-0.36,-1.06,-1.91
2018-09-27T02:59:36.211729Z,-0.03,0.23,-1.88
2018-09-27T02:59:36.362729Z,0.24,0.71,0.3
2018-09-27T02:59:36.572729Z,0.02,0.11,0.06
2018-09-27T02:59:36.792729Z,-0.84,-2.83,-1.62
2018-09-27T02:59:36.999729Z,-0.23,0.51,-0.38
2018-09-27T02:59:37.139729Z,0.51,0.8,0.06
2018-09-27T02:59:37.346729Z,0.0,-0.2,1.15
2018-09-27T02:59:37.551729Z,-0.95,-0.59,-1.45
2018-09-27T02:59:37.762729Z,0.42,-0.56,0.15
2018-09-27T02:59:37.975729Z,0.23,0.21,0.0
2018-09-27T02:59:38.185729Z,-0.24,-0.06,-0.28
2018-09-27T02:59:38.392729Z,-0.67,-0.72,-0.32
2018-09-27T02:59:38.550729Z,0.85,0.07,-0.11
2018-09-27T02:59:38.759729Z,0.11,1.02,-0.55
2018-09-27T02:59:38.983729Z,0.2,0.06,0.41
2018-09-27T02:59:39.171729Z,-0.22,0.09,-0.01
2018-09-27T02:59:39.382729Z,0.39,-0.25,-0.18
2018-09-27T02:59:39.523729Z,0.49,0.8,-0.77
2018-09-27T02:59:39.732729Z,-0.08,0.04,-1.41
2018-09-27T02:59:39.946729Z,0.21,0.27,-1.41
2018-09-27T02:59:40.155729Z,-0.42,0.02,0.54
2018-09-27T02:59:40.365729Z,0.84,0.92,-0.62
2018-09-27T02:59:40.572729Z,-2.04,-1.84,-4.09
2018-09-27T02:59:40.716729Z,0.82,0.23,-1.68
2018-09-27T02:59:40.931729Z,-0.04,0.87,-0.45
2018-09-27T02:59:41.130729Z,-1.93,0.87,-4.73
2018-09-27T02:59:41.342729Z,0.98,-1.63,-1.27
2018-09-27T02:59:41.559729Z,0.05,0.37,0.06
2018-09-27T02:59:41.698729Z,0.49,0.85,-2.03
2018-09-27T02:59:41.910729Z,0.41,0.18,1.46
2018-09-27T02:59:42.122729Z,-1.03,-0.33,-0.93
2018-09-27T02:59:42.323729Z,0.34,-0.13,0.12
2018-09-27T02:59:42.544729Z,0.48,0.55,1.14
2018-09-27T02:59:42.753729Z,-0.31,-0.16,-1.62
2018-09-27T02:59:42.893729Z,0.01,0.12,-0.56
2018-09-27T02:59:43.115729Z,0.24,1.04,-1.6
2018-09-27T02:59:43.312729Z,-0.4,-0.57,-1.51
2018-09-27T02:59:43.532729Z,-0.5,-0.63,-0.54
2018-09-27T02:59:43.732729Z,0.74,0.05,-0.08
2018-09-27T02:59:43.880729Z,0.05,0.12,0.49
2018-09-27T02:59:44.083729Z,0.62,0.1,1.28
2018-09-27T02:59:44.304729Z,0.1,0.06,0.31
2018-09-27T02:59:44.512729Z,-1.15,-0.33,-1.63
2018-09-27T02:59:44.725729Z,-0.09,0.21,-0.19
2018-09-27T02:59:44.934729Z,-0.01,-0.05,0.9
2018-09-27T02:59:45.146729Z,0.32,-0.05,0.33
2018-09-27T02:59:45.300729Z,0.26,-0.16,0.36
2018-09-27T02:59:45.494729Z,-0.29,0.35,-0.13
2018-09-27T02:59:45.706729Z,-0.19,-0.14,0.84
2018-09-27T02:59:45.913729Z,-0.14,-0.18,0.22
2018-09-27T02:59:46.124729Z,-0.27,0.44,1.08
2018-09-27T02:59:46.269729Z,-0.73,-0.92,-1.61
2018-09-27T02:59:46.473729Z,0.62,0.51,-1.04
2018-09-27T02:59:46.684729Z,-0.34,0.72,2.12
2018-09-27T02:59:46.894729Z,0.03,-0.88,2.22
2018-09-27T02:59:47.109729Z,-0.45,-1.33,-1.18
2018-09-27T02:59:47.313729Z,-0.35,0.65,0.55
2018-09-27T02:59:47.453729Z,0.09,0.71,0.6
2018-09-27T02:59:47.664729Z,-0.25,-0.77,-0.22
2018-09-27T02:59:47.875729Z,0.21,0.28,0.0
2018-09-27T02:59:48.084729Z,0.43,0.7,0.34
2018-09-27T02:59:48.297729Z,-0.27,-0.08,0.03
2018-09-27T02:59:48.502729Z,0.89,-0.42,-0.53
2018-09-27T02:59:48.644729Z,0.28,0.28,0.43
2018-09-27T02:59:48.852729Z,-0.37,0.55,-1.26
2018-09-27T02:59:49.067729Z,-0.15,-0.38,-0.68
2018-09-27T02:59:49.282729Z,0.5,-0.01,1.25
2018-09-27T02:59:49.481729Z,-0.16,-0.04,0.05
2018-09-27T02:59:49.625729Z,-0.06,0.01,-0.22
2018-09-27T02:59:49.836729Z,-0.12,-0.15,-0.65
2018-09-27T02:59:50.044729Z,-0.11,0.29,1.09
2018-09-27T02:59:50.254729Z,0.28,-0.29,-0.7
2018-09-27T02:59:50.469729Z,0.2,-0.39,0.43
2018-09-27T02:59:50.674729Z,-1.19,-1.62,-1.46
2018-09-27T02:59:50.812729Z,-0.19,0.85,-0.62
2018-09-27T02:59:51.031729Z,0.49,0.2,0.21
2018-09-27T02:59:51.239729Z,-1.03,-1.43,-3.56
2018-09-27T02:59:51.441729Z,-0.86,0.39,-2.28
2018-09-27T02:59:51.654729Z,-0.69,0.84,-0.05
2018-09-27T02:59:51.862729Z,-0.62,0.54,-5.26
2018-09-27T02:59:52.002729Z,0.82,0.92,-0.36
2018-09-27T02:59:52.220729Z,-0.64,-0.46,-1.4
2018-09-27T02:59:52.423729Z,-0.5,0.1,-0.67
2018-09-27T02:59:52.635729Z,-0.61,0.25,-2.8
2018-09-27T02:59:52.849729Z,0.55,0.0,0.33
2018-09-27T02:59:53.067729Z,-1.63,-0.39,-4.52
2018-09-27T02:59:53.202729Z,0.48,0.0,1.5
2018-09-27T02:59:53.422729Z,0.21,0.1,0.32
2018-09-27T02:59:53.624729Z,-0.31,0.53,-0.42
2018-09-27T02:59:53.837729Z,-0.25,-0.06,0.1
2018-09-27T02:59:54.044729Z,-0.58,0.19,-1.33
2018-09-27T02:59:54.193729Z,0.04,-0.21,-0.14
2018-09-27T02:59:54.403729Z,0.45,0.58,3.19
2018-09-27T02:59:54.618729Z,-0.48,-0.43,-0.28
2018-09-27T02:59:54.824729Z,0.06,-0.26,-0.1
2018-09-27T02:59:55.034729Z,0.01,0.01,0.57
2018-09-27T02:59:55.178729Z,0.45,-0.15,0.02
2018-09-27T02:59:55.382729Z,1.06,0.29,-0.19
2018-09-27T02:59:55.602729Z,0.01,-0.16,-0.38
2018-09-27T02:59:55.802729Z,-2.91,-0.64,-6.72
2018-09-27T02:59:56.014729Z,0.15,-0.34,-0.36
2018-09-27T02:59:56.299729Z,0.17,0.27,0.69
2018-09-27T02:59:56.452729Z,-0.15,0.09,-0.11
2018-09-27T02:59:56.584729Z,0.01,-0.07,-0.28
2018-09-27T02:59:56.791729Z,-0.57,-0.19,-0.73
2018-09-27T02:59:57.002729Z,0.0,-0.02,0.41
2018-09-27T02:59:57.212729Z,0.2,0.27,-1.12
2018-09-27T02:59:57.426729Z,0.04,-0.12,0.24
2018-09-27T02:59:57.632729Z,0.07,-0.07,0.25
2018-09-27T02:59:57.777729Z,0.0,-0.01,0.26
2018-09-27T02:59:57.981729Z,-0.13,-0.68,0.85
2018-09-27T02:59:58.204729Z,-0.06,-0.05,-0.77
2018-09-27T02:59:58.402729Z,-0.03,0.07,-0.55
2018-09-27T02:59:58.614729Z,-0.04,-0.42,0.74
2018-09-27T02:59:58.826729Z,-0.08,-0.11,-0.51
2018-09-27T02:59:58.962729Z,-0.68,-0.42,-1.02
2018-09-27T02:59:59.176729Z,0.02,-0.08,0.64
2018-09-27T02:59:59.386729Z,-0.19,0.29,0.29
2018-09-27T02:59:59.592729Z,0.02,-0.29,0.47
2018-09-27T02:59:59.807729Z,-0.27,0.3,-1.61
2018-09-27T03:00:00.016729Z,-0.08,0.28,-0.19
2018-09-27T03:00:00.151729Z,-0.1,-0.07,0.02
2018-09-27T03:00:00.368729Z,0.15,0.23,-0.25
2018-09-27T03:00:00.576729Z,-0.04,-0.09,-0.35
2018-09-27T03:00:00.783729Z,-0.36,-0.02,-0.07
2018-09-27T03:00:00.994729Z,0.03,-0.49,-0.48
2018-09-27T03:00:01.134729Z,0.07,0.26,0.35
2018-09-27T03:00:01.350729Z,-0.37,-1.18,-0.92
2018-09-27T03:00:01.553729Z,-0.44,1.8,-2.04
2018-09-27T03:00:01.763729Z,0.27,0.47,0.39
2018-09-27T03:00:01.974729Z,-0.62,0.56,-0.32
2018-09-27T03:00:02.189729Z,-0.05,-0.9,-1.69
2018-09-27T03:00:02.394729Z,-1.02,0.5,-0.78
2018-09-27T03:00:02.533729Z,0.01,0.77,-0.69
2018-09-27T03:00:02.745729Z,1.1,-0.54,2.72
2018-09-27T03:00:02.959729Z,-1.0,-1.28,-1.03
2018-09-27T03:00:03.166729Z,-0.53,0.44,0.81
2018-09-27T03:00:03.382729Z,0.79,0.14,-1.69
2018-09-27T03:00:03.584729Z,0.39,0.0,0.05
2018-09-27T03:00:03.723729Z,-0.47,0.67,-0.15
2018-09-27T03:00:03.932729Z,-0.06,-0.31,0.14
2018-09-27T03:00:04.146729Z,-0.08,-0.31,0.44
2018-09-27T03:00:04.361729Z,0.16,-0.02,-0.58
2018-09-27T03:00:04.560729Z,-0.11,0.06,0.33
2018-09-27T03:00:04.773729Z,0.07,0.26,-0.12
2018-09-27T03:00:04.912729Z,0.16,0.11,0.0
2018-09-27T03:00:05.130729Z,0.2,0.14,0.08
2018-09-27T03:00:05.332729Z,-0.35,0.11,0.62
2018-09-27T03:00:05.548729Z,-0.27,-1.21,1.38
2018-09-27T03:00:05.756729Z,0.37,-0.85,0.3
2018-09-27T03:00:05.898729Z,-0.1,0.12,0.51
2018-09-27T03:00:06.111729Z,0.28,0.18,-0.73
2018-09-27T03:00:06.321729Z,0.08,-0.06,2.58
2018-09-27T03:00:06.531729Z,0.58,-0.28,-1.51
2018-09-27T03:00:06.733729Z,-1.05,-0.15,1.73
2018-09-27T03:00:06.944729Z,0.93,0.67,-0.24
2018-09-27T03:00:07.157729Z,0.4,0.19,-0.34
2018-09-27T03:00:07.303729Z,-0.67,-0.66,-0.87
2018-09-27T03:00:07.515729Z,0.25,0.34,0.61
2018-09-27T03:00:07.729729Z,-0.24,0.1,-0.55
2018-09-27T03:00:07.936729Z,-0.37,-0.55,-0.17
2018-09-27T03:00:08.142729Z,0.76,0.68,0.15
2018-09-27T03:00:08.287729Z,-0.96,-0.96,-0.87
2018-09-27T03:00:08.500729Z,-0.39,-1.2,0.67
2018-09-27T03:00:08.708729Z,-0.1,0.81,0.92
2018-09-27T03:00:08.923729Z,0.06,-0.36,1.65
2018-09-27T03:00:09.128729Z,-0.49,-0.41,-0.25
2018-09-27T03:00:09.273729Z,0.26,0.13,1.13
2018-09-27T03:00:09.491729Z,-0.28,0.14,-1.79
2018-09-27T03:00:09.687729Z,-0.62,0.19,1.9
2018-09-27T03:00:09.903729Z,0.0,-0.26,-1.45
2018-09-27T03:00:10.123729Z,-0.36,-1.0,0.18
2018-09-27T03:00:10.322729Z,0.51,0.51,1.7
2018-09-27T03:00:10.463729Z,0.14,0.2,0.1
2018-09-27T03:00:10.681729Z,-0.28,-0.58,-1.68
2018-09-27T03:00:10.883729Z,0.94,0.02,2.02
2018-09-27T03:00:11.093729Z,-2.14,0.44,-8.03
2018-09-27T03:00:11.305729Z,0.43,0.12,-0.33
2018-09-27T03:00:11.549729Z,1.26,1.1,5.89
2018-09-27T03:00:11.652729Z,-0.5,-0.58,-1.5
2018-09-27T03:00:11.862729Z,-0.71,0.38,-1.68
2018-09-27T03:00:12.077729Z,-0.12,0.07,-0.39
2018-09-27T03:00:12.293729Z,0.39,0.41,-0.55
2018-09-27T03:00:12.494729Z,0.87,-0.18,0.5
2018-09-27T03:00:12.632729Z,0.11,0.27,-0.13
2018-09-27T03:00:12.842729Z,0.31,-1.07,1.97
2018-09-27T03:00:13.058729Z,-1.22,-0.59,-1.02
2018-09-27T03:00:13.272729Z,-0.65,0.0,-1.9
2018-09-27T03:00:13.474729Z,0.2,1.14,-0.11
2018-09-27T03:00:13.682729Z,0.18,-0.91,1.52
2018-09-27T03:00:13.824729Z,0.42,0.08,4.58
2018-09-27T03:00:14.043729Z,0.35,0.21,-0.42
2018-09-27T03:00:14.244729Z,0.04,0.57,1.35
2018-09-27T03:00:14.455729Z,-1.04,-0.75,-0.33
2018-09-27T03:00:14.681729Z,0.03,-0.7,0.92
2018-09-27T03:00:14.879729Z,0.73,0.98,0.6
2018-09-27T03:00:15.016729Z,0.53,0.1,1.14
2018-09-27T03:00:15.223729Z,-0.06,-0.41,-2.05
2018-09-27T03:00:15.450729Z,-0.39,1.31,0.42
2018-09-27T03:00:15.660729Z,1.5,-0.08,2.25
2018-09-27T03:00:15.866729Z,-0.54,-1.16,0.73
2018-09-27T03:00:16.006729Z,-0.3,0.94,1.4
2018-09-27T03:00:16.222729Z,0.29,0.49,0.22
2018-09-27T03:00:16.426729Z,1.0,0.0,-1.85
2018-09-27T03:00:16.634729Z,-0.24,0.64,-0.17
2018-09-27T03:00:16.846729Z,0.47,0.82,-0.36
2018-09-27T03:00:17.054729Z,0.93,-1.36,1.23
2018-09-27T03:00:17.273729Z,-0.07,0.04,-0.31
2018-09-27T03:00:17.409729Z,0.02,0.81,-0.18
2018-09-27T03:00:17.621729Z,0.17,0.32,0.05
2018-09-27T03:00:17.834729Z,-0.18,-0.73,-0.69
2018-09-27T03:00:18.044729Z,0.2,0.12,1.0
2018-09-27T03:00:18.244729Z,0.39,0.8,-0.9
2018-09-27T03:00:18.454729Z,-0.23,0.45,0.14
2018-09-27T03:00:18.602729Z,0.4,-0.98,1.29
2018-09-27T03:00:18.806729Z,-0.38,-0.66,-0.92
2018-09-27T03:00:19.012729Z,0.04,0.44,2.02
2018-09-27T03:00:19.226729Z,-0.1,0.36,-0.89
2018-09-27T03:00:19.434729Z,0.53,0.8,2.69
2018-09-27T03:00:19.642729Z,-0.27,-0.38,-1.27
2018-09-27T03:00:19.789729Z,0.13,-0.29,-0.43
2018-09-27T03:00:19.996729Z,-0.61,0.06,0.06
2018-09-27T03:00:20.203729Z,0.77,0.23,1.16
2018-09-27T03:00:20.415729Z,-0.11,0.08,-0.31
2018-09-27T03:00:20.626729Z,-0.14,-0.21,-0.36
2018-09-27T03:00:20.839729Z,0.88,-0.89,-1.39
2018-09-27T03:00:20.973729Z,-0.65,0.9,0.2
2018-09-27T03:00:21.186729Z,0.85,0.79,-0.99
2018-09-27T03:00:21.405729Z,-0.96,-1.48,-4.61
2018-09-27T03:00:21.602729Z,0.11,0.57,1.12
2018-09-27T03:00:21.817729Z,0.14,0.17,0.13
2018-09-27T03:00:22.023729Z,0.69,-0.8,-3.25
2018-09-27T03:00:22.164729Z,-0.91,-0.49,-2.07
2018-09-27T03:00:22.375729Z,0.44,0.63,0.1
2018-09-27T03:00:22.586729Z,0.14,-0.01,0.5
2018-09-27T03:00:22.793729Z,0.03,0.46,0.44
2018-09-27T03:00:23.009729Z,0.09,0.09,0.21
2018-09-27T03:00:23.219729Z,-0.18,-0.22,-0.46
2018-09-27T03:00:23.361729Z,-0.88,-2.37,-0.27
2018-09-27T03:00:23.563729Z,0.59,0.01,-0.4
2018-09-27T03:00:23.775729Z,0.39,0.32,1.12
2018-09-27T03:00:23.983729Z,-0.54,-1.67,-2.44
2018-09-27T03:00:24.195729Z,-0.44,0.17,0.5
2018-09-27T03:00:24.403729Z,0.15,1.17,-0.26
2018-09-27T03:00:24.620729Z,-1.13,-1.65,-0.5
2018-09-27T03:00:24.756729Z,0.37,-0.31,-1.52
2018-09-27T03:00:24.967729Z,0.65,0.79,1.65
2018-09-27T03:00:25.171729Z,-1.09,-1.63,-0.23
2018-09-27T03:00:25.383729Z,-0.6,0.0,-1.91
2018-09-27T03:00:25.533729Z,0.39,0.85,-0.3
2018-09-27T03:00:25.733729Z,0.34,-1.38,2.72
2018-09-27T03:00:25.951729Z,0.22,0.06,-1.91
2018-09-27T03:00:26.164729Z,-0.01,0.56,1.35
2018-09-27T03:00:26.372729Z,-0.62,-2.29,-0.96
2018-09-27T03:00:26.576729Z,-0.73,0.24,-1.82
2018-09-27T03:00:26.785729Z,0.6,1.32,1.84
2018-09-27T03:00:26.930729Z,-1.57,-2.01,-4.43
2018-09-27T03:00:27.137729Z,-0.02,-0.76,-2.93
2018-09-27T03:00:27.343729Z,0.48,1.05,0.39
2018-09-27T03:00:27.562729Z,0.16,-1.25,2.76
2018-09-27T03:00:27.768729Z,-0.62,-0.41,0.8
2018-09-27T03:00:27.971729Z,-0.24,0.17,-0.25
2018-09-27T03:00:28.122729Z,-0.2,-0.21,1.19
2018-09-27T03:00:28.330729Z,-0.43,0.09,-0.57
2018-09-27T03:00:28.544729Z,0.21,0.18,-0.17
2018-09-27T03:00:28.744729Z,0.0,-0.11,0.27
2018-09-27T03:00:28.959729Z,-0.32,0.27,-1.69
2018-09-27T03:00:29.171729Z,0.6,-0.18,0.83
2018-09-27T03:00:29.313729Z,-0.44,0.01,0.19
2018-09-27T03:00:29.514729Z,-0.64,-0.04,-1.22
2018-09-27T03:00:29.758729Z,0.0,0.82,2.8
2018-09-27T03:00:29.932729Z,0.28,0.25,0.22
2018-09-27T03:00:30.183729Z,0.55,-0.68,-0.8
2018-09-27T03:00:30.286729Z,0.56,1.41,0.97
2018-09-27T03:00:30.497729Z,-1.47,1.37,-0.65
2018-09-27T03:00:30.703729Z,-0.69,0.08,-0.58
2018-09-27T03:00:30.913729Z,1.0,-0.31,0.15
2018-09-27T03:00:31.130729Z,3.07,-1.27,5.75
2018-09-27T03:00:31.344729Z,-2.11,-0.84,0.74
2018-09-27T03:00:31.550729Z,0.63,0.44,-0.07
2018-09-27T03:00:31.687729Z,-0.99,-1.27,-1.37
2018-09-27T03:00:31.897729Z,-0.66,-0.48,-1.06
2018-09-27T03:00:32.102729Z,0.69,1.6,-0.32
2018-09-27T03:00:32.315729Z,-2.45,-1.36,2.87
2018-09-27T03:00:32.524729Z,0.48,-1.53,-3.51
2018-09-27T03:00:32.735729Z,1.08,1.04,1.59
2018-09-27T03:00:32.881729Z,-0.05,1.7,-0.7
2018-09-27T03:00:33.092729Z,-0.04,0.56,-0.05
2018-09-27T03:00:33.300729Z,0.54,0.23,-0.4
2018-09-27T03:00:33.504729Z,-0.27,-0.48,0.5
2018-09-27T03:00:33.712729Z,0.68,0.55,-0.54
2018-09-27T03:00:33.853729Z,-0.18,-0.13,-0.05
2018-09-27T03:00:34.077729Z,-0.14,0.0,-0.65
2018-09-27T03:00:34.275729Z,-0.37,-0.73,-0.18
2018-09-27T03:00:34.485729Z,-0.17,-0.7,-0.06
2018-09-27T03:00:34.695729Z,-1.21,-0.23,-0.44
2018-09-27T03:00:34.916729Z,1.06,0.88,0.53
2018-09-27T03:00:35.117729Z,0.69,-0.62,-1.06
2018-09-27T03:00:35.280729Z,-0.91,0.5,1.7
2018-09-27T03:00:35.464729Z,-0.29,0.34,-0.3
2018-09-27T03:00:35.670729Z,0.88,-0.06,1.2
2018-09-27T03:00:35.884729Z,0.53,0.44,0.99
2018-09-27T03:00:36.093729Z,0.43,-1.94,0.18
2018-09-27T03:00:36.233729Z,-0.79,0.76,-0.08
2018-09-27T03:00:36.443729Z,-0.3,0.4,-0.87
2018-09-27T03:00:36.655729Z,-0.44,-1.8,4.18
2018-09-27T03:00:36.864729Z,0.87,-0.27,-1.69
2018-09-27T03:00:37.075729Z,-0.54,0.62,0.33
2018-09-27T03:00:37.287729Z,0.29,0.28,-1.19
2018-09-27T03:00:37.424729Z,-0.5,-1.34,-2.31
2018-09-27T03:00:37.641729Z,-1.68,0.77,1.14
2018-09-27T03:00:37.844729Z,0.63,0.09,-1.47
2018-09-27T03:00:38.062729Z,0.04,-0.64,-1.75
2018-09-27T03:00:38.263729Z,1.21,1.46,1.75
2018-09-27T03:00:38.477729Z,0.69,0.42,-0.26
2018-09-27T03:00:38.614729Z,-0.03,-0.27,-1.92
2018-09-27T03:00:38.826729Z,0.59,0.42,-2.17
2018-09-27T03:00:39.034729Z,0.27,0.29,0.65
2018-09-27T03:00:39.242729Z,-0.52,0.35,0.04
2018-09-27T03:00:39.454729Z,-0.41,-0.34,0.06
2018-09-27T03:00:39.665729Z,0.04,-0.42,-0.33
2018-09-27T03:00:39.880729Z,0.45,0.23,-1.15
2018-09-27T03:00:40.016729Z,-0.01,0.16,0.09
2018-09-27T03:00:40.227729Z,0.2,-0.35,-2.76
2018-09-27T03:00:40.437729Z,-1.47,-0.29,-1.0
2018-09-27T03:00:40.643729Z,-0.49,-0.27,1.09
2018-09-27T03:00:40.853729Z,0.49,-1.22,-1.14
2018-09-27T03:00:41.066729Z,-0.06,-0.03,0.92
2018-09-27T03:00:41.212729Z,0.63,2.03,1.03
2018-09-27T03:00:41.413729Z,0.81,-0.18,0.7
2018-09-27T03:00:41.628729Z,-0.76,-0.16,0.2
2018-09-27T03:00:41.870729Z,0.44,0.71,0.72
2018-09-27T03:00:41.984729Z,0.54,0.01,-0.23
2018-09-27T03:00:42.194729Z,0.31,0.24,-0.08
2018-09-27T03:00:42.405729Z,-0.24,0.43,-1.08
2018-09-27T03:00:42.611729Z,-0.22,0.02,-0.57
2018-09-27T03:00:42.827729Z,-0.21,0.92,0.17
2018-09-27T03:00:43.034729Z,0.26,0.4,-0.36
2018-09-27T03:00:43.174729Z,-0.85,-2.46,-1.24
2018-09-27T03:00:43.383729Z,-0.16,0.34,-1.56
2018-09-27T03:00:43.598729Z,0.46,0.85,0.46
2018-09-27T03:00:43.806729Z,0.82,-1.5,4.29
2018-09-27T03:00:44.020729Z,-0.81,0.88,-3.6
2018-09-27T03:00:44.224729Z,0.08,0.76,1.55
2018-09-27T03:00:44.363729Z,-0.9,-1.39,-4.0
2018-09-27T03:00:44.580729Z,0.58,0.8,-0.91
2018-09-27T03:00:44.787729Z,-0.14,0.24,0.11
2018-09-27T03:00:44.996729Z,0.27,-0.16,-1.96
2018-09-27T03:00:45.206729Z,-0.06,2.96,0.32
2018-09-27T03:00:45.416729Z,0.6,-3.14,-0.14
2018-09-27T03:00:45.626729Z,0.12,0.1,-1.23
2018-09-27T03:00:45.771729Z,-0.21,0.84,-0.18
2018-09-27T03:00:45.978729Z,0.51,2.08,0.27
2018-09-27T03:00:46.185729Z,0.58,-2.47,1.19
2018-09-27T03:00:46.403729Z,-0.66,0.91,-2.18
2018-09-27T03:00:46.608729Z,1.43,0.0,-0.8
2018-09-27T03:00:46.813729Z,0.11,0.14,0.22
2018-09-27T03:00:46.952729Z,-0.33,0.37,-1.69
2018-09-27T03:00:47.166729Z,0.18,0.56,0.08
2018-09-27T03:00:47.373729Z,-0.12,0.48,0.03
2018-09-27T03:00:47.599729Z,-0.12,-0.17,-0.12
2018-09-27T03:00:47.794729Z,-0.03,0.04,0.35
2018-09-27T03:00:47.934729Z,-0.08,-2.38,-1.9
2018-09-27T03:00:48.143729Z,-0.31,1.0,-1.06
2018-09-27T03:00:48.356729Z,-0.1,0.22,0.52
2018-09-27T03:00:48.563729Z,-1.24,-2.2,1.08
2018-09-27T03:00:48.778729Z,0.3,0.35,0.25
2018-09-27T03:00:48.982729Z,0.0,0.1,-0.93
2018-09-27T03:00:49.124729Z,-0.1,0.25,-0.35
2018-09-27T03:00:49.338729Z,-0.19,-0.09,0.27
2018-09-27T03:00:49.549729Z,-1.83,-1.7,-1.01
2018-09-27T03:00:49.761729Z,0.03,0.74,0.0
2018-09-27T03:00:49.970729Z,0.36,-0.27,-0.86
2018-09-27T03:00:50.174729Z,-0.39,0.46,-0.52
2018-09-27T03:00:50.335729Z,-0.32,-0.46,-0.4
2018-09-27T03:00:50.522729Z,0.08,0.02,-0.03
2018-09-27T03:00:50.773729Z,0.17,0.12,0.11
2018-09-27T03:00:50.944729Z,0.34,0.0,-0.56
2018-09-27T03:00:51.152729Z,-0.64,0.38,-0.58
2018-09-27T03:00:51.366729Z,-0.17,0.35,-1.42
2018-09-27T03:00:51.510729Z,-0.58,0.14,-0.13
2018-09-27T03:00:51.713729Z,1.71,-0.2,2.41
2018-09-27T03:00:51.932729Z,0.7,-0.66,1.58
2018-09-27T03:00:52.134729Z,-0.79,0.76,0.73
2018-09-27T03:00:52.349729Z,0.8,0.57,3.01
2018-09-27T03:00:52.557729Z,0.7,-0.62,0.32
2018-09-27T03:00:52.693729Z,1.12,1.21,0.78
2018-09-27T03:00:52.912729Z,1.4,0.23,1.94
2018-09-27T03:00:53.113729Z,0.04,0.04,0.81
2018-09-27T03:00:53.323729Z,0.22,0.39,2.35
