Datetime,accx,accy,accz
2018-10-22T23:27:22.004181Z,-0.930969,0.175903,0.451294
2018-10-22T23:27:22.215181Z,0.7166140000000001,3.8177489999999996,-1.373047
2018-10-22T23:27:22.409181Z,0.102905,-0.321411,-0.683044
2018-10-22T23:27:22.608181Z,0.36645500000000003,-0.12506099999999998,0.678711
2018-10-22T23:27:22.820181Z,0.8200069999999999,-0.207947,-0.358154
2018-10-22T23:27:23.008181Z,1.608032,-0.426331,-1.6455080000000002
2018-10-22T23:27:23.207181Z,0.518372,0.603271,1.045715
2018-10-22T23:27:23.407181Z,-0.43615699999999996,-1.79895,2.2984009999999997
2018-10-22T23:27:23.614181Z,-0.145508,-2.062378,-0.567017
2018-10-22T23:27:23.808181Z,-0.290222,-1.4803469999999999,1.11084
2018-10-22T23:27:24.011181Z,-1.141235,-2.16394,2.40863
2018-10-22T23:27:24.213181Z,-0.375977,-1.655518,1.012146
2018-10-22T23:27:24.412181Z,-0.8316040000000001,-1.503357,-0.463135
2018-10-22T23:27:24.607181Z,-1.999695,-2.065552,1.5321040000000001
2018-10-22T23:27:24.815181Z,-1.807007,-0.989563,0.649475
2018-10-22T23:27:25.006181Z,-0.5591430000000001,-0.32629400000000003,0.08569299999999999
2018-10-22T23:27:25.212181Z,-1.087158,0.399597,0.787231
2018-10-22T23:27:25.460181Z,-1.261658,-1.85968,3.338135
2018-10-22T23:27:25.618181Z,-0.087463,-0.5938720000000001,-1.653564
2018-10-22T23:27:25.806181Z,-0.686768,0.353821,0.531311
2018-10-22T23:27:26.008181Z,-2.388306,-2.2764279999999997,2.916626
2018-10-22T23:27:26.208181Z,-1.33667,-1.056946,-0.912659
2018-10-22T23:27:26.407181Z,-1.072876,-0.8657229999999999,1.282166
2018-10-22T23:27:26.614181Z,-0.8493649999999999,-1.302917,-2.025574
2018-10-22T23:27:26.809181Z,-1.137512,-1.320068,-0.40869099999999997
2018-10-22T23:27:27.012181Z,-1.353394,-0.836304,-0.047485
2018-10-22T23:27:27.208181Z,-1.204407,-1.6651610000000001,-0.50531
2018-10-22T23:27:27.398181Z,-2.208923,-1.129211,0.135071
2018-10-22T23:27:27.606181Z,-1.7216189999999998,-0.661133,-0.255249
2018-10-22T23:27:27.818181Z,-1.573181,-0.156677,-0.024658000000000003
2018-10-22T23:27:28.013181Z,-0.972717,0.24084499999999998,-0.6596069999999999
2018-10-22T23:27:28.217181Z,-0.65979,0.458618,0.036072
2018-10-22T23:27:28.415181Z,-0.633362,-0.932861,1.5360719999999999
2018-10-22T23:27:28.609181Z,0.10736099999999998,-1.138794,-2.113037
2018-10-22T23:27:28.807181Z,-0.878662,0.08996599999999999,-1.5565799999999999
2018-10-22T23:27:29.007181Z,0.026855,1.547058,2.1539919999999997
2018-10-22T23:27:29.208181Z,-2.505432,-2.378662,0.7504270000000001
2018-10-22T23:27:29.409181Z,-2.460266,-2.654236,0.410217
2018-10-22T23:27:29.633181Z,-2.0935669999999997,-1.2612299999999999,1.558777
2018-10-22T23:27:29.810181Z,-2.1315310000000003,-1.1918950000000001,0.11492899999999999
2018-10-22T23:27:30.022181Z,-3.176025,-0.987915,-0.5814819999999999
2018-10-22T23:27:30.205181Z,-3.363586,0.526978,0.011719
2018-10-22T23:27:30.408181Z,-2.18927,0.253479,0.400452
2018-10-22T23:27:30.609181Z,0.510803,-1.1098629999999998,1.803955
2018-10-22T23:27:30.807181Z,-0.30658,-0.454163,-0.480591
2018-10-22T23:27:31.007181Z,-1.825623,-0.064514,-0.41107200000000005
2018-10-22T23:27:31.207181Z,-1.446289,-1.668335,1.379578
2018-10-22T23:27:31.431181Z,-1.205994,-1.283081,-0.671204
2018-10-22T23:27:31.608181Z,-0.799377,-0.636292,0.015137000000000001
2018-10-22T23:27:31.814181Z,-1.776184,-0.9074709999999999,-0.182251
2018-10-22T23:27:32.014181Z,0.165466,-0.483887,-0.16278099999999998
2018-10-22T23:27:32.208181Z,0.31958000000000003,0.35907,-0.66687
2018-10-22T23:27:32.413181Z,-0.152039,0.040466,-1.038635
2018-10-22T23:27:32.614181Z,1.077942,1.5646360000000001,0.157959
2018-10-22T23:27:33.009181Z,-0.23986799999999997,1.467224,0.30175799999999997
2018-10-22T23:27:33.207181Z,-0.654968,-2.1309810000000002,0.56311
2018-10-22T23:27:33.407181Z,-0.622375,-1.197327,-0.932373
2018-10-22T23:27:33.613181Z,-0.198364,-0.294006,-0.614319
2018-10-22T23:27:33.814181Z,-0.8442379999999999,0.351135,-0.300415
2018-10-22T23:27:34.007181Z,-0.186646,-0.514404,1.3004149999999999
2018-10-22T23:27:34.209181Z,-0.278931,-1.238281,1.7623900000000001
2018-10-22T23:27:34.411181Z,-0.701233,-0.369263,0.41296400000000005
2018-10-22T23:27:34.613181Z,-0.31359899999999996,-0.399475,-0.048462
2018-10-22T23:27:34.810181Z,-1.055603,-0.372131,-2.152222
2018-10-22T23:27:35.009181Z,-2.001709,0.328491,-0.664978
2018-10-22T23:27:35.210181Z,-0.900085,0.328125,-0.689758
2018-10-22T23:27:35.408181Z,0.0015869999999999999,-0.62384,0.499084
2018-10-22T23:27:35.614181Z,-0.323669,-1.201599,1.4284059999999998
2018-10-22T23:27:35.837181Z,-0.787292,0.055420000000000004,0.391479
2018-10-22T23:27:36.014181Z,-0.5177609999999999,0.300415,0.039673
2018-10-22T23:27:36.214181Z,-1.550659,-1.682251,0.8536379999999999
2018-10-22T23:27:36.417181Z,-1.155273,-0.501343,-0.6716310000000001
2018-10-22T23:27:36.607181Z,-0.401062,0.53418,-0.571045
2018-10-22T23:27:36.808181Z,-0.30236799999999997,-0.945312,4.153258999999999
2018-10-22T23:27:37.007181Z,0.36438000000000004,-0.21325700000000003,-1.878296
2018-10-22T23:27:37.211181Z,-0.53125,0.877136,0.499817
2018-10-22T23:27:37.407181Z,-0.9865719999999999,-1.553711,2.3134770000000002
2018-10-22T23:27:37.649181Z,-0.13336199999999998,-1.999695,-1.046509
2018-10-22T23:27:37.809181Z,-0.25012199999999996,-1.098206,0.287231
2018-10-22T23:27:38.013181Z,-0.17028800000000002,-1.088074,0.121277
2018-10-22T23:27:38.230181Z,1.000183,-0.325073,1.7966919999999997
2018-10-22T23:27:38.412181Z,1.926575,0.715881,0.370728
2018-10-22T23:27:38.615181Z,0.28674299999999997,0.970764,0.517456
2018-10-22T23:27:38.809181Z,-0.813782,0.082397,0.739075
2018-10-22T23:27:39.009181Z,-0.695923,-0.220398,-0.365845
2018-10-22T23:27:39.208181Z,0.024658000000000003,-1.114929,-1.7299189999999998
2018-10-22T23:27:39.407181Z,-0.5386350000000001,2.362915,1.686279
2018-10-22T23:27:39.610181Z,0.860657,-0.127075,-1.5650629999999999
2018-10-22T23:27:39.814181Z,1.3754879999999998,-0.437561,0.277893
2018-10-22T23:27:40.009181Z,0.421021,0.610901,0.76886
2018-10-22T23:27:40.217181Z,1.133667,0.844299,0.075806
2018-10-22T23:27:40.413181Z,1.3899540000000001,0.882019,-0.193604
2018-10-22T23:27:40.616181Z,2.024414,0.298645,-0.794312
2018-10-22T23:27:40.809181Z,0.170532,1.775757,0.264465
2018-10-22T23:27:41.007181Z,-1.414185,-0.654724,-0.589783
2018-10-22T23:27:41.208181Z,-1.534851,0.562683,-1.480713
2018-10-22T23:27:41.443181Z,-0.554688,1.184265,-0.545288
2018-10-22T23:27:41.619181Z,-1.305908,-0.298218,1.990967
2018-10-22T23:27:41.812181Z,-0.43041999999999997,0.723694,-0.655762
2018-10-22T23:27:42.014181Z,0.1073,1.516846,-0.405945
2018-10-22T23:27:42.208181Z,0.213135,1.676941,-0.481995
2018-10-22T23:27:42.408181Z,-0.476746,0.694275,-0.6152340000000001
2018-10-22T23:27:42.607181Z,-1.538879,-1.362183,0.329712
2018-10-22T23:27:42.808181Z,-0.9112549999999999,0.12213099999999999,-0.8193360000000001
2018-10-22T23:27:42.999181Z,-0.842468,0.517212,0.855591
2018-10-22T23:27:43.208181Z,-0.001343,-1.020752,-0.364319
2018-10-22T23:27:43.439181Z,0.42419399999999996,-0.658142,-0.9261469999999999
2018-10-22T23:27:43.613181Z,-0.069885,0.399536,0.130188
2018-10-22T23:27:44.018181Z,-0.859192,-0.394775,-2.372009
2018-10-22T23:27:44.207181Z,-0.507019,0.22052,-1.584351
2018-10-22T23:27:44.408181Z,-0.350647,1.369629,-0.098816
2018-10-22T23:27:44.607181Z,-1.428894,-0.990906,2.638733
2018-10-22T23:27:44.813181Z,-0.17395,-0.225769,-2.171143
2018-10-22T23:27:45.008181Z,-0.9348139999999999,0.624512,0.361755
2018-10-22T23:27:45.207181Z,-1.499634,-0.415466,-1.35907
2018-10-22T23:27:45.415181Z,-2.572693,-1.0808719999999998,0.485901
2018-10-22T23:27:45.610181Z,-2.489075,-0.50885,1.2056879999999999
2018-10-22T23:27:45.807181Z,-1.6522830000000002,1.286804,-0.451721
2018-10-22T23:27:46.008181Z,-0.537537,0.6408689999999999,0.214783
2018-10-22T23:27:46.209181Z,-1.8309939999999998,-1.1333010000000001,0.8517459999999999
2018-10-22T23:27:46.408181Z,-0.8518680000000001,0.014343,-0.030333999999999996
2018-10-22T23:27:46.616181Z,-0.789917,0.397949,-0.238831
2018-10-22T23:27:46.817181Z,-3.024048,-1.070007,1.2133180000000001
2018-10-22T23:27:47.014181Z,-2.018494,-0.768738,-1.589844
2018-10-22T23:27:47.208181Z,-2.1045529999999997,0.7242430000000001,-1.062317
2018-10-22T23:27:47.407181Z,-2.902405,-0.577209,-0.921509
2018-10-22T23:27:47.608181Z,-2.152039,0.47973599999999994,-1.78479
2018-10-22T23:27:47.807181Z,-0.9044190000000001,0.770874,-0.946472
2018-10-22T23:27:48.007181Z,-1.79895,0.714539,-0.6662600000000001
2018-10-22T23:27:48.212181Z,-0.699585,0.053894000000000004,-0.343567
2018-10-22T23:27:48.424181Z,0.33618200000000004,1.388916,-1.3082280000000002
2018-10-22T23:27:48.616181Z,-0.368042,1.040833,-0.035889
2018-10-22T23:27:48.808181Z,-0.666199,0.24432399999999999,0.289673
2018-10-22T23:27:49.008181Z,-0.802063,1.118652,-0.6653439999999999
2018-10-22T23:27:49.207181Z,-0.734741,2.555908,0.982117
2018-10-22T23:27:49.409181Z,-0.633362,-0.357117,-0.200073
2018-10-22T23:27:49.608181Z,-0.763428,0.37206999999999996,-1.592041
2018-10-22T23:27:49.849181Z,-1.712158,1.966248,1.103882
2018-10-22T23:27:50.011181Z,-0.8662719999999999,-1.434082,3.9290769999999995
2018-10-22T23:27:50.208181Z,0.719238,-0.76947,-0.9048459999999999
2018-10-22T23:27:50.407181Z,-1.529541,-0.310425,0.595093
2018-10-22T23:27:50.617181Z,-1.247009,-0.355286,0.492493
2018-10-22T23:27:50.805181Z,-2.173218,0.79303,0.28442399999999995
2018-10-22T23:27:51.010181Z,-1.049194,0.9218139999999999,-0.43512
2018-10-22T23:27:51.207181Z,0.059937,1.59552,-0.9995120000000001
2018-10-22T23:27:51.407181Z,0.443054,2.983765,2.258484
2018-10-22T23:27:51.606181Z,-1.6079709999999998,-1.7607419999999998,-0.742859
2018-10-22T23:27:51.807181Z,-1.1851200000000002,-1.647705,-1.176025
2018-10-22T23:27:52.008181Z,-0.681946,0.23266599999999998,-0.47351099999999996
2018-10-22T23:27:52.247181Z,-1.409912,-0.029113999999999998,0.174744
2018-10-22T23:27:52.410181Z,-0.107422,-0.9665530000000001,-1.076416
2018-10-22T23:27:52.610181Z,-0.757324,-0.8217770000000001,0.0802
2018-10-22T23:27:52.808181Z,0.612244,0.065674,-0.162048
2018-10-22T23:27:53.008181Z,0.943665,0.205688,-0.470276
2018-10-22T23:27:53.214181Z,2.009033,1.284424,2.379211
2018-10-22T23:27:53.409181Z,-3.4010620000000005,-0.347961,2.3137209999999997
2018-10-22T23:27:53.609181Z,-2.498108,-0.012512,-1.782532
2018-10-22T23:27:53.808181Z,-1.24115,-0.134827,-0.21814
2018-10-22T23:27:54.084181Z,-2.20874,0.22418200000000002,-0.143677
2018-10-22T23:27:54.206181Z,-0.947815,0.036743,-0.141541
2018-10-22T23:27:54.413181Z,-0.719971,-0.360901,-2.158936
2018-10-22T23:27:54.614181Z,-1.6083370000000001,0.796387,-0.269531
2018-10-22T23:27:54.807181Z,-0.532349,0.153198,-1.225159
2018-10-22T23:27:55.007181Z,-2.1254880000000003,1.8198849999999998,-0.942566
2018-10-22T23:27:55.208181Z,-1.6762700000000001,0.5292359999999999,-0.047607
2018-10-22T23:27:55.408181Z,-0.147949,-0.68158,0.294556
2018-10-22T23:27:55.609181Z,0.319519,-0.611694,1.31073
2018-10-22T23:27:55.808181Z,-0.037292,0.08404500000000001,0.215515
2018-10-22T23:27:56.010181Z,-0.24963400000000002,0.44397,-0.316772
2018-10-22T23:27:56.204181Z,-0.711121,-0.7875979999999999,1.5444950000000002
2018-10-22T23:27:56.409181Z,-1.314331,-0.790222,-0.000305
2018-10-22T23:27:56.609181Z,-1.6096190000000001,0.07739299999999999,0.070374
2018-10-22T23:27:56.808181Z,-1.203003,-0.189331,0.104675
2018-10-22T23:27:57.008181Z,0.470764,-0.7543949999999999,-1.341125
2018-10-22T23:27:57.206181Z,-0.160461,-0.24163800000000002,0.07366900000000001
2018-10-22T23:27:57.412181Z,0.07482899999999999,0.5249020000000001,-0.566589
2018-10-22T23:27:57.807181Z,-0.029907,0.13531500000000002,-0.401489
2018-10-22T23:27:58.007181Z,-0.921509,-1.055725,0.084534
2018-10-22T23:27:58.204181Z,-0.221191,-0.40564,0.392151
2018-10-22T23:27:58.484181Z,-0.35638400000000003,-0.23846399999999998,-0.343262
2018-10-22T23:27:58.614181Z,-0.157959,-0.055359000000000005,0.601929
2018-10-22T23:27:58.815181Z,-0.556702,0.557556,-0.270447
2018-10-22T23:27:59.014181Z,0.392273,-0.503418,-1.670959
2018-10-22T23:27:59.213181Z,0.371338,0.07019,-0.431396
2018-10-22T23:27:59.408181Z,-0.997375,-0.300354,0.275879
2018-10-22T23:27:59.608181Z,-0.060547000000000004,-0.278748,1.1634520000000002
2018-10-22T23:27:59.807181Z,-1.888611,0.26367199999999996,-0.657349
2018-10-22T23:28:00.007181Z,-0.6601560000000001,-0.718567,3.4428099999999997
2018-10-22T23:28:00.204181Z,2.218384,-0.361267,-0.12207
2018-10-22T23:28:00.411181Z,1.175476,1.61084,-5.750916
2018-10-22T23:28:00.616181Z,-1.7080689999999998,2.569641,0.19280999999999998
2018-10-22T23:28:00.810181Z,0.005005,0.846252,-1.194641
2018-10-22T23:28:01.007181Z,0.347839,-0.19397,4.690674
2018-10-22T23:28:01.204181Z,2.554626,0.14898699999999998,-0.48382600000000003
2018-10-22T23:28:01.404181Z,0.7418819999999999,1.017456,-0.760254
2018-10-22T23:28:01.614181Z,0.9221799999999999,0.701965,-0.036072
2018-10-22T23:28:01.814181Z,1.195129,0.807556,-0.519165
2018-10-22T23:28:02.006181Z,1.382141,1.4072879999999999,-0.797607
2018-10-22T23:28:02.206181Z,0.597168,2.232605,0.413879
2018-10-22T23:28:02.417181Z,0.090942,-0.30072,1.921631
2018-10-22T23:28:02.607181Z,0.160706,-0.592773,-1.818359
2018-10-22T23:28:02.807181Z,-0.922607,1.0961299999999998,-0.8573
2018-10-22T23:28:03.008181Z,-0.780029,0.925293,-0.414062
2018-10-22T23:28:03.207181Z,1.2453610000000002,0.307739,-1.0565799999999999
2018-10-22T23:28:03.406181Z,0.802551,0.204041,-1.990906
2018-10-22T23:28:03.607181Z,0.280579,1.495667,-0.55481
2018-10-22T23:28:03.807181Z,-0.32611100000000004,0.158997,0.8583370000000001
2018-10-22T23:28:04.007181Z,-0.561768,-1.386902,-0.708374
2018-10-22T23:28:04.207181Z,0.023132,0.319397,-0.137451
2018-10-22T23:28:04.403181Z,-0.12286400000000001,0.678772,1.034302
2018-10-22T23:28:04.608181Z,1.552368,-0.456909,-1.6931150000000001
2018-10-22T23:28:04.806181Z,1.03656,0.72467,-1.131836
2018-10-22T23:28:05.007181Z,0.700684,1.342224,-0.847168
2018-10-22T23:28:05.206181Z,1.06366,-1.9445189999999999,4.533386
2018-10-22T23:28:05.406181Z,0.179321,-1.756287,-0.9891969999999999
2018-10-22T23:28:05.607181Z,-0.306152,-1.018982,0.437866
2018-10-22T23:28:05.808181Z,-0.107422,-0.5706180000000001,-0.513733
2018-10-22T23:28:06.008181Z,0.395386,-0.481079,-0.46380600000000005
2018-10-22T23:28:06.208181Z,-0.235474,0.06304900000000001,0.840698
2018-10-22T23:28:06.405181Z,0.213562,0.29699699999999996,-0.152588
2018-10-22T23:28:06.632181Z,-0.009216,-0.083008,-0.44397
2018-10-22T23:28:06.808181Z,-0.085083,0.17938199999999999,-0.18548599999999998
2018-10-22T23:28:07.011181Z,0.269775,-0.011597,-0.459167
2018-10-22T23:28:07.207181Z,0.065674,0.059630999999999997,-0.42218
2018-10-22T23:28:07.407181Z,-0.170593,-0.032043,-0.425842
2018-10-22T23:28:07.625181Z,0.050293,0.269531,-0.311646
2018-10-22T23:28:07.808181Z,0.169922,0.15924100000000002,-0.07989500000000001
2018-10-22T23:28:08.007181Z,-0.697144,0.708069,-0.042847
2018-10-22T23:28:08.206181Z,-0.7653810000000001,1.2341309999999999,-0.121521
2018-10-22T23:28:08.413181Z,0.501587,1.024902,-0.369446
2018-10-22T23:28:08.607181Z,1.33606,-1.286743,-1.142334
2018-10-22T23:28:08.812181Z,0.903809,-0.336609,-1.295715
2018-10-22T23:28:09.007181Z,0.07482899999999999,1.253906,2.014038
2018-10-22T23:28:09.223181Z,-0.173157,0.16394,0.694397
2018-10-22T23:28:09.412181Z,-1.46228,-1.957886,-0.48730500000000004
2018-10-22T23:28:09.609181Z,-0.037415,-1.118042,-0.123474
2018-10-22T23:28:09.812181Z,-0.231934,-0.379456,-0.321472
2018-10-22T23:28:10.009181Z,0.600586,-0.071411,-0.2948
2018-10-22T23:28:10.210181Z,1.155273,1.4697879999999999,-1.328491
2018-10-22T23:28:10.411181Z,1.305237,1.347656,0.563721
2018-10-22T23:28:10.607181Z,-1.891357,-1.534851,-1.5333860000000001
2018-10-22T23:28:10.807181Z,-1.7257689999999999,-0.39569099999999996,-1.1047360000000002
2018-10-22T23:28:11.007181Z,-0.301208,-0.464417,0.6663819999999999
2018-10-22T23:28:11.207181Z,-1.17395,-0.9966430000000001,0.768921
2018-10-22T23:28:11.521181Z,-1.7257689999999999,-1.355286,1.26178
2018-10-22T23:28:11.605181Z,-1.3971559999999998,-1.116394,0.063599
2018-10-22T23:28:11.808181Z,-1.864502,-0.537354,0.091614
2018-10-22T23:28:12.007181Z,-2.815552,-0.22894299999999998,-0.43676800000000005
2018-10-22T23:28:12.206181Z,-2.922546,0.085632,0.127747
2018-10-22T23:28:12.408181Z,-2.384949,-0.130188,-1.9220580000000003
2018-10-22T23:28:12.607181Z,-2.506226,0.5979,-0.13006600000000001
2018-10-22T23:28:12.809181Z,-0.692383,-0.536194,0.220642
2018-10-22T23:28:13.009181Z,-0.472229,0.274292,-1.778503
2018-10-22T23:28:13.209181Z,-0.170776,1.9331669999999999,-0.258728
2018-10-22T23:28:13.409181Z,-0.62439,-0.485413,-1.787659
2018-10-22T23:28:13.609181Z,-0.270935,0.929443,-1.0608520000000001
2018-10-22T23:28:13.809181Z,0.43158,-0.721558,-0.013489
2018-10-22T23:28:14.210181Z,-0.572327,-0.008789,-1.35907
2018-10-22T23:28:14.410181Z,-2.2006229999999998,0.134705,-0.034973000000000004
2018-10-22T23:28:14.605181Z,-1.718384,-1.563049,1.634766
2018-10-22T23:28:14.819181Z,-0.664612,-1.2704469999999999,0.376587
2018-10-22T23:28:15.011181Z,-0.26263400000000003,-0.721741,0.11413599999999999
2018-10-22T23:28:15.212181Z,0.030762,0.9780270000000001,0.195251
2018-10-22T23:28:15.415181Z,-0.079712,0.8319700000000001,0.152832
2018-10-22T23:28:15.614181Z,-0.40313699999999997,-0.844543,1.644165
2018-10-22T23:28:15.805181Z,-1.7205810000000001,-1.0191649999999999,-0.22979699999999997
2018-10-22T23:28:16.007181Z,-1.099915,0.14721700000000001,-1.018433
2018-10-22T23:28:16.207181Z,-0.28881799999999996,-0.383972,-0.17040999999999998
2018-10-22T23:28:16.414181Z,0.9245610000000001,0.23663299999999998,-1.744446
2018-10-22T23:28:16.614181Z,-0.407837,0.52417,-1.0498049999999999
2018-10-22T23:28:16.815181Z,0.45184300000000005,1.13269,0.241821
2018-10-22T23:28:17.007181Z,-1.168457,-1.926941,3.20343
2018-10-22T23:28:17.208181Z,-1.030334,-1.410583,-0.866333
2018-10-22T23:28:17.412181Z,-0.19531199999999999,-0.798401,-0.330872
2018-10-22T23:28:17.607181Z,-0.8952030000000001,-0.6229859999999999,0.026306
2018-10-22T23:28:17.808181Z,-0.177673,-0.45776400000000006,-0.803894
2018-10-22T23:28:18.027181Z,-1.018677,0.17724600000000001,1.305115
2018-10-22T23:28:18.207181Z,-1.893127,-0.07428,-0.345398
2018-10-22T23:28:18.408181Z,-2.196655,-0.349976,-0.999817
2018-10-22T23:28:18.609181Z,-1.534546,-0.05658,-0.325867
2018-10-22T23:28:18.808181Z,-0.096252,-0.211731,-0.229919
2018-10-22T23:28:19.007181Z,0.37902800000000003,-0.012512,-1.341919
2018-10-22T23:28:19.207181Z,-0.695923,1.068054,0.32250999999999996
2018-10-22T23:28:19.407181Z,-0.818481,-0.379211,-0.242065
2018-10-22T23:28:19.607181Z,-0.667175,-1.362671,-0.86145
2018-10-22T23:28:19.807181Z,-0.62207,-0.582581,0.096924
2018-10-22T23:28:20.005181Z,-0.6793819999999999,0.22143600000000002,-0.069763
2018-10-22T23:28:20.280181Z,-1.016907,0.001221,0.059387
2018-10-22T23:28:20.414181Z,-0.45752,-0.5543819999999999,0.283875
2018-10-22T23:28:20.613181Z,0.278992,-0.630005,0.355164
2018-10-22T23:28:20.814181Z,0.43249499999999996,0.43536400000000003,-0.329712
2018-10-22T23:28:21.010181Z,1.253296,0.738525,0.277832
2018-10-22T23:28:21.214181Z,-0.27063000000000004,1.238831,0.015441999999999999
2018-10-22T23:28:21.413181Z,-0.716797,-1.126831,-1.704834
2018-10-22T23:28:21.625181Z,-0.10528599999999999,-0.801208,-0.513
2018-10-22T23:28:21.808181Z,-0.7276,0.486206,-0.352173
2018-10-22T23:28:22.007181Z,-0.448853,0.646729,0.415771
2018-10-22T23:28:22.207181Z,1.4453120000000002,-0.25006100000000003,-1.771118
2018-10-22T23:28:22.407181Z,1.5668950000000001,-0.405457,-2.1519779999999997
2018-10-22T23:28:22.659181Z,1.4483030000000001,0.779846,-0.308044
2018-10-22T23:28:22.808181Z,0.427551,-0.305725,0.760803
2018-10-22T23:28:23.007181Z,1.034241,-0.639893,-0.229309
2018-10-22T23:28:23.208181Z,0.066772,0.618713,-0.517517
2018-10-22T23:28:23.409181Z,-0.589233,1.191467,-0.568481
2018-10-22T23:28:23.608181Z,-0.556335,1.61261,0.15625
2018-10-22T23:28:23.807181Z,-0.028748000000000003,-0.47467,1.51416
2018-10-22T23:28:24.006181Z,0.749268,-0.18103,0.354919
2018-10-22T23:28:24.207181Z,0.345398,0.8652340000000001,-0.282532
2018-10-22T23:28:24.407181Z,0.314209,0.65387,0.337097
2018-10-22T23:28:24.607181Z,0.028076,-1.2903440000000002,1.0515139999999998
2018-10-22T23:28:24.813181Z,-0.7287600000000001,-0.441833,-1.024841
2018-10-22T23:28:25.013181Z,-0.8350219999999999,0.09350599999999999,0.18066400000000002
2018-10-22T23:28:25.204181Z,0.187866,-0.13830599999999998,0.132629
2018-10-22T23:28:25.414181Z,0.7224729999999999,-0.497925,-0.664856
2018-10-22T23:28:25.616181Z,-0.07006799999999999,-0.223206,-1.053345
2018-10-22T23:28:25.810181Z,-0.522217,0.242615,0.291626
2018-10-22T23:28:26.027181Z,-1.552063,-1.214783,2.914185
2018-10-22T23:28:26.206181Z,-0.716858,-1.215088,0.692932
2018-10-22T23:28:26.407181Z,-0.594849,0.0177,0.007384999999999999
2018-10-22T23:28:26.606181Z,-0.839722,0.40429699999999996,0.038939999999999995
2018-10-22T23:28:26.807181Z,-0.22723400000000002,-1.2301030000000002,0.436646
2018-10-22T23:28:27.008181Z,-0.5938720000000001,-0.984741,1.559082
2018-10-22T23:28:27.411181Z,-0.11718800000000001,-0.35638400000000003,-0.128479
2018-10-22T23:28:27.613181Z,-0.46801800000000005,0.773071,0.22418200000000002
2018-10-22T23:28:27.817181Z,-1.412903,-1.471619,1.811157
2018-10-22T23:28:28.100181Z,-1.594727,-1.9473880000000001,0.12793
2018-10-22T23:28:28.208181Z,-1.842957,-0.566833,0.548157
2018-10-22T23:28:28.415181Z,-0.655518,-0.076416,0.184326
2018-10-22T23:28:28.623181Z,-0.3396,-1.516174,-0.311096
2018-10-22T23:28:28.811181Z,-0.020508000000000002,-0.53064,-0.040770999999999995
2018-10-22T23:28:29.016181Z,-0.594055,0.352051,-0.705322
2018-10-22T23:28:29.206181Z,-0.14263900000000002,0.47131300000000004,0.041382
2018-10-22T23:28:29.405181Z,-0.209839,-0.40869099999999997,0.27563499999999996
2018-10-22T23:28:29.607181Z,-1.072754,-1.4320680000000001,-0.619446
2018-10-22T23:28:29.807181Z,-0.929688,-0.304688,-1.095459
2018-10-22T23:28:30.007181Z,-0.986023,0.346619,-0.855713
2018-10-22T23:28:30.215181Z,-0.271851,-0.411621,0.181519
2018-10-22T23:28:30.406181Z,0.260376,-1.269775,0.478455
2018-10-22T23:28:30.607181Z,-0.757263,-0.33361799999999997,0.684631
2018-10-22T23:28:30.810181Z,-0.339539,0.508972,0.571411
2018-10-22T23:28:31.007181Z,-1.0878299999999999,-1.438782,2.337891
2018-10-22T23:28:31.211181Z,-0.6461180000000001,-1.2803959999999999,-0.34570300000000004
2018-10-22T23:28:31.412181Z,-0.8928219999999999,-0.071838,-0.8731690000000001
2018-10-22T23:28:31.608181Z,0.78595,-0.137512,-0.176331
2018-10-22T23:28:31.808181Z,-0.492676,-1.326904,1.204041
2018-10-22T23:28:32.012181Z,-0.42865,0.10790999999999999,0.542786
2018-10-22T23:28:32.207181Z,-0.468384,-0.027710000000000002,0.019714
2018-10-22T23:28:32.407181Z,-0.10638399999999999,-1.8869630000000002,-1.103394
2018-10-22T23:28:32.607181Z,-1.129578,-0.52594,-0.29125999999999996
2018-10-22T23:28:32.806181Z,-0.187378,-0.03717,1.105652
2018-10-22T23:28:33.007181Z,-1.2329709999999998,-1.6605830000000001,0.263977
2018-10-22T23:28:33.207181Z,-1.607666,-0.731323,-1.0855709999999998
2018-10-22T23:28:33.408181Z,-2.438354,-0.485962,-0.455383
2018-10-22T23:28:33.608181Z,-2.521912,-2.221191,-0.78186
2018-10-22T23:28:33.808181Z,-2.317566,-1.0384520000000002,-2.008911
2018-10-22T23:28:34.015181Z,-1.7224119999999998,0.46801800000000005,-0.659363
2018-10-22T23:28:34.209181Z,-2.458008,-0.7931520000000001,3.3833620000000004
2018-10-22T23:28:34.408181Z,-2.214111,-0.298584,-2.023132
2018-10-22T23:28:34.616181Z,-2.202881,0.894287,-0.015747
2018-10-22T23:28:34.813181Z,-0.812561,1.8819580000000002,0.190735
2018-10-22T23:28:35.012181Z,-3.2997440000000005,-0.6542359999999999,1.533875
2018-10-22T23:28:35.215181Z,-3.9337160000000004,-0.473145,-0.59137
2018-10-22T23:28:35.407181Z,-1.403015,0.554077,-0.37390100000000004
2018-10-22T23:28:35.612181Z,0.451294,1.063843,-1.034119
2018-10-22T23:28:35.836181Z,-0.624268,1.727112,-0.525146
2018-10-22T23:28:36.015181Z,-0.729492,0.9575809999999999,-0.688477
2018-10-22T23:28:36.210181Z,-0.9899899999999999,1.1380620000000001,-0.872986
2018-10-22T23:28:36.412181Z,-1.349792,0.767578,-0.251709
2018-10-22T23:28:36.608181Z,-2.471619,1.0802610000000001,-1.347351
2018-10-22T23:28:36.808181Z,-1.371399,1.9509279999999998,-0.941528
2018-10-22T23:28:37.007181Z,-0.21215799999999999,2.242249,-0.041992
2018-10-22T23:28:37.208181Z,-0.616577,-0.184998,0.930359
2018-10-22T23:28:37.408181Z,-0.047363,0.575012,-1.088196
2018-10-22T23:28:37.607181Z,-0.359802,1.568726,-0.19342
2018-10-22T23:28:37.809181Z,-0.740417,0.763672,0.6781010000000001
2018-10-22T23:28:38.013181Z,-2.163452,-0.659241,1.155701
2018-10-22T23:28:38.215181Z,-0.33252,0.643188,-0.328857
2018-10-22T23:28:38.413181Z,-0.758606,-0.174622,2.7046509999999997
2018-10-22T23:28:38.605181Z,0.623596,0.38147,-1.5883180000000001
2018-10-22T23:28:38.807181Z,-0.17236300000000002,0.8981319999999999,-0.6313479999999999
2018-10-22T23:28:39.007181Z,0.526306,0.6176149999999999,-0.443787
2018-10-22T23:28:39.206181Z,-1.602417,0.065308,-0.9494020000000001
2018-10-22T23:28:39.415181Z,-2.264343,1.023254,0.132629
2018-10-22T23:28:39.608181Z,-0.9688110000000001,1.812195,-0.22418200000000002
2018-10-22T23:28:39.808181Z,0.139709,1.358459,0.504333
2018-10-22T23:28:40.007181Z,0.470459,-0.380737,0.218079
2018-10-22T23:28:40.207181Z,-0.150696,0.997925,-1.449036
2018-10-22T23:28:40.416181Z,-0.684692,1.554871,0.375916
2018-10-22T23:28:40.609181Z,-0.580444,-0.273926,-3.007874
2018-10-22T23:28:41.033181Z,-1.075928,0.42248500000000005,-1.851379
2018-10-22T23:28:41.207181Z,-0.22607399999999997,1.295105,1.091797
2018-10-22T23:28:41.408181Z,-0.980408,-0.045166000000000005,0.545227
2018-10-22T23:28:41.607181Z,-0.59082,0.441895,-0.858643
2018-10-22T23:28:41.808181Z,-0.311523,0.76886,-0.573425
2018-10-22T23:28:42.004181Z,-0.784485,-0.759949,-1.588257
2018-10-22T23:28:42.207181Z,-0.916748,-0.360657,-1.307129
2018-10-22T23:28:42.410181Z,-0.8197629999999999,0.8922120000000001,-0.664795
2018-10-22T23:28:42.607181Z,-0.41711400000000004,0.49902299999999994,-0.24151599999999998
2018-10-22T23:28:42.893181Z,-1.3707280000000002,-1.038635,1.1026
2018-10-22T23:28:43.003181Z,0.709106,-1.854614,-1.0475459999999999
2018-10-22T23:28:43.213181Z,-0.536377,-0.42492700000000005,0.5993649999999999
2018-10-22T23:28:43.421181Z,-0.12506099999999998,0.37316900000000003,-0.8374020000000001
2018-10-22T23:28:43.613181Z,-0.343384,0.5524899999999999,0.082214
2018-10-22T23:28:43.815181Z,-0.234131,0.064148,0.122925
2018-10-22T23:28:44.005181Z,-0.80188,0.705078,-0.480713
2018-10-22T23:28:44.212181Z,0.085754,1.095947,-0.7886350000000001
2018-10-22T23:28:44.409181Z,-0.35943600000000003,1.235962,0.600525
2018-10-22T23:28:44.608181Z,-0.705322,-1.073425,0.855225
2018-10-22T23:28:44.808181Z,-0.951965,-1.224609,-0.238037
2018-10-22T23:28:45.022181Z,-0.779541,0.474304,-0.8449709999999999
2018-10-22T23:28:45.212181Z,-0.269348,-0.411804,-0.39093
2018-10-22T23:28:45.405181Z,-1.233276,-1.433899,0.018066
2018-10-22T23:28:45.609181Z,-1.0401610000000001,-0.524963,0.42456099999999997
2018-10-22T23:28:45.807181Z,-1.411438,-1.0687870000000002,1.556274
2018-10-22T23:28:46.006181Z,-2.454285,-1.301392,-0.001038
2018-10-22T23:28:46.207181Z,-0.832092,-0.395325,-0.484192
2018-10-22T23:28:46.407181Z,-0.8369139999999999,-0.583496,-0.889648
2018-10-22T23:28:46.605181Z,-0.6474,-0.512878,-0.462524
2018-10-22T23:28:46.813181Z,-0.899597,-0.030945,-0.528137
2018-10-22T23:28:47.028181Z,-0.760559,0.119202,-0.121887
2018-10-22T23:28:47.214181Z,-1.0584719999999999,-0.032593000000000004,-0.31237800000000004
2018-10-22T23:28:47.408181Z,-0.575195,0.221741,-0.115784
2018-10-22T23:28:47.608181Z,-0.989441,0.5193479999999999,-0.370239
2018-10-22T23:28:47.808181Z,-0.396729,0.372925,-0.447937
2018-10-22T23:28:48.009181Z,-0.096558,-0.811096,0.818665
2018-10-22T23:28:48.208181Z,0.429871,-1.667603,0.399475
2018-10-22T23:28:48.414181Z,-0.166138,0.11108399999999999,0.254395
2018-10-22T23:28:48.617181Z,0.105957,0.297302,0.42401099999999997
2018-10-22T23:28:48.815181Z,-1.262573,-0.551636,1.177185
2018-10-22T23:28:49.018181Z,-0.9014280000000001,-0.913574,-1.117126
2018-10-22T23:28:49.209181Z,-0.514893,0.435486,0.46002200000000004
2018-10-22T23:28:49.407181Z,-1.445251,-1.241455,3.719482
2018-10-22T23:28:49.607181Z,0.318359,-0.518494,-2.4380490000000004
2018-10-22T23:28:49.806181Z,0.11114500000000001,0.427368,0.141968
2018-10-22T23:28:50.008181Z,-2.050781,-1.7014770000000001,2.973938
2018-10-22T23:28:50.213181Z,-0.010437,-0.8851319999999999,-0.9230959999999999
2018-10-22T23:28:50.410181Z,-1.03595,0.27771,-0.783691
2018-10-22T23:28:50.613181Z,0.234314,-1.3035889999999999,1.41095
2018-10-22T23:28:50.808181Z,0.550659,-1.380188,-1.291382
2018-10-22T23:28:51.024181Z,-0.291077,0.9157709999999999,0.813416
2018-10-22T23:28:51.211181Z,-0.5483399999999999,-0.5193479999999999,3.000916
2018-10-22T23:28:51.415181Z,0.10693399999999999,-1.8665770000000002,-0.52533
2018-10-22T23:28:51.614181Z,-0.149536,0.039124,-1.172974
2018-10-22T23:28:51.808181Z,1.11676,-0.45080600000000004,-0.62207
2018-10-22T23:28:52.010181Z,1.04657,-1.184082,0.41125500000000004
2018-10-22T23:28:52.207181Z,0.385376,0.799072,0.952942
2018-10-22T23:28:52.463181Z,0.345947,0.037537,0.910889
2018-10-22T23:28:52.605181Z,0.11084000000000001,-1.7403560000000002,0.913452
2018-10-22T23:28:52.808181Z,0.850342,0.334412,0.081787
2018-10-22T23:28:53.007181Z,1.0902100000000001,0.757263,1.093628
2018-10-22T23:28:53.207181Z,2.060669,-0.480774,-0.9669190000000001
2018-10-22T23:28:53.408181Z,1.539612,1.222595,-0.354004
2018-10-22T23:28:53.617181Z,0.818237,1.514465,-0.518433
2018-10-22T23:28:53.809181Z,0.748352,-0.391479,-2.003479
2018-10-22T23:28:54.206181Z,0.611267,0.9254760000000001,-1.0570680000000001
2018-10-22T23:28:54.409181Z,0.921265,0.806213,0.594299
2018-10-22T23:28:54.675181Z,1.9825439999999999,-0.472473,-0.21844499999999997
2018-10-22T23:28:54.809181Z,1.227966,0.953369,0.909546
2018-10-22T23:28:55.008181Z,0.632446,1.276062,0.059142999999999994
2018-10-22T23:28:55.213181Z,0.10986300000000002,0.104065,0.677063
2018-10-22T23:28:55.421181Z,0.942139,-0.049988,-0.56604
2018-10-22T23:28:55.617181Z,0.734314,1.1460569999999999,0.27636700000000003
2018-10-22T23:28:55.809181Z,-0.548096,-0.513123,4.684875
2018-10-22T23:28:56.008181Z,1.439575,0.722717,-1.969971
2018-10-22T23:28:56.226181Z,0.466553,1.499207,0.30090300000000003
2018-10-22T23:28:56.413181Z,0.144897,-0.068176,2.017212
2018-10-22T23:28:56.615181Z,1.502014,0.538208,-1.515259
2018-10-22T23:28:56.808181Z,0.326782,1.462646,0.033997
2018-10-22T23:28:57.007181Z,0.8829959999999999,-0.036255,3.3605959999999997
2018-10-22T23:28:57.207181Z,1.344116,1.371643,-1.734863
2018-10-22T23:28:57.408181Z,-0.06854199999999999,2.598633,0.46795699999999996
2018-10-22T23:28:57.610181Z,0.033569,0.087585,-0.113525
2018-10-22T23:28:57.808181Z,1.1621700000000001,0.401978,-2.315369
2018-10-22T23:28:58.013181Z,0.050903,2.029175,0.367004
2018-10-22T23:28:58.249181Z,0.8103640000000001,0.319092,0.232727
2018-10-22T23:28:58.409181Z,1.113586,1.55365,-1.8756099999999998
2018-10-22T23:28:58.608181Z,-1.1694950000000002,2.14447,0.5547489999999999
2018-10-22T23:28:58.830181Z,-0.019348,0.37554899999999997,-1.700134
2018-10-22T23:28:59.011181Z,0.427307,0.980347,-1.6455689999999998
2018-10-22T23:28:59.208181Z,0.103027,1.368347,0.531311
2018-10-22T23:28:59.416181Z,-0.07074,-0.020263999999999997,1.4620360000000001
2018-10-22T23:28:59.607181Z,0.970093,1.409363,-0.672241
2018-10-22T23:28:59.807181Z,0.628113,1.9017939999999998,0.003479
2018-10-22T23:29:00.007181Z,0.704773,-0.5273439999999999,1.424194
2018-10-22T23:29:00.215181Z,1.048767,-0.248779,0.028381
2018-10-22T23:29:00.409181Z,-0.050963999999999995,0.060486,-0.48120100000000005
2018-10-22T23:29:00.608181Z,-1.265076,-0.22821,-1.272034
2018-10-22T23:29:00.807181Z,0.16650399999999999,0.855225,-1.1363530000000002
2018-10-22T23:29:01.006181Z,-1.2982790000000002,1.493591,0.346436
2018-10-22T23:29:01.209181Z,-0.31756599999999996,2.631409,-0.682129
2018-10-22T23:29:01.408181Z,-0.835449,1.74469,0.6035159999999999
2018-10-22T23:29:01.607181Z,-1.8886720000000001,-0.49768100000000004,0.20751999999999998
2018-10-22T23:29:01.815181Z,-1.028259,1.165771,-0.9001459999999999
2018-10-22T23:29:02.007181Z,-0.450928,1.591797,-0.049561
2018-10-22T23:29:02.213181Z,-0.421814,-0.37683099999999997,-0.045349
2018-10-22T23:29:02.415181Z,-1.110962,1.0582280000000002,-0.287964
2018-10-22T23:29:02.632181Z,-0.678772,-0.264832,-1.9094240000000002
2018-10-22T23:29:02.811181Z,-1.212402,-1.310608,-0.9326780000000001
2018-10-22T23:29:03.012181Z,-0.389099,-0.752197,-0.06842000000000001
2018-10-22T23:29:03.209181Z,-0.42303500000000005,1.182922,0.102173
2018-10-22T23:29:03.413181Z,-2.348694,0.016479,3.239868
2018-10-22T23:29:03.607181Z,-1.325684,2.175354,0.076538
2018-10-22T23:29:03.809181Z,0.11370799999999999,1.312378,0.17108199999999998
2018-10-22T23:29:04.007181Z,-0.209412,0.026123,1.3040770000000002
2018-10-22T23:29:04.210181Z,-0.608765,0.9795530000000001,-1.313782
2018-10-22T23:29:04.407181Z,-0.49279799999999996,1.6152950000000001,-0.434021
2018-10-22T23:29:04.613181Z,-1.268921,-1.161499,0.66217
2018-10-22T23:29:04.825181Z,-0.731079,-0.324707,-0.810791
2018-10-22T23:29:05.008181Z,-1.162598,0.171631,-0.428284
2018-10-22T23:29:05.216181Z,-1.444641,0.663025,-0.931335
2018-10-22T23:29:05.407181Z,-0.699036,0.8543700000000001,-1.342773
2018-10-22T23:29:05.612181Z,-0.665466,-0.43218999999999996,1.167969
2018-10-22T23:29:05.808181Z,-0.8286129999999999,2.2532959999999997,0.595276
2018-10-22T23:29:06.008181Z,-0.699707,1.598206,0.347534
2018-10-22T23:29:06.208181Z,-1.310303,-1.8214720000000002,-0.125366
2018-10-22T23:29:06.404181Z,-0.75531,-0.082947,-1.508667
2018-10-22T23:29:06.606181Z,-0.520508,1.121094,-0.6522220000000001
2018-10-22T23:29:06.817181Z,0.176025,0.43505900000000003,-0.088562
2018-10-22T23:29:07.004181Z,-0.56897,-0.629333,0.111023
2018-10-22T23:29:07.206181Z,-0.9019780000000001,0.44061300000000003,0.661804
2018-10-22T23:29:07.410181Z,-0.624268,0.60907,-0.973999
2018-10-22T23:29:07.605181Z,-0.646606,-1.265564,-2.212646
2018-10-22T23:29:07.805181Z,-0.657776,-0.8524780000000001,0.809326
2018-10-22T23:29:08.005181Z,-1.7879029999999998,0.235657,0.872742
2018-10-22T23:29:08.204181Z,-0.511658,0.032654,-0.35083000000000003
2018-10-22T23:29:08.407181Z,-0.28070100000000003,0.21911599999999998,-0.197998
2018-10-22T23:29:08.609181Z,-0.283447,0.0031739999999999997,-0.190735
2018-10-22T23:29:08.807181Z,-0.367859,0.288086,-0.135132
2018-10-22T23:29:09.008181Z,-0.332092,0.307861,-0.118591
2018-10-22T23:29:09.207181Z,-0.45013400000000003,-0.019958,-0.17236300000000002
2018-10-22T23:29:09.607181Z,-0.263428,0.116699,0.436829
2018-10-22T23:29:09.807181Z,-0.219543,0.013123,-0.29888899999999996
2018-10-22T23:29:10.007181Z,-0.22351100000000002,-0.325378,0.067688
2018-10-22T23:29:10.211181Z,-0.867188,1.2141110000000002,-3.342773
2018-10-22T23:29:10.407181Z,-0.380981,-0.34314,0.011840999999999999
2018-10-22T23:29:10.604181Z,0.339417,-0.22589099999999998,0.401123
2018-10-22T23:29:10.806181Z,-0.405212,0.120178,-0.756287
2018-10-22T23:29:11.016181Z,-0.218994,0.24585,-0.101135
2018-10-22T23:29:11.206181Z,0.041076999999999995,-0.056458,-0.265015
2018-10-22T23:29:11.431181Z,-0.584167,0.714172,-1.835266
2018-10-22T23:29:11.607181Z,-0.25549299999999997,-0.20581100000000002,0.048767000000000005
2018-10-22T23:29:11.811181Z,-0.433167,0.43243400000000004,-0.232544
2018-10-22T23:29:12.009181Z,-0.265991,0.357239,-0.597534
2018-10-22T23:29:12.210181Z,0.20697,0.319153,0.319031
2018-10-22T23:29:12.408181Z,-0.927124,0.376526,0.050842
2018-10-22T23:29:12.608181Z,-0.5703739999999999,0.290222,1.239136
2018-10-22T23:29:12.807181Z,1.0047,-0.1745,0.527039
2018-10-22T23:29:13.008181Z,-0.820435,0.813599,0.125549
2018-10-22T23:29:13.204181Z,-0.018677000000000003,-1.128235,1.967834
2018-10-22T23:29:13.413181Z,-0.168762,-0.26879899999999995,0.303345
2018-10-22T23:29:13.613181Z,0.44458000000000003,0.209229,0.025085
2018-10-22T23:29:13.813181Z,0.194641,0.814575,-0.11071800000000001
2018-10-22T23:29:14.007181Z,0.18896500000000002,0.042602999999999995,1.338257
2018-10-22T23:29:14.207181Z,-1.625,-0.562805,-0.438416
2018-10-22T23:29:14.408181Z,-0.539978,1.1697389999999999,-2.404541
2018-10-22T23:29:14.607181Z,0.8538819999999999,0.357483,0.17749
2018-10-22T23:29:14.808181Z,-1.143616,-1.153992,0.251282
2018-10-22T23:29:15.009181Z,-1.7960209999999999,-1.087402,1.126953
