Datetime,accx,accy,accz
2018-10-16T23:35:56.352023Z,1.40686,3.261414,-0.81488
2018-10-16T23:35:56.552023Z,-0.479126,-2.289001,0.9140010000000001
2018-10-16T23:35:56.753023Z,1.3588870000000002,-0.8731690000000001,0.097839
2018-10-16T23:35:56.953023Z,0.289246,-1.133118,0.415466
2018-10-16T23:35:57.153023Z,0.713013,-0.9870610000000001,-0.646606
2018-10-16T23:35:57.354023Z,0.353088,0.083923,0.729614
2018-10-16T23:35:57.552023Z,1.358582,0.7016600000000001,-0.770935
2018-10-16T23:35:57.752023Z,-0.417175,1.1557620000000002,-1.182556
2018-10-16T23:35:57.952023Z,-0.922974,0.628113,-1.090393
2018-10-16T23:35:58.352023Z,-0.6929930000000001,1.11322,-0.536499
2018-10-16T23:35:58.552023Z,0.573792,1.2335209999999999,0.037048000000000005
2018-10-16T23:35:58.800023Z,-0.73645,0.18988,0.35131799999999996
2018-10-16T23:35:58.952023Z,-0.505005,0.5136109999999999,0.047852
2018-10-16T23:35:59.152023Z,-1.438477,-0.26532,-0.277649
2018-10-16T23:35:59.353023Z,-0.77594,0.115784,-0.10424800000000001
2018-10-16T23:35:59.554023Z,0.315918,0.242615,-0.17981
2018-10-16T23:35:59.753023Z,1.409241,0.040039,-0.344543
2018-10-16T23:35:59.953023Z,0.038086,0.28179899999999997,0.6838380000000001
2018-10-16T23:36:00.154023Z,0.110046,0.9658200000000001,-0.981506
2018-10-16T23:36:00.355023Z,-0.515137,0.7874760000000001,-0.28308099999999997
2018-10-16T23:36:00.553023Z,-1.381897,-1.064941,-1.7742310000000001
2018-10-16T23:36:00.752023Z,-0.484192,0.287842,-0.117798
2018-10-16T23:36:00.953023Z,1.210754,0.640625,-0.08673099999999999
2018-10-16T23:36:01.152023Z,-0.053772,-0.57782,1.800415
2018-10-16T23:36:01.352023Z,-0.383484,1.021484,-0.264465
2018-10-16T23:36:01.552023Z,-1.703064,0.9651489999999999,0.280945
2018-10-16T23:36:01.752023Z,-0.10845899999999999,-0.467834,-1.601013
2018-10-16T23:36:01.951023Z,-0.540894,1.026062,-1.757568
2018-10-16T23:36:02.151023Z,0.076538,-1.082642,2.285767
2018-10-16T23:36:02.352023Z,-0.6621090000000001,0.171448,-0.43060299999999996
2018-10-16T23:36:02.553023Z,0.19433599999999998,0.693054,0.716492
2018-10-16T23:36:02.812023Z,-0.666931,-1.1608889999999998,1.302856
2018-10-16T23:36:02.957023Z,-0.513428,-0.40448,-1.519409
2018-10-16T23:36:03.157023Z,0.020508000000000002,0.702209,1.331909
2018-10-16T23:36:03.355023Z,0.473022,-0.281616,1.432495
2018-10-16T23:36:03.553023Z,0.285889,0.10363800000000001,-1.5878299999999999
2018-10-16T23:36:03.753023Z,-0.821472,0.427734,2.1129759999999997
2018-10-16T23:36:03.953023Z,0.182373,-2.182922,1.3215940000000002
2018-10-16T23:36:04.153023Z,-4.703308,1.306274,-0.095276
2018-10-16T23:36:04.353023Z,1.914551,-2.72998,-0.756897
2018-10-16T23:36:04.553023Z,-1.5827639999999998,-0.6267699999999999,2.2741700000000002
2018-10-16T23:36:04.757023Z,-0.439575,-0.738647,0.195374
2018-10-16T23:36:04.952023Z,-0.027832,0.159973,0.9912719999999999
2018-10-16T23:36:05.152023Z,-0.804688,0.194153,0.200928
2018-10-16T23:36:05.352023Z,-0.735413,-1.0883180000000001,-0.319275
2018-10-16T23:36:05.553023Z,-0.744324,-0.366821,-0.51947
2018-10-16T23:36:05.752023Z,-0.16406199999999999,-0.10607899999999999,-0.075684
2018-10-16T23:36:05.952023Z,-0.46606400000000003,0.498779,-0.002869
2018-10-16T23:36:06.153023Z,-0.400391,0.375427,-0.526978
2018-10-16T23:36:06.365023Z,0.31054699999999996,-0.414124,0.918823
2018-10-16T23:36:06.563023Z,0.469788,-0.349731,0.313843
2018-10-16T23:36:06.763023Z,0.20855700000000002,0.212402,-0.8764040000000001
2018-10-16T23:36:06.967023Z,-0.14721700000000001,0.832642,0.770081
2018-10-16T23:36:07.163023Z,-1.12915,-1.2208860000000001,2.891418
2018-10-16T23:36:07.363023Z,-0.097412,-0.9587399999999999,-1.440552
2018-10-16T23:36:07.564023Z,0.04425,0.492004,0.099915
2018-10-16T23:36:07.762023Z,0.0061649999999999995,-0.9776610000000001,0.5683590000000001
2018-10-16T23:36:07.962023Z,-1.0101930000000001,-0.8666379999999999,-1.666504
2018-10-16T23:36:08.162023Z,-1.076904,-0.467346,-2.1454470000000003
2018-10-16T23:36:08.364023Z,0.541504,-2.0130619999999997,4.101807
2018-10-16T23:36:08.567023Z,-1.328491,-1.481384,1.154663
2018-10-16T23:36:08.762023Z,-1.58136,-0.316101,-0.534302
2018-10-16T23:36:08.962023Z,-0.457825,0.44848599999999994,-0.350342
2018-10-16T23:36:09.162023Z,-0.431519,-0.235779,0.469421
2018-10-16T23:36:09.364023Z,-0.47876,-0.869812,-0.5610350000000001
2018-10-16T23:36:09.563023Z,-0.715881,-0.176086,-0.607117
2018-10-16T23:36:09.764023Z,-0.633301,0.067383,0.311157
2018-10-16T23:36:09.970023Z,-0.884949,-1.0352780000000001,-0.033264
2018-10-16T23:36:10.162023Z,-1.293762,-1.221008,-0.8620610000000001
2018-10-16T23:36:10.363023Z,-1.283142,-0.018066,0.083496
2018-10-16T23:36:10.563023Z,-1.7543330000000001,0.9938959999999999,-0.760925
2018-10-16T23:36:10.763023Z,-0.689026,0.748718,-0.31262199999999996
2018-10-16T23:36:10.964023Z,-1.518127,-0.148254,1.98291
2018-10-16T23:36:11.163023Z,-0.371399,-1.177246,0.554932
2018-10-16T23:36:11.362023Z,-0.373474,0.00824,-0.6245729999999999
2018-10-16T23:36:11.563023Z,-1.125305,0.39117399999999997,-0.32000700000000004
2018-10-16T23:36:11.761023Z,-2.344055,-0.583435,-1.4696040000000001
2018-10-16T23:36:11.962023Z,-2.252136,0.44891400000000004,-1.3255620000000001
2018-10-16T23:36:12.162023Z,-1.490723,0.296631,-0.179565
2018-10-16T23:36:12.363023Z,-1.131592,-0.14593499999999998,0.08770800000000001
2018-10-16T23:36:12.762023Z,-2.50946,0.2005,-4.8172
2018-10-16T23:36:12.966023Z,-1.212341,-0.8388059999999999,-0.549805
2018-10-16T23:36:13.163023Z,-1.889832,0.46106,-0.128662
2018-10-16T23:36:13.363023Z,-0.996826,-0.530396,-1.3859860000000002
2018-10-16T23:36:13.563023Z,-1.549866,-0.828308,-1.008728
2018-10-16T23:36:13.763023Z,-1.888916,1.0109860000000002,1.243652
2018-10-16T23:36:13.962023Z,-2.057434,0.43695100000000003,-1.396851
2018-10-16T23:36:14.164023Z,-0.876099,1.052124,-0.421021
2018-10-16T23:36:14.371023Z,-1.6088870000000002,1.467224,0.324768
2018-10-16T23:36:14.562023Z,-0.937683,0.48547399999999996,-0.436646
2018-10-16T23:36:14.761023Z,-0.073181,0.480286,-2.893311
2018-10-16T23:36:14.962023Z,-1.289856,2.0738529999999997,0.364563
2018-10-16T23:36:15.163023Z,-1.350769,1.167114,0.417969
2018-10-16T23:36:15.362023Z,-2.804077,0.288025,0.43988
2018-10-16T23:36:15.563023Z,-1.463989,0.882812,-1.993225
2018-10-16T23:36:15.762023Z,-0.742188,0.7719729999999999,-0.738159
2018-10-16T23:36:15.975023Z,-1.098206,0.414062,-0.44006300000000004
2018-10-16T23:36:16.161023Z,-0.54718,0.924683,-1.250061
2018-10-16T23:36:16.362023Z,-1.5805049999999998,1.517395,-1.030823
2018-10-16T23:36:16.564023Z,-2.1995240000000003,0.441101,-1.007507
2018-10-16T23:36:16.763023Z,-1.413025,1.244873,-2.441711
2018-10-16T23:36:16.964023Z,0.570496,1.6066280000000002,1.048462
2018-10-16T23:36:17.164023Z,-0.206421,-1.187866,5.022094999999999
2018-10-16T23:36:17.363023Z,-1.61676,0.282898,-2.662048
2018-10-16T23:36:17.563023Z,-1.359253,0.9619139999999999,0.757141
2018-10-16T23:36:17.762023Z,-0.657776,-0.195496,0.955383
2018-10-16T23:36:17.963023Z,0.42767299999999997,-0.08001699999999999,-0.985168
2018-10-16T23:36:18.163023Z,-0.240479,0.586914,-0.690369
2018-10-16T23:36:18.364023Z,0.628052,-0.846619,2.342468
2018-10-16T23:36:18.569023Z,0.21044899999999997,-0.573914,-0.572693
2018-10-16T23:36:18.769023Z,-0.839966,1.187073,0.394226
2018-10-16T23:36:18.962023Z,-0.994324,-0.25054899999999997,0.065063
2018-10-16T23:36:19.163023Z,-0.048096,-0.524231,-1.5447389999999999
2018-10-16T23:36:19.362023Z,-1.5983889999999998,0.18951400000000002,0.07428
2018-10-16T23:36:19.562023Z,-0.582275,0.6462399999999999,-0.408997
2018-10-16T23:36:19.764023Z,-0.795593,0.284119,2.392212
2018-10-16T23:36:19.963023Z,1.725891,-1.565308,-1.473877
2018-10-16T23:36:20.165023Z,0.320496,-0.43078599999999995,2.075806
2018-10-16T23:36:20.364023Z,0.049805,-1.158752,0.725403
2018-10-16T23:36:20.565023Z,-0.271057,-0.467041,0.938232
2018-10-16T23:36:20.764023Z,-0.701172,0.132324,0.014282
2018-10-16T23:36:20.964023Z,-0.35180700000000004,0.083313,0.0038450000000000003
2018-10-16T23:36:21.163023Z,-0.371765,0.320984,-0.059570000000000005
2018-10-16T23:36:21.398023Z,-0.18090799999999999,-0.180115,0.179626
2018-10-16T23:36:21.566023Z,0.878235,-0.11608900000000001,0.14868199999999998
2018-10-16T23:36:21.765023Z,1.04895,0.272766,0.31445300000000004
2018-10-16T23:36:21.962023Z,0.45599399999999995,0.743713,-0.414062
2018-10-16T23:36:22.162023Z,1.5977780000000001,0.338318,-0.466492
2018-10-16T23:36:22.362023Z,-0.603394,1.253906,1.013855
2018-10-16T23:36:22.562023Z,-0.692749,-0.8975219999999999,2.349976
2018-10-16T23:36:22.762023Z,-1.451294,-0.432007,-1.7148439999999998
2018-10-16T23:36:22.963023Z,-0.523071,0.332764,0.154358
2018-10-16T23:36:23.176023Z,1.243408,0.088806,0.860474
2018-10-16T23:36:23.362023Z,0.661499,-0.7032470000000001,2.130432
2018-10-16T23:36:23.763023Z,0.562195,0.222656,-0.744568
2018-10-16T23:36:23.963023Z,-1.716492,0.143127,-1.8761599999999998
2018-10-16T23:36:24.163023Z,-0.316467,-0.50647,1.401123
2018-10-16T23:36:24.363023Z,-0.351196,0.336304,-0.628784
2018-10-16T23:36:24.563023Z,1.5142209999999998,0.280884,-0.29388400000000003
2018-10-16T23:36:24.763023Z,0.086792,-1.091431,0.300171
2018-10-16T23:36:24.963023Z,-0.161682,0.377747,-0.5297850000000001
2018-10-16T23:36:25.162023Z,-0.254272,-0.578186,-0.297607
2018-10-16T23:36:25.362023Z,-1.342285,-0.8848879999999999,1.428833
2018-10-16T23:36:25.678023Z,-0.499878,0.15826400000000002,0.050658999999999996
2018-10-16T23:36:25.761023Z,-0.590271,0.9146120000000001,-0.623108
2018-10-16T23:36:25.962023Z,-0.9871219999999999,-0.705078,0.36791999999999997
2018-10-16T23:36:26.164023Z,-1.3198239999999999,-0.641602,-0.370728
2018-10-16T23:36:26.362023Z,-2.201233,0.099243,-1.9019169999999999
2018-10-16T23:36:26.562023Z,-2.481384,-1.453918,0.244019
2018-10-16T23:36:26.764023Z,-1.2241819999999999,0.455078,0.332825
2018-10-16T23:36:26.964023Z,-1.333435,0.745239,0.492126
2018-10-16T23:36:27.167023Z,-1.3040770000000002,-0.710693,1.000732
2018-10-16T23:36:27.363023Z,-1.2052610000000001,0.552124,-1.195007
2018-10-16T23:36:27.564023Z,-2.1693729999999998,0.824951,-0.670776
2018-10-16T23:36:27.766023Z,-2.8432009999999996,-0.8308110000000001,-0.0018920000000000002
2018-10-16T23:36:28.056023Z,-2.004944,0.187378,-0.374146
2018-10-16T23:36:28.162023Z,-1.7117310000000001,0.758179,-1.376099
2018-10-16T23:36:28.363023Z,-1.8201900000000002,-0.513184,-0.130432
2018-10-16T23:36:28.564023Z,-2.219055,-0.279785,0.9057620000000001
2018-10-16T23:36:28.761023Z,-2.795044,-0.23858600000000002,0.627563
2018-10-16T23:36:28.962023Z,-2.1928099999999997,1.202576,-0.457275
2018-10-16T23:36:29.162023Z,-1.22406,2.150513,-0.8967290000000001
2018-10-16T23:36:29.362023Z,-0.29895,1.042542,-0.060851999999999996
2018-10-16T23:36:29.562023Z,-0.8590700000000001,0.344421,0.186951
2018-10-16T23:36:29.762023Z,-0.873657,1.599915,-0.813599
2018-10-16T23:36:29.961023Z,-1.283081,2.148926,0.545776
2018-10-16T23:36:30.162023Z,-1.114746,-0.097778,-0.946167
2018-10-16T23:36:30.363023Z,-0.8966059999999999,1.317505,-1.1136469999999998
2018-10-16T23:36:30.564023Z,-1.550232,2.212463,-1.8018189999999998
2018-10-16T23:36:30.764023Z,-1.818848,2.316406,-1.782532
2018-10-16T23:36:30.963023Z,0.027161,0.531433,-0.144226
2018-10-16T23:36:31.163023Z,0.457458,-0.023438,-1.626526
2018-10-16T23:36:31.363023Z,-0.6518550000000001,2.5896,-0.601562
2018-10-16T23:36:31.562023Z,0.37756300000000004,0.6624760000000001,-0.334534
2018-10-16T23:36:31.762023Z,-2.064392,-0.786804,-0.659302
2018-10-16T23:36:31.965023Z,-1.3325200000000001,1.753296,-2.0154419999999997
2018-10-16T23:36:32.165023Z,-1.36554,1.9724119999999998,-2.038452
2018-10-16T23:36:32.362023Z,0.642273,0.025208,4.74646
2018-10-16T23:36:32.562023Z,0.096313,-0.755127,1.789307
2018-10-16T23:36:32.762023Z,-0.346252,0.773987,-0.605164
2018-10-16T23:36:32.963023Z,-1.0531620000000002,1.323242,-0.586487
2018-10-16T23:36:33.162023Z,-1.7587279999999998,0.252197,-0.23895300000000003
2018-10-16T23:36:33.363023Z,-0.680298,0.17138699999999998,0.284119
2018-10-16T23:36:33.562023Z,-0.552673,-0.10528599999999999,-0.4198
2018-10-16T23:36:33.764023Z,-0.403931,-0.490662,-0.085938
2018-10-16T23:36:33.962023Z,0.521057,-0.876648,1.201355
2018-10-16T23:36:34.163023Z,0.458374,-0.8455809999999999,0.45355200000000007
2018-10-16T23:36:34.365023Z,0.276306,-0.550354,0.460449
2018-10-16T23:36:34.563023Z,-0.025024,-0.602539,0.510864
2018-10-16T23:36:34.763023Z,-0.958801,0.259399,-0.261841
2018-10-16T23:36:34.964023Z,-1.5253299999999999,0.332275,-0.685913
2018-10-16T23:36:35.163023Z,-1.2901610000000001,1.181458,-0.5827640000000001
2018-10-16T23:36:35.363023Z,-0.395996,1.357117,-0.312012
2018-10-16T23:36:35.563023Z,0.8906860000000001,0.313293,-1.7936400000000001
2018-10-16T23:36:35.762023Z,0.626709,0.778687,-0.923218
2018-10-16T23:36:35.963023Z,0.25708000000000003,1.807739,-0.003235
2018-10-16T23:36:36.239023Z,0.072266,-0.081116,0.953918
2018-10-16T23:36:36.363023Z,-0.142334,-1.407166,1.07135
2018-10-16T23:36:36.562023Z,-0.211182,1.0883180000000001,0.29797399999999996
2018-10-16T23:36:36.762023Z,0.501587,0.5037229999999999,0.273987
2018-10-16T23:36:36.962023Z,-0.119751,0.16986099999999998,-0.236267
2018-10-16T23:36:37.163023Z,-1.26178,-0.317139,-0.4245
2018-10-16T23:36:37.362023Z,-1.108582,-0.670593,-1.371338
2018-10-16T23:36:37.562023Z,-1.52356,-0.783325,-0.920532
2018-10-16T23:36:37.964023Z,-0.71167,-0.676697,-0.170166
2018-10-16T23:36:38.179023Z,-1.19696,0.168274,-1.405518
2018-10-16T23:36:38.363023Z,-0.379272,0.253845,-0.426575
2018-10-16T23:36:38.562023Z,-0.882141,0.5996090000000001,0.203979
2018-10-16T23:36:38.762023Z,-0.909241,-0.951965,1.593018
2018-10-16T23:36:38.963023Z,-0.179626,-0.173706,-0.577148
2018-10-16T23:36:39.162023Z,0.008606,-0.009033,-0.364563
2018-10-16T23:36:39.362023Z,-0.38061500000000004,0.795288,-0.587158
2018-10-16T23:36:39.562023Z,-1.006104,-0.9189450000000001,0.9404299999999999
2018-10-16T23:36:39.762023Z,-1.098999,-1.219971,-0.14935299999999999
2018-10-16T23:36:39.962023Z,-1.109314,-0.355042,0.077087
2018-10-16T23:36:40.162023Z,-0.723206,0.517517,-0.614319
2018-10-16T23:36:40.362023Z,-0.695923,-0.5081180000000001,0.301025
2018-10-16T23:36:40.562023Z,-0.386719,-0.635254,0.705322
2018-10-16T23:36:40.834023Z,-0.059021000000000004,-0.0047,-0.312256
2018-10-16T23:36:40.967023Z,-0.8562620000000001,0.41607700000000003,0.18573
2018-10-16T23:36:41.163023Z,-0.151855,-0.74292,0.22235100000000002
2018-10-16T23:36:41.363023Z,-0.736633,-1.57666,-0.9795530000000001
2018-10-16T23:36:41.565023Z,-0.9417719999999999,-0.31012,0.648254
2018-10-16T23:36:41.763023Z,-0.549866,0.166138,-0.743408
2018-10-16T23:36:41.966023Z,-0.910278,0.41552700000000004,-0.082458
2018-10-16T23:36:42.168023Z,-0.7582399999999999,-0.47906499999999996,0.498108
2018-10-16T23:36:42.363023Z,0.040466,-0.441589,0.340698
2018-10-16T23:36:42.562023Z,-0.284668,0.44610600000000006,0.133911
2018-10-16T23:36:42.763023Z,-0.38806199999999996,0.9110719999999999,0.43249499999999996
2018-10-16T23:36:42.962023Z,0.385986,-1.023621,0.805298
2018-10-16T23:36:43.162023Z,-1.1597899999999999,-1.674622,-0.041931
2018-10-16T23:36:43.362023Z,-1.0307620000000002,-0.6127319999999999,-0.082825
2018-10-16T23:36:43.562023Z,-1.980835,1.599243,-1.107666
2018-10-16T23:36:43.762023Z,0.5039060000000001,0.016174,0.000977
2018-10-16T23:36:43.962023Z,0.32757600000000003,-1.173218,-2.121155
2018-10-16T23:36:44.165023Z,-0.678711,-0.007873999999999999,-1.49823
2018-10-16T23:36:44.363023Z,-0.755371,0.020812999999999998,-0.12060499999999999
2018-10-16T23:36:44.563023Z,-1.045532,-1.682434,1.192261
2018-10-16T23:36:44.763023Z,-1.6531369999999999,-1.469849,-0.36950700000000003
2018-10-16T23:36:44.963023Z,-1.02179,-0.539978,-1.173645
2018-10-16T23:36:45.164023Z,-1.100159,0.034424,-0.199463
2018-10-16T23:36:45.367023Z,-0.9112549999999999,0.018188,-0.07885700000000001
2018-10-16T23:36:45.563023Z,-0.748352,-0.024841,-0.011353
2018-10-16T23:36:45.764023Z,-0.8758540000000001,-0.08782999999999999,0.12103299999999999
2018-10-16T23:36:45.963023Z,-0.314758,0.13623,-0.027038999999999997
2018-10-16T23:36:46.162023Z,-0.517517,0.352051,-0.35144000000000003
2018-10-16T23:36:46.362023Z,-0.388428,-0.042664,0.088501
2018-10-16T23:36:46.562023Z,-0.62561,0.16272,-0.289917
2018-10-16T23:36:46.781023Z,-0.320984,0.075745,-0.292542
2018-10-16T23:36:46.961023Z,-0.27929699999999996,0.20153800000000002,0.016113
2018-10-16T23:36:47.162023Z,-0.502197,0.343079,-0.405396
2018-10-16T23:36:47.362023Z,-0.598511,0.277954,-0.153503
2018-10-16T23:36:47.562023Z,-0.8493040000000001,0.877625,-0.741394
2018-10-16T23:36:47.762023Z,-0.178162,0.133667,-0.827393
2018-10-16T23:36:47.962023Z,-0.47192399999999995,0.338074,-0.357056
2018-10-16T23:36:48.163023Z,0.533325,-0.412476,-3.0901490000000003
2018-10-16T23:36:48.364023Z,0.780212,1.2036129999999998,1.057007
2018-10-16T23:36:48.563023Z,0.240356,0.842102,0.032958999999999995
2018-10-16T23:36:48.763023Z,-0.367004,-1.6460569999999999,1.374939
2018-10-16T23:36:48.963023Z,0.004028,-0.9733280000000001,-0.642334
2018-10-16T23:36:49.165023Z,-0.183838,-0.312805,0.468384
2018-10-16T23:36:49.367023Z,-0.262085,-0.00061,0.35180700000000004
2018-10-16T23:36:49.562023Z,-0.016784999999999998,-1.699829,3.387085
2018-10-16T23:36:49.762023Z,0.579468,-0.910889,-0.5672
2018-10-16T23:36:49.962023Z,0.919617,-1.230896,-0.065735
2018-10-16T23:36:50.163023Z,0.316589,0.17395,-0.283508
2018-10-16T23:36:50.362023Z,0.282043,0.000305,-0.037598
2018-10-16T23:36:50.562023Z,0.5432130000000001,-0.08252000000000001,0.17938199999999999
2018-10-16T23:36:50.795023Z,0.7852779999999999,0.291748,-1.088196
2018-10-16T23:36:50.963023Z,1.838745,0.09320099999999999,0.344971
2018-10-16T23:36:51.363023Z,0.933533,0.572571,-0.212952
2018-10-16T23:36:51.564023Z,1.208862,2.362549,1.7077639999999998
2018-10-16T23:36:51.764023Z,0.282837,0.841858,-1.2632450000000002
2018-10-16T23:36:51.962023Z,-0.33825700000000003,-1.5023799999999998,0.150574
2018-10-16T23:36:52.163023Z,-0.59906,0.425964,-0.282471
2018-10-16T23:36:52.363023Z,0.08374,1.2489620000000001,-1.133118
2018-10-16T23:36:52.564023Z,-0.279175,1.4696040000000001,-0.24987800000000002
2018-10-16T23:36:52.765023Z,0.599915,0.270752,-1.886841
2018-10-16T23:36:52.962023Z,0.852295,0.34198,-1.268921
2018-10-16T23:36:53.163023Z,1.090637,0.9600219999999999,-0.386658
2018-10-16T23:36:53.362023Z,1.1839600000000001,-0.651489,2.505005
2018-10-16T23:36:53.574023Z,1.868408,-1.527344,2.21698
2018-10-16T23:36:53.762023Z,1.296875,0.06951900000000001,-0.390015
2018-10-16T23:36:53.963023Z,0.781799,0.544067,-0.477234
2018-10-16T23:36:54.162023Z,1.1713870000000002,-0.22650100000000004,-0.510925
2018-10-16T23:36:54.362023Z,0.771301,0.47119099999999997,2.484009
2018-10-16T23:36:54.564023Z,-0.616028,2.107544,1.0016479999999999
2018-10-16T23:36:54.763023Z,-0.701904,3.3081669999999996,-1.034241
2018-10-16T23:36:54.963023Z,-0.9699709999999999,0.202026,0.816345
2018-10-16T23:36:55.162023Z,-0.342041,1.500122,-1.828369
2018-10-16T23:36:55.366023Z,-0.326721,1.9060669999999997,-0.9584959999999999
2018-10-16T23:36:55.571023Z,0.20904499999999998,1.523743,0.10766600000000001
2018-10-16T23:36:55.765023Z,0.42443800000000004,0.48376499999999995,-0.123779
2018-10-16T23:36:55.968023Z,-0.273804,1.474792,-0.43048100000000006
2018-10-16T23:36:56.163023Z,-1.97052,2.2467040000000003,-1.464905
2018-10-16T23:36:56.362023Z,-1.792664,0.6359859999999999,-1.034424
2018-10-16T23:36:56.563023Z,-0.687683,0.6596069999999999,-0.43994099999999997
2018-10-16T23:36:56.762023Z,0.23761,1.362366,-0.884705
2018-10-16T23:36:56.962023Z,0.167969,0.41656499999999996,0.23663299999999998
2018-10-16T23:36:57.162023Z,-1.941345,1.732117,-1.451904
2018-10-16T23:36:57.362023Z,-1.096375,0.026611000000000003,-0.140381
2018-10-16T23:36:57.562023Z,-1.913757,1.236328,-0.274963
2018-10-16T23:36:57.762023Z,-1.8549189999999998,-0.008789,-1.409485
2018-10-16T23:36:57.962023Z,0.11602799999999999,-1.2589110000000001,0.211975
2018-10-16T23:36:58.162023Z,1.966675,-1.131042,-0.315308
2018-10-16T23:36:58.364023Z,-0.8235469999999999,0.8797,0.946533
2018-10-16T23:36:58.565023Z,-0.488342,1.9618529999999998,-0.00946
2018-10-16T23:36:58.766023Z,0.544678,1.487732,1.9199830000000002
2018-10-16T23:36:58.963023Z,0.210144,0.011414,-0.916626
2018-10-16T23:36:59.163023Z,0.22998000000000002,0.382385,-1.162292
2018-10-16T23:36:59.363023Z,0.332886,1.498291,0.145508
2018-10-16T23:36:59.567023Z,0.664429,-0.23858600000000002,0.22589099999999998
2018-10-16T23:36:59.763023Z,-1.255005,-0.723328,0.9951780000000001
2018-10-16T23:36:59.962023Z,-0.537537,0.190552,0.455017
2018-10-16T23:37:00.211023Z,-0.018555000000000002,0.34729,1.432251
2018-10-16T23:37:00.362023Z,0.8289790000000001,0.059875,-2.5637209999999997
2018-10-16T23:37:00.562023Z,0.687866,0.47168000000000004,-1.737
2018-10-16T23:37:00.762023Z,0.247559,1.640869,-1.017578
2018-10-16T23:37:00.963023Z,0.519714,-0.02655,1.10553
2018-10-16T23:37:01.162023Z,-1.724854,-0.531616,-0.44751
2018-10-16T23:37:01.362023Z,-0.319519,0.788147,-0.58606
2018-10-16T23:37:01.563023Z,0.256958,0.722839,-2.428223
2018-10-16T23:37:01.764023Z,0.42858900000000005,0.41082799999999997,-3.6803589999999997
2018-10-16T23:37:01.964023Z,0.68103,0.335327,-1.356323
2018-10-16T23:37:02.166023Z,-0.090149,0.44171099999999996,0.916992
2018-10-16T23:37:02.363023Z,-0.7750239999999999,-0.333496,-2.3038939999999997
2018-10-16T23:37:02.563023Z,-2.9422610000000002,1.039612,-1.7834470000000002
2018-10-16T23:37:02.763023Z,-0.31433099999999997,0.660034,1.2476200000000002
2018-10-16T23:37:02.963023Z,1.7208860000000001,-2.692627,3.956116
2018-10-16T23:37:03.163023Z,-1.411926,0.026184,-1.621094
2018-10-16T23:37:03.362023Z,-0.763062,-0.012451,-0.25793499999999997
2018-10-16T23:37:03.562023Z,-1.3858030000000001,-1.149109,0.993042
2018-10-16T23:37:03.763023Z,-2.6965939999999997,-0.703674,-0.8756709999999999
2018-10-16T23:37:03.962023Z,-1.344543,-0.149597,0.240112
2018-10-16T23:37:04.162023Z,-0.356995,1.314819,-0.000732
2018-10-16T23:37:04.362023Z,-1.042542,-0.067749,0.003052
2018-10-16T23:37:04.762023Z,-1.3615110000000001,-0.9089969999999999,0.092041
2018-10-16T23:37:04.963023Z,-0.5559689999999999,-0.556335,-0.919434
2018-10-16T23:37:05.176023Z,-0.219177,-0.289001,0.026184
2018-10-16T23:37:05.363023Z,-0.5512699999999999,0.060791,0.115051
2018-10-16T23:37:05.563023Z,-0.674072,0.203979,-0.001282
2018-10-16T23:37:05.763023Z,-0.584778,0.168701,0.27722199999999997
2018-10-16T23:37:05.963023Z,-0.72467,0.761536,1.386902
2018-10-16T23:37:06.163023Z,-0.960938,1.585754,-0.5429689999999999
2018-10-16T23:37:06.362023Z,-0.50293,1.8507080000000002,0.391357
2018-10-16T23:37:06.562023Z,0.180542,-0.814392,0.925842
2018-10-16T23:37:06.763023Z,-0.97644,-1.288391,0.584106
2018-10-16T23:37:06.962023Z,-0.325317,-0.024658000000000003,0.086243
2018-10-16T23:37:07.166023Z,-0.371033,0.341614,0.2052
2018-10-16T23:37:07.362023Z,-0.409119,0.373718,-2.786621
2018-10-16T23:37:07.566023Z,-1.145813,0.025208,-0.802979
2018-10-16T23:37:07.761023Z,-1.886902,-0.766785,0.256409
2018-10-16T23:37:07.962023Z,-2.672668,-0.753113,-1.3483889999999998
2018-10-16T23:37:08.167023Z,-2.4559330000000004,-0.368225,-0.13336199999999998
2018-10-16T23:37:08.366023Z,-1.018494,-0.47949200000000003,0.352417
2018-10-16T23:37:08.568023Z,-1.558655,0.647217,-0.381836
2018-10-16T23:37:08.763023Z,-1.552551,0.393982,-0.048889
2018-10-16T23:37:08.963023Z,-1.0855709999999998,0.12329100000000001,-0.596436
2018-10-16T23:37:09.164023Z,-0.751526,0.371094,-0.578064
2018-10-16T23:37:09.363023Z,-0.312927,0.18042,-1.00531
2018-10-16T23:37:09.563023Z,-0.16217,1.2620850000000001,-0.09906000000000001
2018-10-16T23:37:09.763023Z,-0.723328,1.3131709999999999,0.32806399999999997
2018-10-16T23:37:09.964023Z,-2.178467,-0.007873999999999999,-1.229004
2018-10-16T23:37:10.162023Z,-0.343506,0.288635,-1.2838129999999999
2018-10-16T23:37:10.362023Z,-0.156372,2.224182,-0.36993400000000004
2018-10-16T23:37:10.563023Z,0.087646,-0.364746,2.660461
2018-10-16T23:37:10.762023Z,1.2352290000000001,-0.14294400000000002,-2.789978
2018-10-16T23:37:10.962023Z,1.281616,2.0577389999999998,1.5198969999999998
2018-10-16T23:37:11.162023Z,-0.886475,0.18573,2.692139
2018-10-16T23:37:11.363023Z,-1.8717650000000001,-0.29388400000000003,-0.35083000000000003
2018-10-16T23:37:11.562023Z,-0.385986,0.883057,-0.817017
2018-10-16T23:37:11.762023Z,-0.032958999999999995,1.061035,-0.131409
2018-10-16T23:37:11.963023Z,-0.364014,0.042114,0.6745
2018-10-16T23:37:12.166023Z,-0.986877,0.9660030000000001,-5.143311
2018-10-16T23:37:12.363023Z,-1.622803,-0.795044,1.475708
2018-10-16T23:37:12.563023Z,-1.6952509999999998,-0.652832,0.45367399999999997
2018-10-16T23:37:12.764023Z,-2.431702,-0.542053,0.8848879999999999
2018-10-16T23:37:12.962023Z,-1.25415,-0.696106,0.40075700000000003
2018-10-16T23:37:13.164023Z,-1.405273,0.910889,-0.44805900000000004
2018-10-16T23:37:13.363023Z,-0.18090799999999999,0.639648,-0.783997
2018-10-16T23:37:13.562023Z,0.478821,-0.419983,-2.270203
2018-10-16T23:37:13.762023Z,0.598083,1.469177,0.213562
2018-10-16T23:37:13.962023Z,-0.42297399999999996,0.670532,0.391968
2018-10-16T23:37:14.162023Z,-0.8382569999999999,-0.488098,-0.906616
2018-10-16T23:37:14.362023Z,-0.4198,-0.20959499999999998,-0.699341
2018-10-16T23:37:14.566023Z,-0.77356,0.909912,-2.135986
2018-10-16T23:37:14.764023Z,0.011840999999999999,-0.042908,-0.067444
2018-10-16T23:37:14.965023Z,0.49883999999999995,-0.8989870000000001,0.211975
2018-10-16T23:37:15.162023Z,1.8701169999999998,-2.152527,0.11492899999999999
2018-10-16T23:37:15.362023Z,1.217773,-1.5485229999999999,1.608276
2018-10-16T23:37:15.563023Z,0.291687,-0.801331,-0.47802700000000004
2018-10-16T23:37:15.764023Z,-1.639404,-0.8466799999999999,0.26825
2018-10-16T23:37:15.963023Z,-1.9615479999999998,0.28302,-0.910767
2018-10-16T23:37:16.162023Z,-0.898193,1.7952270000000001,-0.10082999999999999
2018-10-16T23:37:16.364023Z,-0.573669,0.380249,0.073975
2018-10-16T23:37:16.762023Z,-0.403931,0.492249,-0.429382
2018-10-16T23:37:16.978023Z,-0.297607,1.196716,-0.9566040000000001
2018-10-16T23:37:17.162023Z,-1.143311,1.553345,-0.991455
2018-10-16T23:37:17.362023Z,-2.176514,-0.056029999999999996,-1.1744379999999999
2018-10-16T23:37:17.566023Z,-1.171509,0.065735,-0.6598510000000001
2018-10-16T23:37:17.762023Z,-0.989136,1.470764,-1.2418209999999998
2018-10-16T23:37:17.962023Z,-0.334351,0.725891,-0.717773
2018-10-16T23:37:18.162023Z,-0.639954,-0.138062,0.612488
2018-10-16T23:37:18.362023Z,-0.09082,1.478638,1.297974
2018-10-16T23:37:18.562023Z,-0.023254,1.134216,-0.5664060000000001
2018-10-16T23:37:18.762023Z,-2.291992,-0.094849,-2.249878
2018-10-16T23:37:19.046023Z,-0.13763399999999998,-0.253601,-0.33374000000000004
2018-10-16T23:37:19.167023Z,-0.568909,0.565918,0.353821
2018-10-16T23:37:19.370023Z,0.546875,-0.544922,1.358765
2018-10-16T23:37:19.563023Z,1.1171879999999998,0.463562,-2.515503
2018-10-16T23:37:19.764023Z,-0.22650100000000004,1.791016,-0.551392
2018-10-16T23:37:19.964023Z,-0.11218299999999999,-0.049988,-0.339355
2018-10-16T23:37:20.162023Z,-1.395569,-0.259644,-0.511108
2018-10-16T23:37:20.366023Z,-0.07714800000000001,0.136292,-0.514648
2018-10-16T23:37:20.563023Z,0.138916,0.403564,0.434204
2018-10-16T23:37:20.762023Z,-0.240601,-0.690308,1.7856450000000001
2018-10-16T23:37:20.963023Z,-0.37756300000000004,-0.586548,-0.07074
2018-10-16T23:37:21.162023Z,-0.564392,0.774292,-0.489929
2018-10-16T23:37:21.361023Z,-1.8504639999999999,-2.2943729999999998,2.3626099999999997
2018-10-16T23:37:21.562023Z,-2.3603520000000002,-1.740906,0.383972
2018-10-16T23:37:21.762023Z,-1.186584,-1.535095,-0.551331
2018-10-16T23:37:21.962023Z,-1.029541,-0.652161,-0.43048100000000006
2018-10-16T23:37:22.162023Z,-2.459412,0.778564,-0.033691000000000006
2018-10-16T23:37:22.363023Z,-1.501953,0.7089840000000001,-0.40509
2018-10-16T23:37:22.562023Z,-0.710205,-0.050781,0.611023
2018-10-16T23:37:22.764023Z,0.334351,-0.152649,-1.853088
2018-10-16T23:37:22.964023Z,-0.9055790000000001,1.37677,-0.169678
2018-10-16T23:37:23.163023Z,-1.453125,-0.354797,1.4536129999999998
2018-10-16T23:37:23.364023Z,-1.186523,-0.31958000000000003,-1.30072
2018-10-16T23:37:23.564023Z,-1.33551,0.28118899999999997,-0.7852779999999999
2018-10-16T23:37:23.763023Z,-1.494873,1.16626,-0.6129760000000001
2018-10-16T23:37:23.963023Z,-0.525696,0.840576,-1.0097049999999999
2018-10-16T23:37:24.162023Z,-0.6792600000000001,-0.211853,-0.026306
2018-10-16T23:37:24.362023Z,0.087646,-0.37988299999999997,-1.052551
2018-10-16T23:37:24.562023Z,0.9871219999999999,-0.762878,0.191589
2018-10-16T23:37:24.762023Z,0.765564,-0.049438,0.491638
2018-10-16T23:37:24.962023Z,0.195801,0.261536,0.769958
2018-10-16T23:37:25.162023Z,0.0036009999999999996,-1.1900629999999999,1.474243
2018-10-16T23:37:25.362023Z,-1.9083860000000001,-0.21160900000000002,-0.933167
2018-10-16T23:37:25.563023Z,-1.088745,0.264343,-0.397034
2018-10-16T23:37:25.764023Z,-0.922852,0.816833,-0.142151
2018-10-16T23:37:25.964023Z,-0.218018,-0.762573,1.058899
2018-10-16T23:37:26.162023Z,-0.516418,-0.194458,-1.247986
2018-10-16T23:37:26.362023Z,-0.300842,-0.12799100000000002,0.468872
2018-10-16T23:37:26.563023Z,-1.644104,-0.152039,-0.9266969999999999
2018-10-16T23:37:26.763023Z,-2.134399,-0.371582,-1.9732060000000002
2018-10-16T23:37:26.962023Z,-1.508545,0.050842,-0.006836
2018-10-16T23:37:27.162023Z,-0.907959,0.712646,-1.059509
2018-10-16T23:37:27.362023Z,-0.776062,-0.593445,4.0853269999999995
2018-10-16T23:37:27.562023Z,0.7554930000000001,-1.5946040000000001,2.8001099999999997
2018-10-16T23:37:27.762023Z,-0.012329000000000001,-0.229309,-0.4198
2018-10-16T23:37:27.962023Z,-0.45983900000000005,0.556824,0.24664299999999997
2018-10-16T23:37:28.162023Z,-1.1328120000000002,-0.935852,1.6466060000000002
2018-10-16T23:37:28.363023Z,-1.6591189999999998,-0.9172969999999999,-0.177551
2018-10-16T23:37:28.561023Z,-1.096436,-0.20697,-0.183167
2018-10-16T23:37:28.762023Z,-0.726685,0.16656500000000002,-0.264709
2018-10-16T23:37:28.962023Z,-0.952332,0.594727,0.062927
2018-10-16T23:37:29.162023Z,-0.5881350000000001,-0.476379,0.5141600000000001
2018-10-16T23:37:29.363023Z,-0.424622,-0.645142,-0.010193
2018-10-16T23:37:29.563023Z,-0.393494,0.013306,-1.215515
2018-10-16T23:37:29.963023Z,-1.805176,-0.19805899999999999,-0.407776
2018-10-16T23:37:30.163023Z,-2.6380619999999997,-0.881958,-0.9665530000000001
2018-10-16T23:37:30.363023Z,-2.17688,-0.209351,-1.0196530000000001
2018-10-16T23:37:30.564023Z,-0.331482,-0.2724,0.523193
2018-10-16T23:37:30.763023Z,-0.9204709999999999,-0.018799,-0.764221
2018-10-16T23:37:30.965023Z,-0.741455,-0.05658,-1.392822
2018-10-16T23:37:31.162023Z,-1.0177610000000001,1.2026370000000002,-0.337646
2018-10-16T23:37:31.362023Z,-0.645569,0.467102,0.201355
2018-10-16T23:37:31.562023Z,-1.8088990000000003,-0.09314,-1.492859
2018-10-16T23:37:31.767023Z,-0.826111,0.59668,-2.157593
2018-10-16T23:37:31.961023Z,-0.8959959999999999,0.450317,-1.508545
2018-10-16T23:37:32.170023Z,-0.49871800000000005,0.817444,0.107727
2018-10-16T23:37:32.363023Z,-1.3435059999999999,-1.076233,3.6172489999999997
2018-10-16T23:37:32.562023Z,1.1809690000000002,-1.633484,1.505127
2018-10-16T23:37:32.764023Z,-0.637634,-0.6995239999999999,1.553528
2018-10-16T23:37:32.962023Z,-1.316467,1.158508,-0.835266
2018-10-16T23:37:33.162023Z,-1.301331,-0.49176000000000003,0.8690190000000001
2018-10-16T23:37:33.364023Z,0.9897459999999999,-0.853577,0.514221
2018-10-16T23:37:33.565023Z,-0.464478,-0.905457,0.9938959999999999
2018-10-16T23:37:33.763023Z,-0.8369139999999999,-0.201294,-0.454712
2018-10-16T23:37:33.965023Z,-0.38385,0.270386,-0.7426149999999999
2018-10-16T23:37:34.166023Z,0.216919,-0.5471189999999999,0.332581
2018-10-16T23:37:34.364023Z,-0.303589,0.22094699999999998,-0.526794
2018-10-16T23:37:34.562023Z,0.234314,0.575012,-1.219543
2018-10-16T23:37:34.762023Z,0.44488500000000003,0.394043,-0.516479
2018-10-16T23:37:34.962023Z,-0.300537,0.45068400000000003,0.153015
2018-10-16T23:37:35.203023Z,0.06842000000000001,-1.327698,1.072021
2018-10-16T23:37:35.371023Z,0.344116,-0.183594,-0.834167
2018-10-16T23:37:35.566023Z,0.48773199999999994,-0.582092,-0.15741
2018-10-16T23:37:35.762023Z,-0.301636,0.6060180000000001,-1.083374
2018-10-16T23:37:35.962023Z,0.95636,0.9993290000000001,0.672913
2018-10-16T23:37:36.162023Z,2.393677,-1.8065189999999998,0.956421
2018-10-16T23:37:36.362023Z,0.412842,-0.083801,-2.873047
2018-10-16T23:37:36.564023Z,0.5588380000000001,1.962952,0.45166000000000006
2018-10-16T23:37:36.763023Z,0.106873,-0.095764,-0.403992
2018-10-16T23:37:36.962023Z,-0.39770500000000003,-0.6407470000000001,-0.396912
2018-10-16T23:37:37.168023Z,-0.0896,0.159851,-0.255676
2018-10-16T23:37:37.401023Z,0.840942,1.1010739999999999,0.36377
2018-10-16T23:37:37.563023Z,0.88092,0.706238,-0.799561
2018-10-16T23:37:37.763023Z,-1.0401610000000001,0.07067899999999999,1.232788
2018-10-16T23:37:37.962023Z,-1.005188,0.154114,-1.648926
2018-10-16T23:37:38.162023Z,-0.551819,0.9151,1.243591
2018-10-16T23:37:38.362023Z,1.0479129999999999,-0.550964,0.41686999999999996
2018-10-16T23:37:38.562023Z,0.647522,-1.024109,1.477539
2018-10-16T23:37:38.762023Z,-0.381348,-0.921143,0.914673
2018-10-16T23:37:38.966023Z,-0.25769000000000003,0.301086,0.022156
2018-10-16T23:37:39.167023Z,-0.401672,0.165222,-0.12262
2018-10-16T23:37:39.362023Z,0.059204,-1.4189450000000001,0.263916
2018-10-16T23:37:39.564023Z,0.76532,-0.182739,1.603882
2018-10-16T23:37:39.763023Z,-0.343994,0.504456,-0.226196
2018-10-16T23:37:39.962023Z,-0.476013,0.8317260000000001,0.48754899999999995
2018-10-16T23:37:40.162023Z,0.086243,-1.0893549999999999,1.031433
2018-10-16T23:37:40.362023Z,-0.732727,-1.527954,0.155945
2018-10-16T23:37:40.564023Z,-0.883057,-0.026672,-0.270081
2018-10-16T23:37:40.766023Z,-0.64679,0.463501,-0.12579300000000002
2018-10-16T23:37:40.963023Z,-0.135376,0.31567399999999995,-0.046997000000000004
2018-10-16T23:37:41.163023Z,-1.082031,-0.553955,1.032959
2018-10-16T23:37:41.362023Z,1.210754,-0.8749389999999999,0.764709
2018-10-16T23:37:41.562023Z,0.202087,-1.036377,0.8519899999999999
2018-10-16T23:37:41.762023Z,-0.67395,0.6172489999999999,0.352844
2018-10-16T23:37:41.962023Z,1.041199,0.353516,0.527832
2018-10-16T23:37:42.162023Z,-0.229248,-0.407837,0.383728
2018-10-16T23:37:42.362023Z,-0.06951900000000001,-0.797668,-0.284973
2018-10-16T23:37:42.563023Z,0.10504200000000001,-0.135864,0.196167
2018-10-16T23:37:42.763023Z,0.397949,-0.189392,-0.40802
2018-10-16T23:37:42.964023Z,0.27533,-0.329834,-0.215881
2018-10-16T23:37:43.163023Z,-0.10504200000000001,-0.09149199999999999,0.23175
2018-10-16T23:37:43.562023Z,-0.33972199999999997,0.603821,-0.161011
2018-10-16T23:37:43.764023Z,-0.20391800000000002,1.071472,-0.2948
2018-10-16T23:37:43.967023Z,0.398926,0.9355469999999999,0.542053
2018-10-16T23:37:44.163023Z,0.478149,0.068237,1.474731
2018-10-16T23:37:44.363023Z,0.43481400000000003,1.21991,-0.01886
2018-10-16T23:37:44.576023Z,0.31750500000000004,1.1110229999999999,0.619446
2018-10-16T23:37:44.765023Z,-1.242615,-0.087341,-1.289856
2018-10-16T23:37:44.962023Z,-0.6525270000000001,-0.602417,-1.186157
2018-10-16T23:37:45.162023Z,0.451172,0.0401,0.678162
2018-10-16T23:37:45.362023Z,0.533569,-0.130676,0.259155
2018-10-16T23:37:45.562023Z,0.34375,-0.549744,0.033691000000000006
2018-10-16T23:37:45.762023Z,0.622559,0.071167,-0.420471
2018-10-16T23:37:45.962023Z,0.427307,0.277832,0.065063
2018-10-16T23:37:46.162023Z,0.321289,0.646301,0.44049099999999997
2018-10-16T23:37:46.362023Z,0.42651400000000006,0.975891,1.128601
2018-10-16T23:37:46.563023Z,0.0038450000000000003,-0.37262,1.550354
2018-10-16T23:37:46.763023Z,0.45422399999999996,-1.071716,0.25793499999999997
2018-10-16T23:37:46.963023Z,-0.504272,0.09906000000000001,-0.47802700000000004
2018-10-16T23:37:47.162023Z,-0.310852,0.40423600000000004,1.065674
2018-10-16T23:37:47.363023Z,0.183105,-1.046448,1.516235
2018-10-16T23:37:47.565023Z,0.519104,0.20715300000000003,-0.862
2018-10-16T23:37:47.763023Z,0.48877,0.921631,-0.630554
2018-10-16T23:37:47.967023Z,0.10461400000000001,0.8787229999999999,-0.244934
2018-10-16T23:37:48.168023Z,-0.17413299999999998,-0.479004,0.102905
2018-10-16T23:37:48.362023Z,-0.320251,-0.704529,-0.385315
2018-10-16T23:37:48.563023Z,-0.145569,-0.128601,0.118652
2018-10-16T23:37:48.762023Z,-0.11370799999999999,0.8308110000000001,0.256348
2018-10-16T23:37:48.963023Z,0.385437,0.34613,-0.203491
2018-10-16T23:37:49.162023Z,-0.28125,-0.8403930000000001,1.2724
2018-10-16T23:37:49.362023Z,0.19458,0.131348,0.45556599999999997
2018-10-16T23:37:49.563023Z,0.157532,0.54187,0.967468
2018-10-16T23:37:49.762023Z,-0.352844,-1.444397,2.014954
2018-10-16T23:37:49.969023Z,-0.169678,-0.6781010000000001,-0.921997
2018-10-16T23:37:50.166023Z,-0.029053,-0.02417,0.261902
2018-10-16T23:37:50.366023Z,0.39916999999999997,0.016784999999999998,0.116882
2018-10-16T23:37:50.562023Z,0.0060420000000000005,-0.250366,-2.217407
2018-10-16T23:37:50.762023Z,0.271851,-0.188721,-0.190186
2018-10-16T23:37:50.966023Z,-0.291565,0.600525,0.009644
2018-10-16T23:37:51.162023Z,-0.324768,-1.493896,1.084595
2018-10-16T23:37:51.362023Z,-1.768188,-1.6790770000000002,0.600647
2018-10-16T23:37:51.564023Z,-1.2055049999999998,-0.76886,0.9646
2018-10-16T23:37:51.762023Z,-0.813232,0.014099,-0.571045
2018-10-16T23:37:51.961023Z,-0.40936300000000003,-0.134888,-0.9746090000000001
2018-10-16T23:37:52.162023Z,-0.570984,-0.621887,-0.09668
2018-10-16T23:37:52.362023Z,-0.934265,-0.805786,-0.29284699999999997
2018-10-16T23:37:52.562023Z,-0.707092,-0.49261499999999997,-0.22796599999999997
2018-10-16T23:37:52.762023Z,-1.498047,0.989563,0.155334
2018-10-16T23:37:52.963023Z,-0.7830199999999999,0.654358,-0.034302
2018-10-16T23:37:53.162023Z,-1.8849490000000002,-1.451782,3.15741
2018-10-16T23:37:53.374023Z,-0.51593,-1.764648,-1.595276
2018-10-16T23:37:53.572023Z,0.744995,0.000549,0.96991
2018-10-16T23:37:53.773023Z,-1.542786,-1.19574,2.3618770000000002
2018-10-16T23:37:53.973023Z,-0.8250120000000001,-0.535828,-1.120667
2018-10-16T23:37:54.172023Z,-0.284546,-0.108643,-0.48144499999999996
2018-10-16T23:37:54.375023Z,-0.35992399999999997,0.47955299999999995,-0.323792
2018-10-16T23:37:54.637023Z,-0.499878,-0.083313,0.9572139999999999
2018-10-16T23:37:54.773023Z,-0.875549,-0.634827,-0.031738
2018-10-16T23:37:54.976023Z,-1.6488650000000002,-0.60022,0.545715
2018-10-16T23:37:55.172023Z,-1.4869379999999999,-0.163635,0.39373800000000003
2018-10-16T23:37:55.380023Z,-1.5139770000000001,0.669495,0.519043
2018-10-16T23:37:55.572023Z,-1.361877,-0.389099,-0.433044
2018-10-16T23:37:55.772023Z,-1.512268,0.111633,-2.8317259999999997
2018-10-16T23:37:55.972023Z,-1.5846559999999998,-0.01178,0.124878
2018-10-16T23:37:56.172023Z,-2.784363,-1.6568599999999998,3.131409
2018-10-16T23:37:56.372023Z,-2.509888,0.13208,-0.15466300000000002
2018-10-16T23:37:56.577023Z,-1.268677,1.213989,0.028564
2018-10-16T23:37:56.773023Z,-0.669922,-0.088989,0.513367
2018-10-16T23:37:56.977023Z,-1.433289,0.075073,0.9921260000000001
2018-10-16T23:37:57.173023Z,-0.8291629999999999,1.241394,-1.547058
2018-10-16T23:37:57.372023Z,-0.565674,1.8262330000000002,-0.651306
2018-10-16T23:37:57.573023Z,-1.280151,-0.295715,0.624451
2018-10-16T23:37:57.773023Z,-1.3483889999999998,0.882019,-0.59021
2018-10-16T23:37:58.172023Z,-1.604858,1.701538,-0.602539
2018-10-16T23:37:58.377023Z,-0.515625,0.963684,-0.596375
2018-10-16T23:37:58.576023Z,-0.642212,-0.121155,-0.519836
2018-10-16T23:37:58.772023Z,-1.068848,1.058411,-0.140381
2018-10-16T23:37:58.973023Z,-0.9509280000000001,1.4071040000000001,-1.871277
2018-10-16T23:37:59.172023Z,-0.9232790000000001,-0.231873,-1.546997
2018-10-16T23:37:59.372023Z,-1.286865,2.36145,-1.7699580000000001
2018-10-16T23:37:59.573023Z,-0.5153810000000001,2.366638,-1.276123
2018-10-16T23:37:59.772023Z,0.555176,-0.572937,2.152283
2018-10-16T23:37:59.977023Z,-0.6698609999999999,0.9628909999999999,-2.622986
2018-10-16T23:38:00.173023Z,-0.48181199999999996,1.912781,-0.478699
2018-10-16T23:38:00.373023Z,-1.8337400000000001,-0.004211,2.599915
2018-10-16T23:38:00.573023Z,-1.270203,0.612549,-1.521423
2018-10-16T23:38:00.773023Z,-0.792297,1.31073,0.20849600000000001
2018-10-16T23:38:00.973023Z,0.126831,0.14965799999999999,-0.317322
2018-10-16T23:38:01.173023Z,-0.979858,1.21759,-2.97821
2018-10-16T23:38:01.375023Z,-1.676086,1.287659,0.074036
2018-10-16T23:38:01.574023Z,-0.744202,-0.983276,0.47955299999999995
2018-10-16T23:38:01.846023Z,-2.0597529999999997,0.5351560000000001,0.030518
2018-10-16T23:38:01.973023Z,-0.982666,0.8238530000000001,-0.609375
2018-10-16T23:38:02.172023Z,-1.614563,1.48761,-0.17236300000000002
2018-10-16T23:38:02.372023Z,-0.9232790000000001,0.8616940000000001,-3.052612
2018-10-16T23:38:02.579023Z,-0.605164,1.0808719999999998,-1.24231
2018-10-16T23:38:02.780023Z,-0.460266,1.8536990000000002,-0.99054
2018-10-16T23:38:02.973023Z,-0.787231,0.427124,0.836182
2018-10-16T23:38:03.172023Z,-0.9451290000000001,-0.754761,-0.5976560000000001
2018-10-16T23:38:03.372023Z,-1.021484,1.569519,0.329041
2018-10-16T23:38:03.573023Z,-1.191589,1.534241,0.5935060000000001
2018-10-16T23:38:03.773023Z,-0.591492,-0.271912,-0.10882599999999999
2018-10-16T23:38:03.974023Z,-0.943542,0.47198500000000004,0.242432
2018-10-16T23:38:04.175023Z,-0.22961399999999998,1.065857,0.783447
2018-10-16T23:38:04.373023Z,-0.547058,1.9212650000000002,-0.179077
2018-10-16T23:38:04.578023Z,-0.203125,0.357178,0.539185
2018-10-16T23:38:04.773023Z,-0.9961549999999999,0.5715939999999999,-1.234375
2018-10-16T23:38:04.973023Z,-0.9142459999999999,1.074646,-0.73822
2018-10-16T23:38:05.173023Z,-1.057922,1.31781,-1.1964110000000001
2018-10-16T23:38:05.373023Z,-1.353638,2.418335,0.32611100000000004
2018-10-16T23:38:05.578023Z,-0.18066400000000002,-0.447083,1.3714600000000001
2018-10-16T23:38:05.781023Z,0.145813,0.527832,-0.267151
2018-10-16T23:38:05.973023Z,-0.370544,2.1864619999999997,0.0625
2018-10-16T23:38:06.172023Z,-0.539856,1.645935,-0.688843
2018-10-16T23:38:06.371023Z,-1.524597,-0.201782,0.394897
2018-10-16T23:38:06.572023Z,-0.9802860000000001,0.786316,-1.8057860000000001
2018-10-16T23:38:06.772023Z,-0.700256,1.393799,-0.690613
2018-10-16T23:38:07.029023Z,-0.599854,1.108154,-0.799866
2018-10-16T23:38:07.174023Z,0.116699,-0.072327,-0.5177609999999999
2018-10-16T23:38:07.375023Z,-0.52179,0.540222,0.286377
2018-10-16T23:38:07.574023Z,0.104797,0.819092,0.211914
2018-10-16T23:38:07.774023Z,0.332947,0.532654,0.25647
2018-10-16T23:38:07.975023Z,-1.285095,-0.8686520000000001,-0.370789
2018-10-16T23:38:08.174023Z,-1.0288700000000002,0.27301,-1.291077
2018-10-16T23:38:08.372023Z,-0.810852,1.276367,-1.0599370000000001
2018-10-16T23:38:08.572023Z,-0.005005,-0.460693,0.138062
2018-10-16T23:38:08.773023Z,-0.817566,-0.66272,2.044006
2018-10-16T23:38:08.973023Z,-0.294128,0.65741,0.0025629999999999997
2018-10-16T23:38:09.172023Z,-0.047241000000000005,1.118408,-0.119751
2018-10-16T23:38:09.372023Z,0.25299099999999997,-0.846619,0.64093
2018-10-16T23:38:09.572023Z,-0.554016,-1.003967,0.5297850000000001
2018-10-16T23:38:09.772023Z,-0.36138899999999996,-0.25299099999999997,-0.21453899999999998
2018-10-16T23:38:09.979023Z,-0.235413,0.862183,-0.033447000000000005
2018-10-16T23:38:10.175023Z,-0.181885,-1.1220700000000001,2.146729
2018-10-16T23:38:10.375023Z,-0.24176,-0.882202,1.618591
2018-10-16T23:38:10.573023Z,-0.001343,1.04364,0.235657
2018-10-16T23:38:10.773023Z,-0.393005,1.0829469999999999,-1.016907
2018-10-16T23:38:10.973023Z,-1.1576540000000002,-0.72345,-3.0733029999999997
2018-10-16T23:38:11.172023Z,-0.549622,-0.566345,-0.701172
2018-10-16T23:38:11.372023Z,-0.774231,0.81543,-1.1885379999999999
2018-10-16T23:38:11.573023Z,-0.394287,0.309082,-0.517883
2018-10-16T23:38:11.773023Z,-1.1026610000000001,-1.3397219999999999,1.410706
2018-10-16T23:38:11.978023Z,-0.663513,-0.579773,0.164429
2018-10-16T23:38:12.373023Z,-0.590698,-0.038086,-0.136963
2018-10-16T23:38:12.572023Z,-1.154053,-0.09320099999999999,-1.081299
2018-10-16T23:38:12.772023Z,-2.862,-0.756897,-2.240845
2018-10-16T23:38:12.978023Z,-2.878723,-0.118225,-1.21698
2018-10-16T23:38:13.176023Z,-0.883667,0.695557,-0.137756
2018-10-16T23:38:13.372023Z,-0.971558,-0.427124,1.5475459999999999
2018-10-16T23:38:13.572023Z,-0.885193,0.016235,-1.008057
2018-10-16T23:38:13.772023Z,-0.97467,0.859497,-0.551331
2018-10-16T23:38:13.972023Z,-1.9056400000000002,1.473999,-0.964844
2018-10-16T23:38:14.175023Z,-2.621155,-0.536255,-1.2826540000000002
2018-10-16T23:38:14.466023Z,-2.1838990000000003,0.5348510000000001,-1.257263
2018-10-16T23:38:14.572023Z,-2.143738,1.422058,-0.584045
2018-10-16T23:38:14.773023Z,-1.336121,0.11029100000000001,0.682129
2018-10-16T23:38:14.974023Z,-1.6724849999999998,-0.5702510000000001,0.493835
2018-10-16T23:38:15.173023Z,-1.5923459999999998,0.704346,0.06219500000000001
2018-10-16T23:38:15.373023Z,-1.0473629999999998,1.500366,0.293396
2018-10-16T23:38:15.572023Z,-1.419617,-1.736938,2.648743
2018-10-16T23:38:15.772023Z,-1.121521,-0.583557,0.134827
2018-10-16T23:38:15.987023Z,-1.701843,1.143433,-0.274048
2018-10-16T23:38:16.182023Z,-0.93927,0.6401979999999999,-0.8867799999999999
2018-10-16T23:38:16.372023Z,-1.20282,-0.6704100000000001,1.5825200000000001
2018-10-16T23:38:16.572023Z,-0.89502,0.127441,-0.24725300000000003
2018-10-16T23:38:16.805023Z,-0.337463,0.485901,0.934509
2018-10-16T23:38:16.972023Z,-1.213745,0.053345000000000004,-0.07489
2018-10-16T23:38:17.172023Z,-2.529602,-0.6994020000000001,-0.193909
2018-10-16T23:38:17.374023Z,-1.8615720000000002,0.642578,0.422241
2018-10-16T23:38:17.573023Z,-1.8676150000000002,0.927307,-0.003113
2018-10-16T23:38:17.773023Z,-0.44976800000000006,0.095886,-2.493103
2018-10-16T23:38:17.973023Z,-1.3110959999999998,0.01593,-2.910339
2018-10-16T23:38:18.174023Z,-2.245911,1.401367,0.07867400000000001
2018-10-16T23:38:18.373023Z,-1.223877,-0.57135,1.325928
2018-10-16T23:38:18.573023Z,-1.7692259999999997,-1.0180049999999998,-1.572266
2018-10-16T23:38:18.773023Z,-1.396851,0.985657,-0.782837
2018-10-16T23:38:18.975023Z,-1.318481,1.7600099999999999,-1.0783690000000001
2018-10-16T23:38:19.175023Z,-1.433594,0.666138,0.533508
2018-10-16T23:38:19.381023Z,-1.431274,0.398804,0.15118399999999999
2018-10-16T23:38:19.572023Z,-1.239624,0.781067,-1.4422
2018-10-16T23:38:19.772023Z,-0.764893,1.551025,-0.497253
2018-10-16T23:38:19.972023Z,-1.121582,0.8061520000000001,1.088806
2018-10-16T23:38:20.172023Z,-2.289551,0.149048,-0.769958
2018-10-16T23:38:20.372023Z,-1.637512,0.71167,-2.4084470000000002
2018-10-16T23:38:20.577023Z,-1.393982,1.259888,-0.5062260000000001
2018-10-16T23:38:20.771023Z,-0.982117,1.668518,-0.61731
2018-10-16T23:38:20.972023Z,-0.104797,0.012512,-2.7349240000000004
2018-10-16T23:38:21.181023Z,-0.8529049999999999,0.6203609999999999,-1.112732
2018-10-16T23:38:21.372023Z,-0.981384,1.6505130000000001,0.087036
2018-10-16T23:38:21.573023Z,-1.27655,-0.23706100000000002,0.812195
2018-10-16T23:38:21.842023Z,-2.00592,-0.154419,-0.09197999999999999
2018-10-16T23:38:21.973023Z,-1.05426,0.940796,-0.710449
2018-10-16T23:38:22.176023Z,-0.9555049999999999,1.325684,-0.336914
2018-10-16T23:38:22.372023Z,-1.713257,-0.625671,1.957214
2018-10-16T23:38:22.572023Z,-1.415222,0.752869,-0.037415
2018-10-16T23:38:22.772023Z,-2.656982,1.462158,-0.07428
2018-10-16T23:38:22.972023Z,-2.444153,-0.762756,-1.18689
2018-10-16T23:38:23.181023Z,-1.019043,0.9481200000000001,-2.103821
2018-10-16T23:38:23.372023Z,-0.68335,1.7601930000000001,-1.2387700000000001
2018-10-16T23:38:23.572023Z,-0.486328,-0.079407,0.100159
2018-10-16T23:38:23.772023Z,-1.010376,0.79657,-0.8122560000000001
2018-10-16T23:38:24.005023Z,-1.334167,1.8080439999999998,-0.244385
2018-10-16T23:38:24.172023Z,-1.356323,-1.028137,2.943359
2018-10-16T23:38:24.373023Z,-0.984192,0.895752,-0.40515100000000004
2018-10-16T23:38:24.573023Z,-0.22235100000000002,1.6903689999999998,-0.47180200000000005
2018-10-16T23:38:24.974023Z,-0.07421900000000001,0.5700069999999999,1.9593509999999998
2018-10-16T23:38:25.174023Z,-0.6837770000000001,1.028015,-2.2771
2018-10-16T23:38:25.373023Z,-0.702759,1.63208,-0.87677
2018-10-16T23:38:25.573023Z,-1.289001,0.48120100000000005,0.151062
2018-10-16T23:38:25.773023Z,-0.673157,0.172302,0.288391
2018-10-16T23:38:25.973023Z,-0.395569,1.548828,-0.32959
2018-10-16T23:38:26.172023Z,-0.25945999999999997,1.8248900000000001,0.6342770000000001
2018-10-16T23:38:26.372023Z,0.620728,-0.772461,3.628174
2018-10-16T23:38:26.572023Z,-0.035767,0.8799440000000001,-0.13281199999999999
2018-10-16T23:38:26.772023Z,-0.9477540000000001,1.264832,-0.308899
2018-10-16T23:38:26.972023Z,-1.2696530000000001,0.145386,-1.175781
2018-10-16T23:38:27.181023Z,-0.003052,0.857605,-0.136414
2018-10-16T23:38:27.372023Z,-0.858582,1.756531,-0.457458
2018-10-16T23:38:27.572023Z,0.22283899999999998,-0.129761,0.305908
2018-10-16T23:38:27.773023Z,0.089783,-0.712585,-1.4989620000000001
2018-10-16T23:38:27.974023Z,0.423706,-0.46740699999999996,0.6547850000000001
2018-10-16T23:38:28.172023Z,-2.25946,2.844482,-0.487
2018-10-16T23:38:28.373023Z,0.445251,-0.791443,1.881531
2018-10-16T23:38:28.575023Z,-1.220215,0.756104,-3.475769
2018-10-16T23:38:28.779023Z,-1.059326,0.664307,-0.673828
2018-10-16T23:38:28.981023Z,-1.536194,1.321228,-1.454407
2018-10-16T23:38:29.174023Z,-0.433411,-0.24169899999999997,-3.256042
2018-10-16T23:38:29.376023Z,-0.556824,0.7070310000000001,-1.4678959999999999
2018-10-16T23:38:29.572023Z,-0.417847,1.414307,-0.9950559999999999
2018-10-16T23:38:29.772023Z,-0.348572,1.60376,0.729004
2018-10-16T23:38:29.975023Z,-2.10675,-1.303528,-0.056396
2018-10-16T23:38:30.172023Z,-2.380554,-0.66272,-0.866577
2018-10-16T23:38:30.372023Z,-1.920654,0.116272,0.603394
2018-10-16T23:38:30.571023Z,-0.53009,0.587708,0.8593139999999999
2018-10-16T23:38:30.789023Z,-0.673401,-0.22729499999999997,1.508972
2018-10-16T23:38:30.972023Z,-0.583252,-0.074158,-1.475891
2018-10-16T23:38:31.172023Z,-0.659729,0.44641099999999995,-0.9807739999999999
2018-10-16T23:38:31.375023Z,-0.645996,0.751404,-0.361694
2018-10-16T23:38:31.573023Z,-1.01709,1.431152,0.47021499999999994
2018-10-16T23:38:31.773023Z,-0.848145,-0.238708,-1.263733
2018-10-16T23:38:31.973023Z,-1.346008,0.6474,-1.118408
2018-10-16T23:38:32.173023Z,-0.689575,0.382996,-0.693909
2018-10-16T23:38:32.373023Z,-2.367676,1.7879029999999998,0.685547
2018-10-16T23:38:32.573023Z,2.426453,-1.574524,-0.561401
2018-10-16T23:38:32.773023Z,-0.8769530000000001,0.12298599999999998,-2.861511
2018-10-16T23:38:32.973023Z,-2.5653080000000004,-0.163635,0.274353
2018-10-16T23:38:33.173023Z,-0.055480999999999996,-0.268311,-1.066467
2018-10-16T23:38:33.377023Z,-1.097046,0.364197,1.373413
2018-10-16T23:38:33.577023Z,-1.470032,0.9916379999999999,-0.466797
2018-10-16T23:38:33.772023Z,-1.0046389999999998,0.700195,-0.6148680000000001
2018-10-16T23:38:33.973023Z,-0.786316,0.371582,-0.33056599999999997
2018-10-16T23:38:34.172023Z,-0.721436,0.290466,-0.290405
2018-10-16T23:38:34.376023Z,-0.39263899999999996,0.23468000000000003,-0.130798
2018-10-16T23:38:34.572023Z,-0.253723,0.10882599999999999,-0.40423600000000004
2018-10-16T23:38:34.774023Z,0.02478,0.43615699999999996,-0.295227
2018-10-16T23:38:34.974023Z,-0.316284,0.68689,0.36730999999999997
2018-10-16T23:38:35.173023Z,0.809387,0.36743200000000004,-0.043213
2018-10-16T23:38:35.374023Z,0.202759,1.278931,-0.036621
2018-10-16T23:38:35.573023Z,-0.207947,-0.42456099999999997,0.776917
2018-10-16T23:38:35.773023Z,-1.4048459999999998,-1.7404169999999999,0.826843
2018-10-16T23:38:35.973023Z,-0.759521,-0.366211,-1.0042719999999998
2018-10-16T23:38:36.174023Z,0.163452,-0.635742,0.792114
2018-10-16T23:38:36.375023Z,-0.509827,0.15270999999999998,0.09753400000000001
2018-10-16T23:38:36.572023Z,-0.7924800000000001,-0.023071,0.131104
2018-10-16T23:38:36.776023Z,0.11413599999999999,-0.22405999999999998,-1.841431
2018-10-16T23:38:36.972023Z,-0.332275,0.641296,-0.8556520000000001
2018-10-16T23:38:37.172023Z,0.556335,0.163574,-0.7380369999999999
2018-10-16T23:38:37.372023Z,0.375793,0.63208,0.208252
2018-10-16T23:38:37.572023Z,0.00293,0.567505,-0.38049299999999997
2018-10-16T23:38:37.972023Z,-0.48999,0.388367,-0.10876500000000001
2018-10-16T23:38:38.173023Z,-0.143738,-0.499817,-0.454834
2018-10-16T23:38:38.373023Z,-0.845825,-0.594971,-0.48730500000000004
2018-10-16T23:38:38.600023Z,-0.576721,-0.035278,-0.441162
2018-10-16T23:38:38.772023Z,-0.505981,0.999023,-1.097046
2018-10-16T23:38:38.974023Z,-1.556519,0.170593,-0.62561
2018-10-16T23:38:39.174023Z,1.225159,-0.357178,0.8634639999999999
2018-10-16T23:38:39.373023Z,-0.423645,0.552612,0.193237
2018-10-16T23:38:39.573023Z,0.15686,0.07372999999999999,-0.025879000000000003
2018-10-16T23:38:39.773023Z,0.132202,0.374512,-0.310791
2018-10-16T23:38:39.972023Z,0.406006,0.161072,0.134644
2018-10-16T23:38:40.172023Z,0.517944,-0.002991,-0.24939
2018-10-16T23:38:40.372023Z,-0.091187,0.15783699999999998,-0.24359099999999997
2018-10-16T23:38:40.575023Z,0.067383,0.153564,-0.20318599999999998
2018-10-16T23:38:40.777023Z,0.200317,0.136963,0.21435500000000002
2018-10-16T23:38:40.979023Z,0.05285599999999999,0.069031,-0.253784
2018-10-16T23:38:41.172023Z,-0.026123,0.208008,-0.28949
2018-10-16T23:38:41.372023Z,0.342529,-0.101746,-0.289856
2018-10-16T23:38:41.574023Z,0.293335,0.24847399999999997,-0.613525
2018-10-16T23:38:41.773023Z,-0.27923600000000004,0.492249,-0.46209700000000004
2018-10-16T23:38:41.973023Z,-0.5356449999999999,-0.471497,-0.753845
2018-10-16T23:38:42.173023Z,-1.348083,1.3116459999999999,-0.171753
2018-10-16T23:38:42.373023Z,-0.703796,0.6461180000000001,-0.44873
2018-10-16T23:38:42.573023Z,-0.713379,0.7191770000000001,0.725342
2018-10-16T23:38:42.773023Z,0.134766,-0.989075,-2.165283
2018-10-16T23:38:42.973023Z,-1.335022,1.4483030000000001,-1.2426760000000001
2018-10-16T23:38:43.173023Z,0.106628,-0.031127999999999996,0.399841
2018-10-16T23:38:43.373023Z,-1.7249759999999998,-1.717468,1.331421
2018-10-16T23:38:43.572023Z,-1.123901,-0.23290999999999998,-1.546265
2018-10-16T23:38:43.773023Z,-1.395569,0.506836,-0.099731
2018-10-16T23:38:43.986023Z,-1.431396,-1.2222899999999999,2.529236
2018-10-16T23:38:44.176023Z,-1.138672,-1.309204,0.8494870000000001
2018-10-16T23:38:44.372023Z,-2.083252,-0.5658569999999999,0.118469
2018-10-16T23:38:44.573023Z,-2.0082400000000002,-1.721008,1.503174
2018-10-16T23:38:44.772023Z,-2.800537,0.5119020000000001,0.6777340000000001
2018-10-16T23:38:44.972023Z,-1.3255620000000001,1.146118,0.523621
2018-10-16T23:38:45.173023Z,-1.6970830000000001,-0.293152,3.3309330000000004
2018-10-16T23:38:45.372023Z,-0.294556,0.348877,-0.782043
2018-10-16T23:38:45.572023Z,-0.9865719999999999,1.609497,-0.6015010000000001
2018-10-16T23:38:45.773023Z,-0.942261,1.286926,-0.512939
2018-10-16T23:38:45.974023Z,-2.473755,-0.170776,-2.0001830000000003
2018-10-16T23:38:46.172023Z,-1.373047,0.501404,-0.894287
2018-10-16T23:38:46.462023Z,-0.348267,0.488647,2.152527
2018-10-16T23:38:46.572023Z,-1.6669919999999998,0.49865699999999996,-1.325867
2018-10-16T23:38:46.779023Z,-0.656616,-0.521667,0.055786
2018-10-16T23:38:46.975023Z,-0.402893,-0.161072,0.30761700000000003
2018-10-16T23:38:47.173023Z,-0.9783940000000001,0.9713129999999999,-0.381409
2018-10-16T23:38:47.372023Z,-0.21606399999999998,0.714905,-0.138977
2018-10-16T23:38:47.572023Z,-0.137207,-0.303833,0.183777
2018-10-16T23:38:47.772023Z,-1.651978,-1.137329,-0.050049
2018-10-16T23:38:47.972023Z,-1.016541,-0.644104,0.119751
2018-10-16T23:38:48.176023Z,-1.691528,0.666931,-0.763916
2018-10-16T23:38:48.378023Z,-1.076355,0.620911,0.6583859999999999
2018-10-16T23:38:48.576023Z,0.344482,-1.238037,-1.862122
2018-10-16T23:38:48.973023Z,-0.13458299999999998,-0.335022,-1.240173
2018-10-16T23:38:49.173023Z,-1.382568,0.892883,-0.664978
2018-10-16T23:38:49.373023Z,0.41119399999999995,0.10913099999999999,0.911438
2018-10-16T23:38:49.573023Z,1.123108,-1.7769169999999999,0.548584
2018-10-16T23:38:49.772023Z,-1.345642,-1.312927,-0.844849
2018-10-16T23:38:49.973023Z,-1.414612,-0.358337,0.327515
2018-10-16T23:38:50.206023Z,-0.649414,0.008057,-0.382874
2018-10-16T23:38:50.372023Z,-0.638245,0.608704,-1.036987
2018-10-16T23:38:50.572023Z,-1.6798099999999998,0.374084,-0.367798
2018-10-16T23:38:50.772023Z,-0.46032700000000004,-0.695435,-2.442932
2018-10-16T23:38:50.973023Z,-1.647217,0.159424,-1.663879
2018-10-16T23:38:51.172023Z,-0.40881300000000004,0.133423,-0.44628900000000005
2018-10-16T23:38:51.372023Z,-2.3076779999999997,0.796387,-0.14068599999999998
2018-10-16T23:38:51.573023Z,-2.614258,-0.949829,-3.4215699999999996
2018-10-16T23:38:51.772023Z,-1.367493,0.17260699999999998,-0.8963620000000001
2018-10-16T23:38:51.979023Z,-1.376587,1.278259,-0.37097199999999997
2018-10-16T23:38:52.172023Z,-1.476379,-0.399292,1.0245360000000001
2018-10-16T23:38:52.374023Z,-0.7536010000000001,-0.583557,-0.219543
2018-10-16T23:38:52.573023Z,-1.55426,1.0848389999999999,-0.748901
2018-10-16T23:38:52.774023Z,-1.400452,1.727112,0.443237
2018-10-16T23:38:52.972023Z,-1.5356450000000001,-1.321167,2.617859
2018-10-16T23:38:53.173023Z,-1.985657,0.371704,-0.8929440000000001
2018-10-16T23:38:53.372023Z,-2.0128169999999996,1.479492,0.021544999999999998
2018-10-16T23:38:53.574023Z,-1.121155,1.489136,-0.361755
2018-10-16T23:38:53.772023Z,-1.165466,-0.541687,-1.667786
2018-10-16T23:38:53.972023Z,-1.6679689999999998,0.817627,-0.47735600000000006
2018-10-16T23:38:54.172023Z,-0.868713,1.292908,-0.326904
2018-10-16T23:38:54.376023Z,-1.188782,0.083069,1.126953
2018-10-16T23:38:54.576023Z,-1.751709,-1.319336,-0.20739699999999997
2018-10-16T23:38:54.772023Z,-0.358459,-0.6092529999999999,-0.480042
2018-10-16T23:38:54.975023Z,-1.63147,-0.25177,-0.337891
2018-10-16T23:38:55.171023Z,-1.5441280000000002,-0.194214,-1.556396
2018-10-16T23:38:55.373023Z,-0.5081180000000001,-1.47345,-0.439575
2018-10-16T23:38:55.573023Z,0.560608,-0.651428,-0.112732
2018-10-16T23:38:55.779023Z,0.631897,-0.413391,0.282471
2018-10-16T23:38:55.981023Z,0.07733200000000001,0.8513790000000001,-0.264343
2018-10-16T23:38:56.172023Z,0.20544400000000002,0.220581,0.612183
2018-10-16T23:38:56.372023Z,-0.430908,-1.427979,-0.23889200000000002
2018-10-16T23:38:56.572023Z,-0.102173,-0.72821,-1.098633
2018-10-16T23:38:56.772023Z,-0.16003399999999998,-0.616211,0.51178
2018-10-16T23:38:56.973023Z,-0.421021,0.641541,-0.060913
2018-10-16T23:38:57.173023Z,-0.174988,1.03656,-0.22869899999999999
2018-10-16T23:38:57.373023Z,-0.047729,-0.31048600000000004,1.6085209999999999
2018-10-16T23:38:57.572023Z,0.144958,-1.014465,2.652527
2018-10-16T23:38:57.772023Z,0.656921,-0.448425,0.43896499999999994
2018-10-16T23:38:57.973023Z,0.037903,1.565979,-0.329773
2018-10-16T23:38:58.172023Z,-0.429321,-1.265686,1.872925
2018-10-16T23:38:58.372023Z,-0.560181,-1.6740110000000001,-0.98645
2018-10-16T23:38:58.572023Z,-0.657654,-1.0439450000000001,0.602356
2018-10-16T23:38:58.772023Z,-0.674683,-0.01886,0.823242
2018-10-16T23:38:58.973023Z,-1.410095,0.6245729999999999,-0.30993699999999996
2018-10-16T23:38:59.173023Z,-0.9411010000000001,0.654541,1.0285030000000002
2018-10-16T23:38:59.374023Z,0.42572,-1.545349,-0.282715
2018-10-16T23:38:59.573023Z,-0.305847,-1.51947,-0.34552
2018-10-16T23:38:59.773023Z,-0.234314,-1.050476,0.236877
2018-10-16T23:38:59.972023Z,0.235474,-1.033142,-0.951843
2018-10-16T23:39:00.182023Z,-0.079773,-0.283936,-0.8378909999999999
2018-10-16T23:39:00.375023Z,0.031127999999999996,-0.415588,-0.576294
2018-10-16T23:39:00.577023Z,0.5623779999999999,-0.852722,1.248535
2018-10-16T23:39:00.772023Z,1.4887700000000001,-1.005066,0.274109
2018-10-16T23:39:00.972023Z,0.725769,-0.010131999999999999,-0.603577
2018-10-16T23:39:01.372023Z,0.45184300000000005,-0.16583299999999998,-0.431885
2018-10-16T23:39:01.574023Z,-0.977417,-0.127502,-0.6940310000000001
2018-10-16T23:39:01.773023Z,-0.67981,0.779175,-1.1107790000000002
2018-10-16T23:39:01.972023Z,-0.20971700000000001,1.561035,-0.19439700000000001
2018-10-16T23:39:02.172023Z,0.323669,0.591064,-2.059448
2018-10-16T23:39:02.373023Z,1.138611,0.102173,-1.578674
2018-10-16T23:39:02.573023Z,0.242798,0.821716,-1.389709
2018-10-16T23:39:02.773023Z,0.617371,1.177856,-0.8291629999999999
2018-10-16T23:39:02.987023Z,0.934509,1.522461,-1.404236
2018-10-16T23:39:03.176023Z,1.261292,0.637939,-0.46899399999999997
2018-10-16T23:39:03.377023Z,-0.249329,-0.251709,-1.180725
2018-10-16T23:39:03.577023Z,0.592224,0.79303,-1.457458
2018-10-16T23:39:03.773023Z,0.333923,1.474243,-0.492676
2018-10-16T23:39:03.973023Z,0.810913,-1.0641479999999999,2.400085
2018-10-16T23:39:04.172023Z,0.600464,-0.858276,2.188782
2018-10-16T23:39:04.372023Z,0.44659399999999994,1.526245,0.494629
2018-10-16T23:39:04.572023Z,0.587158,1.312317,-1.288635
2018-10-16T23:39:04.772023Z,0.635315,-0.871582,0.9210209999999999
2018-10-16T23:39:04.971023Z,-0.5646359999999999,0.892334,-0.614929
2018-10-16T23:39:05.171023Z,0.313354,0.332581,-0.557617
2018-10-16T23:39:05.384023Z,0.21704099999999998,1.121155,-0.141663
2018-10-16T23:39:05.571023Z,0.707336,-0.387024,1.599304
2018-10-16T23:39:05.772023Z,1.037903,-1.089539,1.564819
2018-10-16T23:39:05.972023Z,1.201172,0.21698,-0.776428
2018-10-16T23:39:06.174023Z,0.46637,1.6765139999999998,-0.042297
2018-10-16T23:39:06.372023Z,0.33123800000000003,0.347107,1.4524540000000001
2018-10-16T23:39:06.573023Z,-0.296448,-0.971619,-1.170044
2018-10-16T23:39:06.774023Z,0.677551,0.005797999999999999,-0.7246090000000001
2018-10-16T23:39:06.976023Z,0.214966,0.660339,-0.801758
2018-10-16T23:39:07.174023Z,0.72229,0.355774,-0.41931199999999996
2018-10-16T23:39:07.372023Z,-0.625488,0.216797,0.669678
2018-10-16T23:39:07.572023Z,-1.164978,1.750732,-2.599854
2018-10-16T23:39:07.772023Z,0.7221069999999999,0.170166,1.04126
2018-10-16T23:39:07.972023Z,0.61792,0.156616,-0.4953
2018-10-16T23:39:08.172023Z,-0.375671,-0.6359859999999999,0.398865
2018-10-16T23:39:08.372023Z,-1.1047360000000002,-1.3598629999999998,-0.5814819999999999
2018-10-16T23:39:08.572023Z,-0.574585,-0.42474399999999995,-0.158081
2018-10-16T23:39:08.772023Z,-0.193726,0.10497999999999999,-1.291748
2018-10-16T23:39:08.972023Z,-0.956177,0.015259,-0.708435
2018-10-16T23:39:09.172023Z,-1.621155,0.28381300000000004,-0.749084
2018-10-16T23:39:09.373023Z,0.070374,-0.15850799999999998,-0.084595
2018-10-16T23:39:09.613023Z,-0.26617399999999997,-1.009583,-0.054077
2018-10-16T23:39:09.773023Z,0.332642,-1.012268,-0.27319299999999996
2018-10-16T23:39:09.974023Z,-1.139526,0.10998499999999999,-0.9442139999999999
2018-10-16T23:39:10.173023Z,-1.57312,0.8250120000000001,-1.3297729999999999
2018-10-16T23:39:10.372023Z,-1.3122559999999999,1.259888,-0.199463
2018-10-16T23:39:10.575023Z,-1.6177979999999998,0.37793000000000004,0.422913
2018-10-16T23:39:10.773023Z,0.43884300000000004,-1.78595,-1.739685
2018-10-16T23:39:10.973023Z,-2.003174,1.000977,-1.553528
2018-10-16T23:39:11.172023Z,-0.25402800000000003,0.147095,-1.099915
2018-10-16T23:39:11.372023Z,-0.348083,0.599304,-0.480225
2018-10-16T23:39:11.572023Z,-0.877625,-0.704346,0.9818120000000001
2018-10-16T23:39:11.772023Z,-1.900696,-0.093811,-0.9912719999999999
2018-10-16T23:39:11.973023Z,-1.436768,-0.40387,2.9677729999999998
2018-10-16T23:39:12.172023Z,-2.665649,0.196167,-2.275146
2018-10-16T23:39:12.372023Z,-1.648743,-0.24560500000000002,1.732056
2018-10-16T23:39:12.573023Z,-1.507935,-0.40741,-1.1220700000000001
2018-10-16T23:39:12.773023Z,-0.801819,0.370056,-0.47747799999999996
2018-10-16T23:39:12.973023Z,-0.67157,1.1292719999999998,-0.751587
2018-10-16T23:39:13.173023Z,0.399048,0.020263999999999997,-0.016907
2018-10-16T23:39:13.373023Z,-0.247375,1.0108030000000001,-0.41870100000000005
2018-10-16T23:39:13.573023Z,0.020325,0.52179,0.169983
2018-10-16T23:39:13.773023Z,-1.271484,-1.107117,0.771667
2018-10-16T23:39:13.973023Z,-2.310608,-0.377869,-0.288025
2018-10-16T23:39:14.173023Z,-0.924866,-0.718567,0.44342
2018-10-16T23:39:14.373023Z,-1.271851,-0.143127,-1.626099
2018-10-16T23:39:14.772023Z,-0.821533,-0.329407,-0.45080600000000004
2018-10-16T23:39:14.972023Z,-0.589172,-0.272888,-0.5783689999999999
2018-10-16T23:39:15.172023Z,-0.644836,-0.118774,-0.30993699999999996
2018-10-16T23:39:15.372023Z,-0.37493899999999997,0.043396,0.250916
2018-10-16T23:39:15.572023Z,-0.032043,-0.139282,-0.85614
2018-10-16T23:39:15.772023Z,-0.32800300000000004,-0.008362,-0.215637
2018-10-16T23:39:15.972023Z,0.053345000000000004,-0.115845,-0.341125
2018-10-16T23:39:16.256023Z,-0.298279,0.0053100000000000005,-0.204651
2018-10-16T23:39:16.374023Z,-0.49743699999999996,-0.030579000000000002,0.173767
2018-10-16T23:39:16.577023Z,-0.298767,-0.181274,-0.191162
2018-10-16T23:39:16.776023Z,-0.453491,0.192322,-0.408325
2018-10-16T23:39:16.973023Z,-0.437866,-0.036804,-1.136536
2018-10-16T23:39:17.173023Z,-0.339844,0.256592,-0.567688
2018-10-16T23:39:17.373023Z,-0.198792,0.397949,-0.325867
2018-10-16T23:39:17.573023Z,-0.720337,0.549622,-0.514465
2018-10-16T23:39:17.773023Z,-0.400696,-0.364197,1.0629879999999998
2018-10-16T23:39:17.972023Z,-1.754822,-1.137634,-1.572144
2018-10-16T23:39:18.173023Z,-1.1285399999999999,-0.307129,-1.626282
2018-10-16T23:39:18.372023Z,-0.48742700000000005,0.431091,0.212463
2018-10-16T23:39:18.572023Z,-0.9820559999999999,-1.620667,1.058594
2018-10-16T23:39:18.773023Z,-0.63855,-0.291687,-1.464233
2018-10-16T23:39:18.985023Z,-0.7753909999999999,0.378662,0.137756
2018-10-16T23:39:19.172023Z,-0.697205,-0.611023,1.377686
2018-10-16T23:39:19.375023Z,-2.32251,-1.060242,-0.59845
2018-10-16T23:39:19.577023Z,-1.536621,-0.12200899999999999,-0.44647200000000004
2018-10-16T23:39:19.774023Z,-1.231934,0.14221199999999998,-1.190918
2018-10-16T23:39:19.974023Z,-1.415466,0.601746,-0.840332
2018-10-16T23:39:20.173023Z,-0.760864,0.404541,0.20880100000000001
2018-10-16T23:39:20.373023Z,-0.344604,-0.8419190000000001,-0.643799
2018-10-16T23:39:20.572023Z,-0.395935,0.195679,0.182617
2018-10-16T23:39:20.773023Z,-0.801208,0.442993,0.292053
2018-10-16T23:39:20.972023Z,-0.9193120000000001,-1.148865,1.560974
2018-10-16T23:39:21.177023Z,-0.732849,-1.466797,0.798462
2018-10-16T23:39:21.416023Z,-0.461975,-0.739563,0.8212889999999999
2018-10-16T23:39:21.576023Z,-0.46929899999999997,-0.131714,0.604492
2018-10-16T23:39:21.773023Z,1.25415,-1.684509,-0.091431
2018-10-16T23:39:21.972023Z,0.444824,-0.028931000000000002,-0.700012
2018-10-16T23:39:22.172023Z,0.227539,0.259155,-0.779053
2018-10-16T23:39:22.381023Z,0.5903930000000001,0.758972,0.43640100000000004
2018-10-16T23:39:22.573023Z,1.04895,-0.138916,0.541565
2018-10-16T23:39:22.771023Z,-0.15551800000000002,-1.0303959999999999,0.369263
2018-10-16T23:39:22.972023Z,0.198547,-0.304871,-0.184143
2018-10-16T23:39:23.174023Z,-0.014771000000000001,0.16272,-0.129456
2018-10-16T23:39:23.373023Z,-0.075134,0.487976,-0.8400270000000001
2018-10-16T23:39:23.572023Z,0.05127,0.430359,0.557617
2018-10-16T23:39:23.774023Z,0.923218,-0.350464,0.45458999999999994
2018-10-16T23:39:23.973023Z,0.6210939999999999,-0.255249,-0.10790999999999999
2018-10-16T23:39:24.173023Z,0.915833,0.185547,0.475159
2018-10-16T23:39:24.373023Z,0.499329,0.41107200000000005,-0.717834
2018-10-16T23:39:24.574023Z,0.647339,-0.699585,0.500549
2018-10-16T23:39:24.772023Z,-0.10491900000000001,-0.8673709999999999,-0.007690000000000001
2018-10-16T23:39:24.972023Z,-0.786255,-1.190857,-0.068909
2018-10-16T23:39:25.172023Z,-0.462891,-0.701477,-0.107117
2018-10-16T23:39:25.373023Z,-0.046448,-0.342102,-0.305115
2018-10-16T23:39:25.572023Z,-0.439148,-0.201904,-0.516968
2018-10-16T23:39:25.772023Z,-0.146545,-0.14325,-0.443054
2018-10-16T23:39:25.972023Z,-0.270752,-0.16461199999999998,-0.40448
2018-10-16T23:39:26.177023Z,-0.308289,-0.043701,1.087952
2018-10-16T23:39:26.372023Z,-0.081055,-0.096741,-0.440247
2018-10-16T23:39:26.572023Z,-1.0859379999999998,0.39379899999999995,0.07666
2018-10-16T23:39:26.783023Z,-1.2822879999999999,0.18335,0.798096
2018-10-16T23:39:26.973023Z,-0.072144,-0.298584,0.13836700000000002
2018-10-16T23:39:27.173023Z,-0.8168949999999999,-0.595032,-0.45025600000000005
2018-10-16T23:39:27.373023Z,0.456604,-0.77356,-0.23999
2018-10-16T23:39:27.772023Z,0.333679,0.271973,-0.061523
2018-10-16T23:39:27.972023Z,0.022278,0.7150270000000001,0.521606
2018-10-16T23:39:28.173023Z,-0.62616,-1.8877560000000002,3.086487
2018-10-16T23:39:28.372023Z,0.202148,-1.357849,-0.41278100000000006
2018-10-16T23:39:28.572023Z,-1.057495,-0.23822,-0.153503
2018-10-16T23:39:28.772023Z,-0.339966,0.39831500000000003,-0.270996
2018-10-16T23:39:28.972023Z,-0.320129,-1.843445,2.1449580000000004
2018-10-16T23:39:29.228023Z,-0.193298,-1.6382450000000002,0.639404
2018-10-16T23:39:29.373023Z,0.070801,-0.635681,0.7380979999999999
2018-10-16T23:39:29.572023Z,0.797058,-0.441162,0.789978
2018-10-16T23:39:29.774023Z,1.115723,-0.182251,-0.018799
2018-10-16T23:39:29.973023Z,0.099487,0.539307,-0.264282
2018-10-16T23:39:30.173023Z,0.158997,0.085876,0.37701399999999996
2018-10-16T23:39:30.372023Z,-0.491882,-1.3187870000000002,1.642151
2018-10-16T23:39:30.586023Z,-0.117737,-0.31842,-1.1412959999999999
2018-10-16T23:39:30.777023Z,-0.177734,0.282837,0.135925
2018-10-16T23:39:30.972023Z,0.352844,-0.319031,0.520874
2018-10-16T23:39:31.172023Z,0.533936,-1.306458,1.032043
2018-10-16T23:39:31.372023Z,0.543945,0.288513,1.077942
2018-10-16T23:39:31.585023Z,1.141968,0.916443,0.848083
2018-10-16T23:39:31.772023Z,1.365356,0.208069,0.06579600000000001
2018-10-16T23:39:31.972023Z,0.44397,-0.926392,-0.991394
2018-10-16T23:39:32.172023Z,1.675415,-0.6872560000000001,-1.9799799999999999
2018-10-16T23:39:32.373023Z,0.080322,0.170593,-0.379272
2018-10-16T23:39:32.572023Z,-0.549988,1.326172,-0.07489
2018-10-16T23:39:32.772023Z,0.238525,1.720032,-0.893127
2018-10-16T23:39:32.972023Z,1.410156,0.39569099999999996,-1.28302
2018-10-16T23:39:33.172023Z,1.479492,1.060425,-0.666992
2018-10-16T23:39:33.372023Z,0.719604,1.626709,-0.535583
2018-10-16T23:39:33.574023Z,0.45288100000000003,2.215759,0.189331
2018-10-16T23:39:33.775023Z,0.095154,0.611572,1.521667
2018-10-16T23:39:33.973023Z,0.36438000000000004,-0.470947,1.664551
2018-10-16T23:39:34.172023Z,0.173584,0.8005979999999999,-0.323975
2018-10-16T23:39:34.373023Z,0.626343,1.638611,-0.792053
2018-10-16T23:39:34.573023Z,-0.7099,1.7597049999999999,0.405273
2018-10-16T23:39:34.773023Z,1.3354489999999999,0.219971,0.06591799999999999
2018-10-16T23:39:34.973023Z,0.581543,0.186951,-1.486328
2018-10-16T23:39:35.177023Z,0.07312,0.857361,1.448425
2018-10-16T23:39:35.372023Z,-0.074097,1.127258,-0.368896
2018-10-16T23:39:35.572023Z,0.783752,0.414429,-0.792419
2018-10-16T23:39:35.772023Z,0.525208,0.6210939999999999,0.625977
2018-10-16T23:39:35.972023Z,0.12170399999999999,0.663269,-0.734558
2018-10-16T23:39:36.171023Z,0.23938,0.545471,-0.42297399999999996
2018-10-16T23:39:36.372023Z,0.168457,0.58728,-0.997925
2018-10-16T23:39:36.601023Z,0.042969,0.834167,-0.09258999999999999
2018-10-16T23:39:36.774023Z,0.14819300000000002,0.781799,-0.50769
2018-10-16T23:39:36.973023Z,-0.454834,1.450684,-0.367004
2018-10-16T23:39:37.173023Z,0.752258,-0.433228,0.49706999999999996
2018-10-16T23:39:37.372023Z,1.7589110000000001,-0.9651489999999999,-0.9389040000000001
2018-10-16T23:39:37.573023Z,-1.131897,1.256226,-0.106873
2018-10-16T23:39:37.773023Z,0.906006,-0.32000700000000004,-0.329285
2018-10-16T23:39:37.973023Z,0.223938,0.342773,-0.028076
2018-10-16T23:39:38.173023Z,-0.193115,0.567932,1.294006
2018-10-16T23:39:38.401023Z,0.36230500000000004,0.356689,-0.6602779999999999
2018-10-16T23:39:38.572023Z,-0.24450700000000003,0.527283,-0.70813
2018-10-16T23:39:38.772023Z,0.222412,0.390625,0.080627
2018-10-16T23:39:39.005023Z,-0.21728499999999998,0.421387,0.587341
2018-10-16T23:39:39.173023Z,-0.061217999999999995,0.095459,-0.38000500000000004
2018-10-16T23:39:39.372023Z,0.69458,0.12048299999999999,-0.22405999999999998
2018-10-16T23:39:39.573023Z,-0.798828,0.35553,-0.441284
2018-10-16T23:39:39.772023Z,0.004883,0.208191,0.37793000000000004
2018-10-16T23:39:39.972023Z,6.1e-05,0.402466,-0.314392
2018-10-16T23:39:40.172023Z,0.142334,0.17541500000000002,-0.704346
2018-10-16T23:39:40.372023Z,-0.212769,0.624512,0.34863299999999997
2018-10-16T23:39:40.572023Z,0.192444,-0.17218,0.21826199999999998
2018-10-16T23:39:40.774023Z,0.147583,0.128479,-0.356995
2018-10-16T23:39:40.973023Z,0.367798,0.35626199999999997,-0.082153
2018-10-16T23:39:41.172023Z,-0.296021,0.065247,-0.6445310000000001
2018-10-16T23:39:41.381023Z,0.17266800000000002,-0.193726,0.33123800000000003
2018-10-16T23:39:41.580023Z,0.488281,0.04895,0.9199219999999999
2018-10-16T23:39:41.773023Z,0.835571,1.050598,-2.3012080000000004
2018-10-16T23:39:41.972023Z,2.88678,0.799744,-2.498413
2018-10-16T23:39:42.172023Z,2.372864,2.169189,3.650696
2018-10-16T23:39:42.372023Z,1.1207280000000002,-0.891724,2.320679
2018-10-16T23:39:42.572023Z,-1.8237299999999999,-1.79303,-3.116821
2018-10-16T23:39:42.972023Z,-1.283875,1.2572020000000002,0.71521
2018-10-16T23:39:43.172023Z,-0.006409000000000001,1.5726930000000001,-0.617737
2018-10-16T23:39:43.372023Z,0.8716430000000001,0.627686,-0.5919800000000001
2018-10-16T23:39:43.572023Z,0.137329,-0.734558,-0.10607899999999999
2018-10-16T23:39:43.775023Z,-0.9606319999999999,1.2658690000000001,-1.371887
2018-10-16T23:39:43.973023Z,0.365784,2.0042720000000003,-1.284729
2018-10-16T23:39:44.172023Z,0.09820599999999999,1.351501,0.5090939999999999
2018-10-16T23:39:44.373023Z,-0.7502439999999999,-1.144958,-0.445007
2018-10-16T23:39:44.590023Z,-0.273071,-0.585388,-0.161438
2018-10-16T23:39:44.775023Z,0.09301799999999999,-0.42767299999999997,0.048523000000000004
2018-10-16T23:39:44.981023Z,-0.171448,-0.357239,-0.4422
2018-10-16T23:39:45.173023Z,-1.430359,0.24231,-0.618408
2018-10-16T23:39:45.373023Z,-1.323547,-0.20318599999999998,-1.155457
2018-10-16T23:39:45.572023Z,-1.41156,0.222595,-0.063721
2018-10-16T23:39:45.772023Z,-1.1872559999999999,0.10968,-0.045349
2018-10-16T23:39:45.972023Z,-0.27929699999999996,-0.948242,0.402344
2018-10-16T23:39:46.172023Z,0.13159200000000001,-0.42114300000000005,-1.9017939999999998
2018-10-16T23:39:46.372023Z,0.222229,0.506897,-0.9609989999999999
2018-10-16T23:39:46.573023Z,0.04718,1.005005,0.853699
2018-10-16T23:39:46.773023Z,-1.059204,-0.9707030000000001,1.359802
2018-10-16T23:39:46.972023Z,-0.429932,-1.41925,-2.181641
2018-10-16T23:39:47.173023Z,-1.328064,0.848267,1.322815
2018-10-16T23:39:47.373023Z,-1.528015,0.9082030000000001,-0.993469
2018-10-16T23:39:47.573023Z,-0.79303,-1.142151,1.391846
2018-10-16T23:39:47.773023Z,-0.926941,-0.8927,0.8583370000000001
2018-10-16T23:39:47.973023Z,-0.7619020000000001,-0.256531,-0.039124
2018-10-16T23:39:48.173023Z,-0.510681,0.342529,-0.23669400000000002
2018-10-16T23:39:48.392023Z,-0.45288100000000003,0.125366,0.047546
2018-10-16T23:39:48.573023Z,-0.769836,0.03418,-0.519592
2018-10-16T23:39:48.775023Z,-0.937378,-0.6757810000000001,-1.35614
2018-10-16T23:39:48.972023Z,-0.39624000000000004,-0.6598510000000001,-1.051575
2018-10-16T23:39:49.172023Z,-0.24542199999999997,-0.847534,-0.58905
2018-10-16T23:39:49.372023Z,-1.043701,-1.7844849999999999,3.0053099999999997
2018-10-16T23:39:49.572023Z,-0.652771,-0.337402,2.8713990000000003
2018-10-16T23:39:49.772023Z,0.389343,1.231567,0.607117
2018-10-16T23:39:49.972023Z,0.494568,1.236633,-0.590637
2018-10-16T23:39:50.172023Z,-0.031555,-0.016174,0.595093
2018-10-16T23:39:50.372023Z,-1.235657,-1.405151,-1.5921020000000001
2018-10-16T23:39:50.573023Z,-0.37298600000000004,-0.03241,-0.986511
2018-10-16T23:39:50.772023Z,-0.25488299999999997,0.64325,-0.789978
2018-10-16T23:39:50.972023Z,-0.015198,0.425964,-1.095764
2018-10-16T23:39:51.175023Z,-0.130737,-0.803162,-0.648438
2018-10-16T23:39:51.372023Z,-0.21606399999999998,0.143555,-0.22528099999999998
2018-10-16T23:39:51.572023Z,-0.104675,-0.064514,0.11608900000000001
2018-10-16T23:39:51.784023Z,0.53186,-0.9713129999999999,-0.29699699999999996
2018-10-16T23:39:51.974023Z,-0.919373,-0.24231,-1.151306
2018-10-16T23:39:52.177023Z,-0.28686500000000004,-0.399048,-0.241943
2018-10-16T23:39:52.373023Z,-0.37701399999999996,-0.31738299999999997,0.194946
2018-10-16T23:39:52.573023Z,-1.27301,0.024841,-0.297119
2018-10-16T23:39:52.772023Z,-1.975525,0.5234989999999999,-0.6156010000000001
2018-10-16T23:39:52.972023Z,-1.217224,0.016052,0.042725
2018-10-16T23:39:53.172023Z,-1.126221,0.338074,0.266907
2018-10-16T23:39:53.372023Z,-0.257385,-1.363953,0.8516239999999999
2018-10-16T23:39:53.572023Z,-0.330505,-1.135498,0.921326
2018-10-16T23:39:53.772023Z,-0.516846,-0.18866,-0.33972199999999997
2018-10-16T23:39:53.972023Z,-0.142822,0.564758,0.06579600000000001
2018-10-16T23:39:54.172023Z,-0.867798,-0.7677609999999999,0.8850100000000001
2018-10-16T23:39:54.374023Z,-1.313843,-1.31897,-0.8735350000000001
2018-10-16T23:39:54.573023Z,-1.189087,0.173828,-0.8212889999999999
2018-10-16T23:39:54.772023Z,-1.630371,0.989441,-1.0065309999999998
2018-10-16T23:39:54.973023Z,-0.664795,0.472046,-0.061462
2018-10-16T23:39:55.176023Z,-0.197876,-0.971191,0.18365499999999998
2018-10-16T23:39:55.373023Z,-0.569214,-1.6785889999999999,-0.26873800000000003
2018-10-16T23:39:55.573023Z,-0.397034,-0.35693400000000003,-0.070435
2018-10-16T23:39:55.772023Z,-0.665466,0.347961,0.112793
2018-10-16T23:39:55.972023Z,-0.247559,0.142029,-0.22778299999999999
2018-10-16T23:39:56.229023Z,-1.259766,-0.739685,1.0264280000000001
2018-10-16T23:39:56.373023Z,-1.389343,-0.50708,0.008728
2018-10-16T23:39:56.572023Z,-1.7087400000000001,-0.26763899999999996,-0.17193599999999998
2018-10-16T23:39:56.772023Z,-1.7478029999999998,-0.351379,-0.341492
2018-10-16T23:39:56.972023Z,-0.6599729999999999,-0.23669400000000002,0.6796260000000001
2018-10-16T23:39:57.371023Z,-0.411987,-0.259766,-1.687439
2018-10-16T23:39:57.573023Z,-0.257202,-0.147644,-0.885742
2018-10-16T23:39:57.775023Z,-0.7622680000000001,0.363281,-0.412354
2018-10-16T23:39:57.983023Z,-0.2677,0.875732,-1.125366
2018-10-16T23:39:58.178023Z,-0.8560180000000001,0.20874,-0.4646
2018-10-16T23:39:58.373023Z,-1.747314,-0.586792,-1.414917
2018-10-16T23:39:58.575023Z,-1.537048,0.6911010000000001,-0.652405
2018-10-16T23:39:58.775023Z,-1.252197,0.937744,-0.314148
2018-10-16T23:39:58.972023Z,-0.833557,0.841492,0.404663
2018-10-16T23:39:59.172023Z,0.19958499999999998,-1.130981,1.789062
2018-10-16T23:39:59.372023Z,-0.864807,-0.640015,-0.690674
2018-10-16T23:39:59.572023Z,-0.320862,0.44171099999999996,-0.512085
2018-10-16T23:39:59.772023Z,-0.979187,0.649109,-0.653137
2018-10-16T23:39:59.973023Z,-1.046082,-1.323669,-1.424561
2018-10-16T23:40:00.172023Z,0.14874300000000001,-0.62146,-0.663147
2018-10-16T23:40:00.381023Z,-0.27923600000000004,-0.7929689999999999,-0.299744
2018-10-16T23:40:00.581023Z,-0.678772,-0.035522000000000005,-0.544678
2018-10-16T23:40:00.772023Z,0.689209,-0.824158,-0.5622560000000001
2018-10-16T23:40:00.974023Z,1.166321,-0.063965,-1.109253
2018-10-16T23:40:01.172023Z,0.76178,0.370544,-0.855347
2018-10-16T23:40:01.372023Z,0.979736,1.381042,-0.211121
2018-10-16T23:40:01.573023Z,-0.371277,-0.08477799999999999,-0.385254
2018-10-16T23:40:01.774023Z,0.096375,-1.276733,1.280884
2018-10-16T23:40:01.973023Z,-0.161682,0.11853,0.29718
2018-10-16T23:40:02.174023Z,0.27618400000000004,0.543396,0.710571
2018-10-16T23:40:02.373023Z,0.44104,-1.001465,-2.435181
2018-10-16T23:40:02.574023Z,0.203735,-0.182739,-1.353577
2018-10-16T23:40:02.772023Z,0.092468,-0.13446,-0.297119
2018-10-16T23:40:02.972023Z,-0.402893,-0.816956,-1.33905
2018-10-16T23:40:03.183023Z,-0.9146120000000001,0.318542,-1.1427
2018-10-16T23:40:03.382023Z,-0.677124,-0.166687,-0.570496
2018-10-16T23:40:03.582023Z,-1.109924,0.009033,-0.16095
2018-10-16T23:40:03.782023Z,-1.072021,-1.217834,1.520569
2018-10-16T23:40:03.982023Z,-0.296631,-1.146362,2.35321
2018-10-16T23:40:04.182023Z,0.30847199999999997,0.176331,-0.41082799999999997
2018-10-16T23:40:04.383023Z,0.107483,0.934631,0.991394
2018-10-16T23:40:04.582023Z,-0.773193,1.3637700000000001,0.07623300000000001
2018-10-16T23:40:04.783023Z,-1.588806,-1.325867,-2.853027
2018-10-16T23:40:04.983023Z,-0.625305,-0.824463,-1.414124
2018-10-16T23:40:05.196023Z,-1.422607,-0.046692000000000004,-0.46637
2018-10-16T23:40:05.382023Z,-0.44085699999999994,0.11181600000000001,-0.379944
2018-10-16T23:40:05.584023Z,-0.264282,0.075317,0.129761
2018-10-16T23:40:05.785023Z,0.398499,-1.0859379999999998,0.328857
2018-10-16T23:40:05.989023Z,0.9013059999999999,-0.850037,0.467834
2018-10-16T23:40:06.182023Z,0.492249,0.048583999999999995,0.626343
2018-10-16T23:40:06.382023Z,0.420227,0.941467,0.650146
2018-10-16T23:40:06.582023Z,-0.24542199999999997,-0.531799,1.013611
2018-10-16T23:40:06.782023Z,-0.346558,-0.436279,-1.452698
2018-10-16T23:40:06.982023Z,-0.263367,0.686707,0.6965939999999999
2018-10-16T23:40:07.182023Z,0.864563,0.416321,1.373779
2018-10-16T23:40:07.383023Z,0.323975,-1.1646729999999998,2.318542
2018-10-16T23:40:07.582023Z,0.427551,0.161072,-2.085388
2018-10-16T23:40:07.783023Z,1.3310549999999999,0.5247189999999999,0.126526
2018-10-16T23:40:08.026023Z,0.708862,-0.17565899999999998,2.072021
2018-10-16T23:40:08.185023Z,0.612488,-0.740479,-0.731934
2018-10-16T23:40:08.383023Z,0.5778810000000001,0.090149,-0.7188720000000001
2018-10-16T23:40:08.583023Z,0.533752,-0.025757,0.13000499999999998
2018-10-16T23:40:08.783023Z,-0.538208,1.299072,0.798218
2018-10-16T23:40:08.983023Z,1.820007,0.124634,0.676636
2018-10-16T23:40:09.183023Z,0.8682860000000001,0.679077,0.618286
2018-10-16T23:40:09.383023Z,0.40124499999999996,2.224304,-0.41931199999999996
2018-10-16T23:40:09.582023Z,0.44226099999999996,1.125366,0.129333
2018-10-16T23:40:09.783023Z,0.378418,0.246033,-0.789612
2018-10-16T23:40:09.985023Z,0.250671,0.97229,-0.16961700000000002
2018-10-16T23:40:10.182023Z,-0.165955,1.444153,-1.244263
2018-10-16T23:40:10.383023Z,-1.144714,2.0982060000000002,-1.9956049999999999
2018-10-16T23:40:10.582023Z,1.538818,1.046814,-0.8172
2018-10-16T23:40:10.782023Z,1.368225,-0.167664,-1.480286
2018-10-16T23:40:10.982023Z,-0.013123,1.576538,-0.40155
2018-10-16T23:40:11.184023Z,0.040039,2.0479130000000003,-0.357483
2018-10-16T23:40:11.383023Z,0.565186,0.397278,0.159119
2018-10-16T23:40:11.587023Z,0.22021500000000002,-0.11907999999999999,-1.601501
2018-10-16T23:40:11.783023Z,-0.286011,0.32489,-1.469299
2018-10-16T23:40:11.988023Z,0.147339,1.14209,-0.8682860000000001
2018-10-16T23:40:12.183023Z,-0.34198,1.365601,-1.21405
2018-10-16T23:40:12.383023Z,-0.351196,1.482788,0.054688
2018-10-16T23:40:12.783023Z,0.365112,1.418213,0.5134890000000001
2018-10-16T23:40:12.982023Z,-0.095337,0.275513,1.234436
2018-10-16T23:40:13.182023Z,0.031188999999999998,0.06604,-0.041992
2018-10-16T23:40:13.389023Z,0.520691,0.070374,-0.985352
2018-10-16T23:40:13.585023Z,0.21929899999999997,1.9574580000000001,-0.422791
2018-10-16T23:40:13.782023Z,1.161621,1.8539430000000001,0.740479
2018-10-16T23:40:13.982023Z,0.384277,0.11731,1.8809200000000001
2018-10-16T23:40:14.182023Z,-0.36377,-0.9931639999999999,-1.397461
2018-10-16T23:40:14.382023Z,-0.738892,1.060791,-1.322876
2018-10-16T23:40:14.582023Z,-0.144897,1.2700200000000001,0.297668
2018-10-16T23:40:14.783023Z,-0.28625500000000004,-0.013855000000000001,0.439514
2018-10-16T23:40:15.047023Z,0.019836000000000003,-0.320679,-0.086426
2018-10-16T23:40:15.183023Z,-0.471558,0.423828,-0.236938
2018-10-16T23:40:15.384023Z,0.016357,-0.08252000000000001,-0.585754
2018-10-16T23:40:15.582023Z,0.045531999999999996,-0.266113,-0.008118
2018-10-16T23:40:15.784023Z,-0.256348,-0.40441900000000003,0.853455
2018-10-16T23:40:15.986023Z,-0.761658,-0.311035,0.274902
2018-10-16T23:40:16.187023Z,-0.118591,-0.213562,-0.09258999999999999
2018-10-16T23:40:16.384023Z,-0.207581,0.015808000000000003,-0.660339
2018-10-16T23:40:16.582023Z,0.636047,-0.252319,1.025879
2018-10-16T23:40:16.782023Z,-0.36486799999999997,-0.158325,-0.336792
2018-10-16T23:40:16.982023Z,-1.569519,0.380798,-1.357178
2018-10-16T23:40:17.183023Z,-1.440125,0.097351,-0.226746
2018-10-16T23:40:17.382023Z,-0.302734,1.583435,2.327209
2018-10-16T23:40:17.582023Z,1.395508,-0.105652,0.221619
2018-10-16T23:40:17.782023Z,-0.9877319999999999,-1.546448,0.87854
2018-10-16T23:40:17.983023Z,-1.722107,-0.569153,-1.571899
2018-10-16T23:40:18.183023Z,-0.683533,1.2071530000000001,-0.354004
2018-10-16T23:40:18.383023Z,-0.6922,-0.40222199999999997,1.1177979999999998
2018-10-16T23:40:18.582023Z,-1.660522,-0.6212770000000001,-2.7453
2018-10-16T23:40:18.782023Z,-0.32867399999999997,0.694763,-0.341858
2018-10-16T23:40:18.983023Z,-0.315552,0.6049800000000001,0.30236799999999997
2018-10-16T23:40:19.183023Z,-1.008057,-1.166382,0.041504
2018-10-16T23:40:19.383023Z,-1.822815,-0.073242,-1.8497919999999999
2018-10-16T23:40:19.583023Z,-1.358459,-0.27050799999999997,1.009644
2018-10-16T23:40:19.783023Z,-1.880859,-0.641846,-1.240723
2018-10-16T23:40:19.982023Z,-1.556763,0.001343,-0.661377
2018-10-16T23:40:20.182023Z,-1.8828740000000002,-0.217773,0.355286
2018-10-16T23:40:20.382023Z,-0.7721560000000001,0.827209,-0.25256300000000004
2018-10-16T23:40:20.582023Z,-0.541443,1.798584,-0.41259799999999996
2018-10-16T23:40:20.782023Z,-0.8066409999999999,1.577209,-0.725342
2018-10-16T23:40:20.982023Z,-0.47949200000000003,-0.312866,-0.024536000000000002
2018-10-16T23:40:21.182023Z,-0.407288,-0.28418000000000004,-3.437012
2018-10-16T23:40:21.382023Z,-0.614502,0.950684,-0.587036
2018-10-16T23:40:21.582023Z,-0.785339,1.485596,-0.62384
2018-10-16T23:40:21.784023Z,-0.905518,-0.09088099999999999,-0.17877200000000001
2018-10-16T23:40:21.987023Z,-1.934814,-0.695923,0.36688200000000004
2018-10-16T23:40:22.185023Z,-2.001953,0.84021,-1.9659419999999999
2018-10-16T23:40:22.383023Z,-0.618896,1.333008,-1.990906
2018-10-16T23:40:22.582023Z,-0.307129,1.218933,1.6026
2018-10-16T23:40:22.783023Z,-0.526245,-0.755676,-1.447144
2018-10-16T23:40:22.982023Z,-1.25647,-0.142517,-1.997314
2018-10-16T23:40:23.183023Z,-0.394409,0.14056400000000002,0.5798949999999999
2018-10-16T23:40:23.397023Z,-0.729431,-0.249939,0.367859
2018-10-16T23:40:23.583023Z,-0.9912110000000001,-0.72113,0.220764
2018-10-16T23:40:23.791023Z,-0.7028810000000001,-0.6828,0.276794
2018-10-16T23:40:23.988023Z,-0.313965,-0.9213870000000001,-1.556946
2018-10-16T23:40:24.182023Z,-0.159729,0.415588,1.3206790000000002
2018-10-16T23:40:24.382023Z,0.570923,-0.22937,-0.622742
2018-10-16T23:40:24.582023Z,0.537048,0.41705299999999995,-0.661133
2018-10-16T23:40:24.782023Z,0.530945,0.406555,-0.516602
2018-10-16T23:40:24.983023Z,-2.084534,-0.620239,-0.161987
2018-10-16T23:40:25.183023Z,-1.648193,-0.075195,-1.0535889999999999
2018-10-16T23:40:25.382023Z,-0.518799,0.63031,-0.129639
2018-10-16T23:40:25.588023Z,0.21344000000000002,0.106689,-1.597717
2018-10-16T23:40:25.783023Z,0.128235,-0.9866940000000001,0.24359099999999997
2018-10-16T23:40:26.011023Z,-0.49700900000000003,0.077454,0.141663
2018-10-16T23:40:26.201023Z,-0.731506,0.549622,-0.23712199999999997
2018-10-16T23:40:26.383023Z,-0.030701,-0.104004,-0.21728499999999998
2018-10-16T23:40:26.584023Z,-1.644348,-0.306519,-1.523682
2018-10-16T23:40:26.982023Z,-1.2352290000000001,0.592896,-0.055847
2018-10-16T23:40:27.182023Z,-0.817871,1.5065309999999998,-0.569153
2018-10-16T23:40:27.382023Z,-0.420837,1.427246,-0.42669700000000005
2018-10-16T23:40:27.583023Z,0.285339,-1.257935,-0.39569099999999996
2018-10-16T23:40:27.782023Z,0.404541,-0.95929,-2.018982
2018-10-16T23:40:27.982023Z,-1.272034,1.036316,0.492249
2018-10-16T23:40:28.182023Z,-1.45343,-2.0128169999999996,4.5378419999999995
2018-10-16T23:40:28.386023Z,-0.562134,-0.509216,-1.437683
2018-10-16T23:40:28.583023Z,-1.395142,0.729431,0.037659
2018-10-16T23:40:28.783023Z,-0.937256,-0.291077,2.4380490000000004
2018-10-16T23:40:28.983023Z,-1.390564,-1.6931150000000001,0.661133
2018-10-16T23:40:29.182023Z,-0.5549930000000001,-0.370483,-0.012695
2018-10-16T23:40:29.383023Z,-1.67334,0.044677999999999995,1.6762080000000001
2018-10-16T23:40:29.583023Z,-1.068909,0.097473,-0.874817
2018-10-16T23:40:29.783023Z,-0.737183,-0.138794,-0.0177
