Datetime,accx,accy,accz
2018-10-02T19:02:21.661088Z,0.0,0.0,0.0
2018-10-02T19:02:21.819088Z,-0.049657,0.229465,-0.287767
2018-10-02T19:02:22.061088Z,-0.195302,0.27536,0.20555199999999998
2018-10-02T19:02:22.262088Z,-0.749261,-0.37390100000000004,0.69306
2018-10-02T19:02:22.449088Z,-0.6720010000000001,-1.2462090000000001,-0.0733
2018-10-02T19:02:22.663088Z,-0.23494299999999999,-0.677305,-0.587581
2018-10-02T19:02:22.862088Z,-0.9284389999999999,0.698365,-0.41770100000000004
2018-10-02T19:02:23.065088Z,-1.780558,-0.919062,1.181692
2018-10-02T19:02:23.264088Z,-1.775886,-1.9082880000000002,-0.137677
2018-10-02T19:02:23.464088Z,-0.601721,-0.128715,-0.44345100000000004
2018-10-02T19:02:23.663088Z,0.557875,0.23935399999999998,0.476864
2018-10-02T19:02:23.863088Z,1.1691049999999998,-0.6883090000000001,1.662235
2018-10-02T19:02:24.064088Z,0.806188,-1.7562520000000001,-0.36901799999999996
2018-10-02T19:02:24.264088Z,1.145759,-0.070251,-0.43358599999999997
2018-10-02T19:02:24.465088Z,0.523012,0.871417,0.648928
2018-10-02T19:02:24.663088Z,1.39134,-0.5101060000000001,0.616717
2018-10-02T19:02:24.865088Z,1.048052,-0.489979,-1.234648
2018-10-02T19:02:25.059088Z,0.27524,0.781195,-0.038583
2018-10-02T19:02:25.265088Z,0.500556,0.268024,1.256263
2018-10-02T19:02:25.465088Z,0.231915,-0.398921,-0.794284
2018-10-02T19:02:25.676088Z,0.49768599999999996,0.034338,-0.35078899999999996
2018-10-02T19:02:25.852088Z,0.606375,0.609192,0.873049
2018-10-02T19:02:26.067088Z,0.9795010000000001,-0.29531199999999996,0.11212799999999999
2018-10-02T19:02:26.265088Z,-0.029338,-0.903357,-1.104629
2018-10-02T19:02:26.463088Z,-0.01031,1.254453,0.37007399999999996
2018-10-02T19:02:26.697088Z,0.540946,-0.153797,1.364791
2018-10-02T19:02:26.864088Z,0.646749,-0.750103,-0.9429200000000001
2018-10-02T19:02:27.063088Z,0.12905999999999998,-0.190664,-0.216565
2018-10-02T19:02:27.265088Z,-0.37932,1.0054290000000001,0.000637
2018-10-02T19:02:27.454088Z,1.026752,-0.506238,1.091377
2018-10-02T19:02:27.666088Z,0.523341,-0.382797,-1.224559
2018-10-02T19:02:27.858088Z,0.23296999999999998,0.323912,-0.144722
2018-10-02T19:02:28.067088Z,-0.648976,0.5917899999999999,1.253533
2018-10-02T19:02:28.266088Z,-0.228871,-0.910811,-0.336
2018-10-02T19:02:28.455088Z,0.146951,-0.192523,-1.053405
2018-10-02T19:02:28.666088Z,-0.320108,1.2093479999999999,0.447298
2018-10-02T19:02:28.870088Z,0.420832,-0.45187299999999997,0.729169
2018-10-02T19:02:29.055088Z,0.6231869999999999,-0.6488149999999999,-0.873692
2018-10-02T19:02:29.256088Z,0.116895,0.71595,-0.071342
2018-10-02T19:02:29.466088Z,0.797726,0.271867,1.317719
2018-10-02T19:02:29.669088Z,0.613757,-0.631445,-0.528949
2018-10-02T19:02:29.866088Z,0.37543499999999996,0.363908,-1.255897
2018-10-02T19:02:30.069088Z,-0.23185,0.22467800000000002,1.5061
2018-10-02T19:02:30.269088Z,0.288175,-0.9461309999999999,0.294129
2018-10-02T19:02:30.468088Z,-0.29620799999999997,-0.33213200000000004,-0.953507
2018-10-02T19:02:30.668088Z,0.021825999999999998,0.895559,0.450298
2018-10-02T19:02:30.868088Z,-0.0112,-0.664762,1.047556
2018-10-02T19:02:31.067088Z,0.418105,-0.8349790000000001,-0.786166
2018-10-02T19:02:31.257088Z,0.005085,0.24674400000000002,-0.422795
2018-10-02T19:02:31.469088Z,-0.7023550000000001,0.461729,1.031933
2018-10-02T19:02:31.678088Z,0.48488000000000003,-0.754102,-0.338721
2018-10-02T19:02:31.869088Z,-0.699095,0.366645,-0.9929379999999999
2018-10-02T19:02:32.058088Z,0.147567,0.62558,1.0315159999999999
2018-10-02T19:02:32.270088Z,0.178782,-0.397258,0.566238
2018-10-02T19:02:32.499088Z,-0.463121,-0.7731359999999999,-0.995721
2018-10-02T19:02:32.670088Z,-0.649759,0.307207,0.20736100000000002
2018-10-02T19:02:32.870088Z,-0.907299,-0.071724,0.607178
2018-10-02T19:02:33.071088Z,-1.040965,-0.539801,-0.632258
2018-10-02T19:02:33.270088Z,0.08739,0.38946,-0.43634700000000004
2018-10-02T19:02:33.459088Z,0.603294,1.02494,0.284194
2018-10-02T19:02:33.671088Z,0.213873,-0.11222599999999999,1.225442
2018-10-02T19:02:33.869088Z,-0.06986,-0.97967,-0.666654
2018-10-02T19:02:34.071088Z,0.68018,0.164272,-0.379148
2018-10-02T19:02:34.272088Z,-0.009158,1.0719370000000001,0.6756340000000001
2018-10-02T19:02:34.471088Z,0.49203800000000003,-0.82452,0.391263
2018-10-02T19:02:34.672088Z,0.384367,-0.275482,-1.3920290000000002
2018-10-02T19:02:34.860088Z,0.000907,1.118287,-0.124481
2018-10-02T19:02:35.071088Z,0.7722760000000001,0.396411,1.6528479999999999
2018-10-02T19:02:35.271088Z,1.139926,-1.4499440000000001,-0.10990799999999999
2018-10-02T19:02:35.460088Z,0.8903700000000001,-0.028018,-0.9321020000000001
2018-10-02T19:02:35.672088Z,0.644234,0.744232,1.016357
2018-10-02T19:02:35.927088Z,1.6239190000000001,-0.368827,0.36391599999999996
2018-10-02T19:02:36.060088Z,0.8614450000000001,-0.251918,-1.313313
2018-10-02T19:02:36.261088Z,0.247554,0.391146,0.126932
2018-10-02T19:02:36.499088Z,0.319243,-0.025246,1.267226
2018-10-02T19:02:36.697088Z,0.084109,-1.4384620000000001,-0.125591
2018-10-02T19:02:36.898088Z,0.14266500000000001,0.596511,-0.9839680000000001
2018-10-02T19:02:37.099088Z,-0.21832800000000002,0.91353,0.55608
2018-10-02T19:02:37.299088Z,0.344715,-0.390839,0.363083
2018-10-02T19:02:37.592088Z,0.928049,-0.196721,-0.67795
2018-10-02T19:02:37.662088Z,0.562133,0.818142,-0.405995
2018-10-02T19:02:37.863088Z,0.6860149999999999,-0.241835,1.7724779999999998
2018-10-02T19:02:38.062088Z,0.38559,-1.104946,-0.280914
2018-10-02T19:02:38.273088Z,-0.07445299999999999,0.433705,-1.219852
2018-10-02T19:02:38.474088Z,0.441712,0.6500090000000001,0.129922
2018-10-02T19:02:38.674088Z,1.092703,0.018644,1.305083
2018-10-02T19:02:38.873088Z,0.796613,-0.329569,0.206765
2018-10-02T19:02:39.074088Z,0.46685,-0.570745,-0.337584
2018-10-02T19:02:39.274088Z,0.14843699999999999,0.244876,0.108201
2018-10-02T19:02:39.478088Z,0.41527600000000003,-1.196458,0.475603
2018-10-02T19:02:39.675088Z,0.548004,-0.46179499999999996,-0.43926499999999996
2018-10-02T19:02:39.874088Z,0.327146,-0.249389,0.551458
2018-10-02T19:02:40.076088Z,0.815337,-1.157992,1.003901
2018-10-02T19:02:40.275088Z,0.30533899999999997,-1.171238,0.210921
2018-10-02T19:02:40.475088Z,0.130414,-0.6063729999999999,-0.14693499999999998
2018-10-02T19:02:40.675088Z,0.432675,-0.233281,-0.22557399999999997
2018-10-02T19:02:40.865088Z,0.456379,0.632229,0.522409
2018-10-02T19:02:41.076088Z,0.197543,-1.5412059999999999,1.673334
2018-10-02T19:02:41.265088Z,0.18791300000000002,-1.7802580000000001,-0.066509
2018-10-02T19:02:41.476088Z,0.305057,-0.677407,-0.289145
2018-10-02T19:02:41.675088Z,0.240076,-0.325933,0.409865
2018-10-02T19:02:41.877088Z,-0.240515,-0.364039,0.709282
2018-10-02T19:02:42.066088Z,0.808678,-1.283584,0.788453
2018-10-02T19:02:42.266088Z,0.24716100000000002,-1.0126389999999998,0.41913999999999996
2018-10-02T19:02:42.477088Z,0.251843,-0.580914,-0.003749
2018-10-02T19:02:42.676088Z,0.52036,-0.34498,-0.22946100000000003
2018-10-02T19:02:42.877088Z,0.543724,0.006141,0.44497700000000007
2018-10-02T19:02:43.067088Z,-0.178465,-0.9648559999999999,0.34099
2018-10-02T19:02:43.278088Z,1.333619,-0.377529,0.036170999999999995
2018-10-02T19:02:43.477088Z,-1.1093879999999998,-0.424126,0.12166600000000001
2018-10-02T19:02:43.680088Z,-0.7151689999999999,0.134088,0.815595
2018-10-02T19:02:43.879088Z,0.528775,-0.341694,0.30256900000000003
2018-10-02T19:02:44.077088Z,0.728535,-1.255198,0.063141
2018-10-02T19:02:44.277088Z,0.9183459999999999,-0.38056,-0.200968
2018-10-02T19:02:44.479088Z,-0.096555,0.38100100000000003,-0.40455599999999997
2018-10-02T19:02:44.677088Z,-0.599644,0.07827200000000001,1.057505
2018-10-02T19:02:44.879088Z,0.12201300000000001,-1.150993,0.388303
2018-10-02T19:02:45.079088Z,0.24127600000000002,-1.0726719999999998,-0.236359
2018-10-02T19:02:45.278088Z,-0.6127199999999999,-0.614789,1.229339
2018-10-02T19:02:45.469088Z,0.687601,-0.159426,0.076089
2018-10-02T19:02:45.669088Z,0.35981599999999997,-0.144144,-0.932757
2018-10-02T19:02:45.880088Z,0.50095,0.056367999999999994,0.30756700000000003
2018-10-02T19:02:46.079088Z,0.7758970000000001,-0.626204,1.535293
2018-10-02T19:02:46.269088Z,0.462172,-0.45726300000000003,-0.8898
2018-10-02T19:02:46.481088Z,-0.21575500000000003,-0.10499100000000001,-0.150112
2018-10-02T19:02:46.679088Z,-0.812737,0.21685300000000002,0.449563
2018-10-02T19:02:46.870088Z,-0.18243,-0.268259,-0.275832
2018-10-02T19:02:47.088088Z,0.009198,-0.597889,0.1007
2018-10-02T19:02:47.281088Z,-0.17468499999999998,-0.028241000000000002,-0.203978
2018-10-02T19:02:47.481088Z,-0.067817,0.904624,0.6193
2018-10-02T19:02:47.685088Z,0.042304,-1.002638,0.635066
2018-10-02T19:02:47.871088Z,0.21011300000000002,-0.668646,-0.673715
2018-10-02T19:02:48.071088Z,0.575174,-0.060078999999999994,0.19895
2018-10-02T19:02:48.282088Z,0.266245,0.309192,0.762528
2018-10-02T19:02:48.489088Z,-0.165708,-1.334401,0.10981500000000001
2018-10-02T19:02:48.671088Z,0.251761,0.23402699999999999,-0.9986
2018-10-02T19:02:48.881088Z,-0.22580799999999998,0.458879,0.811002
2018-10-02T19:02:49.082088Z,-0.9513590000000001,-0.299743,0.7431770000000001
2018-10-02T19:02:49.283088Z,0.286878,-1.327133,-0.115747
2018-10-02T19:02:49.481088Z,0.139969,-0.138444,-0.42444399999999993
2018-10-02T19:02:49.683088Z,-0.575396,0.59629,0.462905
2018-10-02T19:02:49.883088Z,0.29031399999999996,-0.817691,0.373541
2018-10-02T19:02:50.087088Z,-0.7249869999999999,-0.44114899999999996,-1.138799
2018-10-02T19:02:50.283088Z,-2.178355,0.510391,-0.37706
2018-10-02T19:02:50.484088Z,-1.219543,-0.39566599999999996,0.7269909999999999
2018-10-02T19:02:50.686088Z,-0.14781,-0.638468,-0.605043
2018-10-02T19:02:50.886088Z,0.098402,1.517701,-0.748816
2018-10-02T19:02:51.084088Z,0.5173399999999999,0.212166,1.67015
2018-10-02T19:02:51.284088Z,1.612277,-0.598599,-0.033581
2018-10-02T19:02:51.483088Z,1.460546,0.01167,-0.603271
2018-10-02T19:02:51.683088Z,1.17632,0.466771,0.9226639999999999
2018-10-02T19:02:51.900088Z,-0.015616999999999999,-0.5261359999999999,0.33469699999999997
2018-10-02T19:02:52.074088Z,0.06149299999999999,-0.34152899999999997,-1.0178049999999998
2018-10-02T19:02:52.283088Z,-0.015471,0.624839,0.272414
2018-10-02T19:02:52.474088Z,0.10613,-0.363815,1.221271
2018-10-02T19:02:52.675088Z,0.580966,-0.727,-0.544767
2018-10-02T19:02:52.885088Z,0.48884700000000003,0.065893,-0.628329
2018-10-02T19:02:53.075088Z,0.920743,1.133376,0.884934
2018-10-02T19:02:53.286088Z,0.912766,-0.598952,0.7824810000000001
2018-10-02T19:02:53.543088Z,1.424088,-1.018581,-0.122745
2018-10-02T19:02:53.686088Z,0.451593,0.6098100000000001,-0.843457
2018-10-02T19:02:53.886088Z,-0.939342,0.5666329999999999,0.44905200000000006
2018-10-02T19:02:54.085088Z,-0.769392,-1.446464,0.355523
2018-10-02T19:02:54.287088Z,-0.878008,-0.170009,-0.877374
2018-10-02T19:02:54.486088Z,0.609637,0.835283,-0.034871
2018-10-02T19:02:54.677088Z,0.908433,0.617237,1.217196
2018-10-02T19:02:54.888088Z,0.47289799999999993,-1.71258,0.476742
2018-10-02T19:02:55.078088Z,1.32802,-0.5440520000000001,-0.333374
2018-10-02T19:02:55.287088Z,0.177245,1.180316,0.355074
2018-10-02T19:02:55.486088Z,0.842462,-0.6474489999999999,0.868856
2018-10-02T19:02:55.688088Z,-0.165434,-0.349718,-1.079628
2018-10-02T19:02:55.887088Z,-0.070382,0.814267,-0.488324
2018-10-02T19:02:56.078088Z,-0.157173,1.231535,0.422472
2018-10-02T19:02:56.291088Z,0.952965,-1.215909,1.134966
2018-10-02T19:02:56.490088Z,0.635575,-0.507815,-0.829375
2018-10-02T19:02:56.689088Z,0.720106,0.644053,0.04915
2018-10-02T19:02:56.888088Z,0.647047,-0.225029,1.479429
2018-10-02T19:02:57.121088Z,0.9312229999999999,-0.655996,-0.5557310000000001
2018-10-02T19:02:57.289088Z,0.246148,0.463401,-0.728708
2018-10-02T19:02:57.491088Z,-0.7901859999999999,0.354078,0.593024
2018-10-02T19:02:57.690088Z,-0.9064530000000001,-0.9184530000000001,0.748292
2018-10-02T19:02:57.879088Z,-1.28508,-1.4630379999999998,0.096987
2018-10-02T19:02:58.088088Z,0.218308,-0.346561,0.005077
2018-10-02T19:02:58.292088Z,0.43986000000000003,0.6753979999999999,0.50163
2018-10-02T19:02:58.491088Z,1.213015,-0.478282,0.588758
2018-10-02T19:02:58.680088Z,0.707028,-0.457755,-0.569508
2018-10-02T19:02:58.890088Z,0.20679299999999998,0.804508,-0.305927
2018-10-02T19:02:59.091088Z,0.26360100000000003,0.415137,0.801214
2018-10-02T19:02:59.335088Z,1.551981,-1.59315,0.35131599999999996
2018-10-02T19:02:59.489088Z,1.051426,0.197562,-0.998467
2018-10-02T19:02:59.691088Z,0.048851,0.601059,0.49910699999999997
2018-10-02T19:02:59.891088Z,0.291163,-0.553762,1.28109
2018-10-02T19:03:00.091088Z,-0.097375,-0.9988299999999999,-0.457733
2018-10-02T19:03:00.293088Z,-0.15615,0.334323,-0.632484
2018-10-02T19:03:00.491088Z,0.80803,1.3581889999999999,0.453485
2018-10-02T19:03:00.693088Z,0.7137680000000001,-1.264641,1.13771
2018-10-02T19:03:00.891088Z,0.885827,-0.6104970000000001,-0.899429
2018-10-02T19:03:01.092088Z,0.549866,0.50344,-0.062765
2018-10-02T19:03:01.293088Z,0.261443,-0.638149,1.8232849999999998
2018-10-02T19:03:01.492088Z,1.155265,-0.853957,-0.589082
2018-10-02T19:03:01.693088Z,0.206275,0.296012,-0.825965
2018-10-02T19:03:01.893088Z,0.49433699999999997,0.574875,0.731582
2018-10-02T19:03:02.092088Z,0.8293520000000001,-0.874547,0.994641
2018-10-02T19:03:02.284088Z,1.404181,-0.28413,-0.8560549999999999
2018-10-02T19:03:02.493088Z,0.797945,0.247833,0.14444400000000002
2018-10-02T19:03:02.695088Z,1.140501,-0.21597600000000003,0.7678020000000001
2018-10-02T19:03:02.895088Z,0.792838,-0.8068310000000001,-0.423309
2018-10-02T19:03:03.084088Z,0.39778,0.15439,-0.164746
2018-10-02T19:03:03.295088Z,0.557461,0.5967520000000001,0.950312
2018-10-02T19:03:03.505088Z,0.166421,-0.8663549999999999,0.301442
2018-10-02T19:03:03.704088Z,0.153633,-0.650233,-0.366711
2018-10-02T19:03:03.905088Z,-0.095213,0.536321,-0.403471
2018-10-02T19:03:04.094088Z,-0.10659300000000001,-0.076815,0.9139700000000001
2018-10-02T19:03:04.296088Z,0.5484060000000001,-1.167317,0.339756
2018-10-02T19:03:04.504088Z,0.77779,-0.8531489999999999,-0.198634
2018-10-02T19:03:04.697088Z,0.760454,-0.656995,0.971198
2018-10-02T19:03:04.886088Z,2.2804,-1.8737080000000002,1.243264
2018-10-02T19:03:05.098088Z,1.0290219999999999,-1.2063469999999998,0.206225
2018-10-02T19:03:05.308088Z,0.243331,-0.566904,0.112877
2018-10-02T19:03:05.506088Z,-0.700151,-0.420163,1.112344
2018-10-02T19:03:05.701088Z,1.707915,-1.0443040000000001,0.21161300000000002
2018-10-02T19:03:05.921088Z,0.9269069999999999,-0.640512,-0.6617890000000001
2018-10-02T19:03:06.122088Z,-0.016447,-0.41898,0.816615
2018-10-02T19:03:06.400088Z,-0.137944,-0.570751,1.329876
2018-10-02T19:03:06.488088Z,-0.72324,-1.219735,-1.0778159999999999
2018-10-02T19:03:06.686088Z,-0.875276,-0.324423,0.027985000000000003
2018-10-02T19:03:06.945088Z,-0.503993,-0.023986,0.920216
2018-10-02T19:03:07.123088Z,0.8099770000000001,-1.0081200000000001,0.379678
2018-10-02T19:03:07.323088Z,0.37613,0.092571,-0.806479
2018-10-02T19:03:07.523088Z,0.125424,-0.017218999999999998,0.461796
2018-10-02T19:03:07.763088Z,-0.13885999999999998,-1.155184,1.3518940000000002
2018-10-02T19:03:07.895088Z,0.816894,-2.085453,-0.037064
2018-10-02T19:03:08.101088Z,-0.2558,-0.604957,-0.6919649999999999
2018-10-02T19:03:08.297088Z,-2.200565,-0.279021,0.98067
2018-10-02T19:03:08.499088Z,-1.3286360000000002,-1.8514279999999999,0.367242
2018-10-02T19:03:08.697088Z,-0.929688,-0.850958,0.115817
2018-10-02T19:03:08.898088Z,0.745812,0.493385,0.094358
2018-10-02T19:03:09.098088Z,1.610616,0.360468,0.730843
2018-10-02T19:03:09.298088Z,0.27779299999999996,-0.533033,0.10669200000000001
2018-10-02T19:03:09.499088Z,-0.029827,0.11456600000000002,-0.6496689999999999
2018-10-02T19:03:09.699088Z,0.624521,0.5424439999999999,0.140165
2018-10-02T19:03:09.899088Z,0.07668,0.574438,0.383471
2018-10-02T19:03:10.099088Z,0.158546,-0.25056300000000004,-0.26803499999999997
2018-10-02T19:03:10.300088Z,-0.264881,-0.501624,-0.6234149999999999
2018-10-02T19:03:10.500088Z,0.429396,0.646336,0.195257
2018-10-02T19:03:10.699088Z,0.21390100000000004,-0.280353,0.891329
2018-10-02T19:03:10.900088Z,-0.5841609999999999,-1.173041,-0.43308100000000005
2018-10-02T19:03:11.100088Z,-0.49728500000000003,-0.716645,0.018409000000000002
2018-10-02T19:03:11.319088Z,0.910184,-0.327937,0.6275890000000001
2018-10-02T19:03:11.490088Z,0.730481,0.194577,-0.20710599999999998
2018-10-02T19:03:11.700088Z,0.433062,-0.19255899999999998,-0.12437999999999999
2018-10-02T19:03:11.901088Z,0.753509,-0.340043,0.806207
2018-10-02T19:03:12.102088Z,1.524915,0.332945,0.166602
2018-10-02T19:03:12.301088Z,1.3857190000000001,1.001586,-0.035997
2018-10-02T19:03:12.501088Z,0.741818,0.054725,0.276746
2018-10-02T19:03:12.702088Z,0.078698,-0.374638,0.9308040000000001
2018-10-02T19:03:12.900088Z,-0.374419,-1.3838409999999999,-1.103251
2018-10-02T19:03:13.104088Z,-1.107268,-0.309838,-0.14118
2018-10-02T19:03:13.303088Z,-0.953673,0.406129,0.8802780000000001
2018-10-02T19:03:13.502088Z,0.645709,-0.678754,-0.093626
2018-10-02T19:03:13.692088Z,-0.101178,-1.126019,-0.454742
2018-10-02T19:03:13.893088Z,0.353365,1.151905,-0.391043
2018-10-02T19:03:14.103088Z,0.721963,-0.21484099999999998,1.470037
2018-10-02T19:03:14.293088Z,2.257689,-0.7126060000000001,-0.418675
2018-10-02T19:03:14.503088Z,0.41938500000000006,0.12363199999999999,-0.703971
2018-10-02T19:03:14.703088Z,0.091554,0.37149099999999996,1.5794700000000002
2018-10-02T19:03:14.893088Z,2.21792,-1.172164,0.05744199999999999
2018-10-02T19:03:15.106088Z,1.130562,0.372535,-1.0281420000000001
2018-10-02T19:03:15.305088Z,0.9371659999999999,0.5901310000000001,0.811319
2018-10-02T19:03:15.494088Z,0.384328,-0.466771,0.8613719999999999
2018-10-02T19:03:15.705088Z,1.074869,-0.298162,-0.409772
2018-10-02T19:03:15.905088Z,0.977669,-0.353993,-0.250724
2018-10-02T19:03:16.105088Z,-0.711611,0.579617,0.646288
2018-10-02T19:03:16.307088Z,0.39914,-0.500219,1.039552
2018-10-02T19:03:16.495088Z,1.016621,-0.706467,-0.533088
2018-10-02T19:03:16.704088Z,0.757468,-0.386718,0.051410000000000004
2018-10-02T19:03:16.905088Z,0.216957,0.369205,0.445563
2018-10-02T19:03:17.115088Z,-0.134329,-1.448193,0.5737909999999999
2018-10-02T19:03:17.306088Z,0.314758,-0.6100260000000001,-0.558426
2018-10-02T19:03:17.506088Z,0.47788800000000003,0.19681300000000002,0.540465
2018-10-02T19:03:17.706088Z,1.034362,-0.867604,1.024446
2018-10-02T19:03:17.896088Z,1.103146,-0.9448840000000001,-0.592476
2018-10-02T19:03:18.105088Z,-0.133191,0.019482,0.19396300000000002
2018-10-02T19:03:18.306088Z,-0.445907,-0.220496,1.111912
2018-10-02T19:03:18.507088Z,-0.45715900000000004,-1.401861,0.245941
2018-10-02T19:03:18.701088Z,-0.173733,-1.147694,-0.452166
2018-10-02T19:03:18.907088Z,-1.266408,0.403026,0.248202
2018-10-02T19:03:19.107088Z,-0.8325790000000001,-1.279566,1.311949
2018-10-02T19:03:19.307088Z,-1.242535,-1.4976040000000002,-0.073975
2018-10-02T19:03:19.507088Z,-0.630892,-0.677722,-0.364056
2018-10-02T19:03:19.708088Z,0.617692,0.118413,1.363593
2018-10-02T19:03:19.908088Z,-0.17119700000000002,-1.032398,0.373812
2018-10-02T19:03:20.107088Z,0.216783,-0.5980439999999999,-0.7493850000000001
2018-10-02T19:03:20.310088Z,0.54064,0.49621499999999996,0.537343
2018-10-02T19:03:20.556088Z,0.480353,-0.678189,0.515692
2018-10-02T19:03:20.707088Z,-0.42106800000000005,-0.307269,-1.049186
2018-10-02T19:03:20.908088Z,-0.663122,-0.40291,0.766346
2018-10-02T19:03:21.109088Z,0.134475,-1.105051,0.700281
2018-10-02T19:03:21.310088Z,0.422281,-1.4858040000000001,0.039547000000000006
2018-10-02T19:03:21.509088Z,0.486217,-0.263849,0.092205
2018-10-02T19:03:21.709088Z,1.524122,0.725129,0.579284
2018-10-02T19:03:21.909088Z,1.586758,-0.324778,0.10185599999999999
2018-10-02T19:03:22.112088Z,1.292989,-0.02253,-0.43625200000000003
2018-10-02T19:03:22.311088Z,0.905452,0.33007,0.09309500000000001
2018-10-02T19:03:22.500088Z,1.3115290000000002,0.366266,1.076671
2018-10-02T19:03:22.701088Z,1.724445,-0.919509,0.10372200000000001
2018-10-02T19:03:22.910088Z,1.6646330000000003,-0.088697,-0.166598
2018-10-02T19:03:23.111088Z,1.1304100000000001,0.013688999999999998,0.268839
2018-10-02T19:03:23.315088Z,1.614079,-0.253551,0.8511200000000001
2018-10-02T19:03:23.511088Z,2.268125,-0.85731,-0.615504
2018-10-02T19:03:23.712088Z,-0.163604,-0.524925,0.292571
2018-10-02T19:03:23.912088Z,-1.032449,0.252836,0.726742
2018-10-02T19:03:24.113088Z,-0.5405369999999999,-1.411353,0.46846099999999996
2018-10-02T19:03:24.302088Z,-0.769958,-0.24750500000000003,-0.595122
2018-10-02T19:03:24.512088Z,0.281328,0.244508,0.828045
2018-10-02T19:03:24.711088Z,0.320046,-0.58326,-0.199271
2018-10-02T19:03:24.911088Z,-0.328288,-0.600278,-0.5053979999999999
2018-10-02T19:03:25.112088Z,-1.384611,-0.546297,0.643251
2018-10-02T19:03:25.303088Z,-1.6204,-1.435658,0.365815
2018-10-02T19:03:25.512088Z,-0.728466,-1.355221,-0.153079
2018-10-02T19:03:25.718088Z,0.054209,-0.25414000000000003,0.132748
2018-10-02T19:03:25.905088Z,1.084732,0.569656,0.6694720000000001
2018-10-02T19:03:26.105088Z,1.298399,-0.605984,0.345269
2018-10-02T19:03:26.362088Z,0.917157,0.23860399999999998,-0.643614
2018-10-02T19:03:26.512088Z,0.147049,0.348601,-0.639538
2018-10-02T19:03:26.704088Z,0.852184,0.970893,0.43681099999999995
2018-10-02T19:03:26.904088Z,1.252946,-0.46880900000000003,0.706201
2018-10-02T19:03:27.104088Z,0.810393,-0.09285,-0.4865
2018-10-02T19:03:27.304088Z,-0.532605,0.567896,-0.261004
2018-10-02T19:03:27.504088Z,0.12140899999999999,-0.039245,1.0069569999999999
2018-10-02T19:03:27.715088Z,0.953842,-0.207301,-0.42790100000000003
2018-10-02T19:03:27.940088Z,0.9247280000000001,0.257734,-0.556577
2018-10-02T19:03:28.117088Z,0.596175,1.264246,-0.046792
2018-10-02T19:03:28.313088Z,1.811363,-0.783135,1.316707
2018-10-02T19:03:28.514088Z,1.122759,-0.449155,-0.037149
2018-10-02T19:03:28.714088Z,-0.138124,0.21724699999999997,-0.28144600000000003
2018-10-02T19:03:28.915088Z,0.005147,0.168919,0.946801
2018-10-02T19:03:29.115088Z,-0.088913,-1.27834,0.269984
2018-10-02T19:03:29.316088Z,0.253497,0.000144,-1.364706
2018-10-02T19:03:29.517088Z,0.005736,-0.20975700000000003,1.139987
2018-10-02T19:03:29.717088Z,-0.443809,-1.163359,1.281301
2018-10-02T19:03:29.916088Z,-0.26000100000000004,-1.268275,-0.40665500000000004
2018-10-02T19:03:30.149088Z,0.019965,-0.487486,-0.27439600000000003
2018-10-02T19:03:30.316088Z,0.858613,0.34996900000000003,0.685984
2018-10-02T19:03:30.517088Z,1.3269959999999998,-0.8284959999999999,0.963619
2018-10-02T19:03:30.717088Z,2.310063,-1.624633,0.229032
2018-10-02T19:03:30.917088Z,1.627141,-2.2775090000000002,0.8789040000000001
2018-10-02T19:03:31.117088Z,-0.433364,0.784103,0.113398
2018-10-02T19:03:31.318088Z,-0.460521,-1.0277889999999998,0.908375
2018-10-02T19:03:31.517088Z,0.14753,-1.1758030000000002,0.063496
2018-10-02T19:03:31.708088Z,-0.062965,-0.358527,-0.279696
2018-10-02T19:03:31.919088Z,-0.514735,0.372732,0.63307
2018-10-02T19:03:32.116088Z,0.641849,-1.606754,0.9611290000000001
2018-10-02T19:03:32.312088Z,-0.147392,-0.908493,-0.708643
2018-10-02T19:03:32.517088Z,0.14319,-0.12056900000000001,0.035519999999999996
2018-10-02T19:03:32.719088Z,-0.21253899999999998,0.078552,1.609126
2018-10-02T19:03:32.920088Z,1.067626,-1.998989,0.24824200000000002
2018-10-02T19:03:33.109088Z,0.08436,-0.601056,-0.7166939999999999
2018-10-02T19:03:33.318088Z,0.05097,0.11933900000000001,1.213619
2018-10-02T19:03:33.518088Z,0.288179,-0.867585,0.6479189999999999
2018-10-02T19:03:33.709088Z,0.07638500000000001,-0.923465,-0.664744
2018-10-02T19:03:33.920088Z,0.089766,0.057921,-0.40374299999999996
2018-10-02T19:03:34.119088Z,-0.275329,0.667934,1.135831
2018-10-02T19:03:34.322088Z,-0.38768,-1.251187,0.654809
2018-10-02T19:03:34.533088Z,-0.361271,-1.2166139999999999,-0.320965
2018-10-02T19:03:34.710088Z,-0.596458,-0.023974000000000002,-0.31256999999999996
2018-10-02T19:03:34.919088Z,-0.884748,-1.058352,1.629757
2018-10-02T19:03:35.121088Z,-1.099674,-1.4166459999999998,-0.170748
2018-10-02T19:03:35.311088Z,-0.48392399999999997,-1.166651,0.47375200000000006
2018-10-02T19:03:35.511088Z,1.2593299999999998,0.03897,-0.252473
2018-10-02T19:03:35.719088Z,0.758966,0.264837,0.787136
2018-10-02T19:03:35.921088Z,0.41572700000000007,-0.657315,0.604879
2018-10-02T19:03:36.120088Z,0.952041,0.184029,-0.595887
2018-10-02T19:03:36.321088Z,0.24001199999999998,0.23640100000000003,0.18342999999999998
2018-10-02T19:03:36.522088Z,1.064458,0.15653699999999998,0.46133
2018-10-02T19:03:36.722088Z,0.598152,-0.41514300000000004,-0.501258
2018-10-02T19:03:36.939088Z,0.28655,0.057541999999999996,-0.427699
2018-10-02T19:03:37.121088Z,-0.138268,0.087018,0.681696
2018-10-02T19:03:37.320088Z,-1.095473,-1.317517,0.419756
2018-10-02T19:03:37.513088Z,-0.576347,-0.864898,-0.24987600000000001
2018-10-02T19:03:37.723088Z,0.561409,0.092338,0.125557
2018-10-02T19:03:37.923088Z,1.038016,0.293508,0.6422979999999999
2018-10-02T19:03:38.177088Z,1.337898,-0.712342,-0.047503
2018-10-02T19:03:38.323088Z,0.367886,0.13480799999999998,-0.709882
2018-10-02T19:03:38.552088Z,0.352709,0.313765,1.159593
2018-10-02T19:03:38.752088Z,0.427741,-0.367255,0.067177
2018-10-02T19:03:38.962088Z,0.515063,-0.633446,-0.880798
2018-10-02T19:03:39.114088Z,1.344401,0.27423800000000004,0.40319299999999997
2018-10-02T19:03:39.351088Z,2.0493200000000003,-0.24714099999999997,1.494873
2018-10-02T19:03:39.515088Z,2.25811,-0.184804,-0.848627
2018-10-02T19:03:39.751088Z,1.5893,-0.173988,0.259201
2018-10-02T19:03:39.951088Z,0.15053,0.29582800000000004,0.529197
2018-10-02T19:03:40.181088Z,-0.549721,-0.191046,0.167318
2018-10-02T19:03:40.320088Z,-0.882776,-0.575447,-0.662723
2018-10-02T19:03:40.525088Z,-0.737675,-0.20650100000000002,-0.266706
2018-10-02T19:03:40.725088Z,0.992292,0.822032,0.696468
2018-10-02T19:03:40.924088Z,1.187922,-0.32097600000000004,0.511559
2018-10-02T19:03:41.115088Z,0.549663,-0.400352,-0.563662
2018-10-02T19:03:41.316088Z,-0.100969,0.20206400000000002,-0.04862
2018-10-02T19:03:41.526088Z,0.168598,0.325817,0.807909
2018-10-02T19:03:41.726088Z,0.290062,-0.761426,-7.7e-05
2018-10-02T19:03:41.930088Z,0.579303,-0.47433800000000004,-0.217138
2018-10-02T19:03:42.116088Z,0.961674,0.612952,-0.038488999999999995
2018-10-02T19:03:42.326088Z,2.157044,-1.527619,1.8570349999999998
2018-10-02T19:03:42.526088Z,2.235017,-2.3286919999999998,0.025483000000000002
2018-10-02T19:03:42.727088Z,1.089508,-1.401345,-0.17774700000000002
2018-10-02T19:03:42.929088Z,0.877782,-0.5522729999999999,0.723722
2018-10-02T19:03:43.127088Z,0.010631999999999999,-1.292619,1.243916
2018-10-02T19:03:43.327088Z,0.030338,-2.193598,0.275492
2018-10-02T19:03:43.531088Z,-0.45674799999999993,-0.661267,-0.567758
2018-10-02T19:03:43.719088Z,0.031157999999999998,0.054328999999999995,1.0190649999999999
2018-10-02T19:03:43.918088Z,0.489476,-1.563747,1.1984860000000002
2018-10-02T19:03:44.129088Z,0.7796529999999999,-1.232732,-0.710705
2018-10-02T19:03:44.327088Z,-0.10451300000000001,-0.444582,-0.192127
2018-10-02T19:03:44.519088Z,-0.086248,-0.159184,1.164542
2018-10-02T19:03:44.719088Z,-0.041156,-1.7087720000000002,0.676421
2018-10-02T19:03:44.941088Z,-0.254891,-1.1895,-0.424569
2018-10-02T19:03:45.129088Z,-1.219488,-0.368989,0.397613
2018-10-02T19:03:45.330088Z,-1.331294,-1.898638,1.775163
2018-10-02T19:03:45.529088Z,-0.910802,-1.42097,-0.405063
2018-10-02T19:03:45.729088Z,0.220444,-0.19556400000000002,-0.028895
2018-10-02T19:03:45.929088Z,1.197165,0.337572,0.578016
2018-10-02T19:03:46.128088Z,1.413881,0.15880899999999998,1.2950629999999999
2018-10-02T19:03:46.331088Z,0.48604899999999995,-1.318523,-0.909119
2018-10-02T19:03:46.520088Z,0.34726599999999996,0.185093,-0.878758
2018-10-02T19:03:46.731088Z,0.42393000000000003,1.138164,0.7767569999999999
2018-10-02T19:03:46.932088Z,0.705703,-0.344989,0.641155
2018-10-02T19:03:47.130088Z,0.34423899999999996,-0.8708110000000001,-0.355619
2018-10-02T19:03:47.332088Z,-0.10933699999999999,0.013064,-0.71634
2018-10-02T19:03:47.521088Z,-0.41972600000000004,0.522642,0.482709
2018-10-02T19:03:47.732088Z,-0.342105,-0.8553139999999999,0.619466
2018-10-02T19:03:47.931088Z,-0.21379,-1.193605,-0.083685
2018-10-02T19:03:48.132088Z,0.194203,-0.438975,0.179568
2018-10-02T19:03:48.332088Z,1.8495270000000001,-0.368636,0.713713
2018-10-02T19:03:48.532088Z,1.328854,-0.7461300000000001,0.534576
2018-10-02T19:03:48.731088Z,0.500378,-0.543952,0.226039
2018-10-02T19:03:48.931088Z,1.025507,-0.511301,0.783428
2018-10-02T19:03:49.133088Z,1.638331,-0.208877,-0.154097
2018-10-02T19:03:49.333088Z,1.3137450000000002,-0.276373,-0.7615069999999999
2018-10-02T19:03:49.523088Z,-0.49441,1.1522780000000001,0.596224
2018-10-02T19:03:49.732088Z,0.498643,1.102892,-0.159641
2018-10-02T19:03:49.973088Z,0.717298,0.439837,-0.436936
2018-10-02T19:03:50.132088Z,0.674022,0.116651,-0.067481
2018-10-02T19:03:50.334088Z,-0.188671,0.390869,0.245878
2018-10-02T19:03:50.534088Z,-0.050148000000000005,0.6337229999999999,-0.443172
2018-10-02T19:03:50.735088Z,0.106473,0.282531,-0.15404600000000002
2018-10-02T19:03:50.935088Z,0.47014799999999995,0.49134399999999995,-0.272965
2018-10-02T19:03:51.124088Z,0.957183,0.8608370000000001,-0.594507
2018-10-02T19:03:51.325088Z,0.8603770000000001,0.142626,-0.163935
2018-10-02T19:03:51.525088Z,0.768742,1.090164,-0.245008
2018-10-02T19:03:51.725088Z,-0.49298500000000006,0.19263,0.549086
2018-10-02T19:03:51.925088Z,-0.144183,-0.380465,-0.63015
2018-10-02T19:03:52.134088Z,-0.665512,-0.137897,0.176004
2018-10-02T19:03:52.338088Z,-0.019237,0.11533199999999999,0.719443
2018-10-02T19:03:52.536088Z,1.129449,-1.162181,0.524573
2018-10-02T19:03:52.736088Z,-0.24509099999999998,-0.290101,-1.397511
2018-10-02T19:03:52.937088Z,-1.051,0.016791999999999998,0.589849
2018-10-02T19:03:53.127088Z,-0.56006,-0.16051300000000002,0.300782
2018-10-02T19:03:53.337088Z,-1.3755540000000002,-0.9552620000000001,-0.265534
2018-10-02T19:03:53.527088Z,-0.680194,-0.785468,0.28226999999999997
2018-10-02T19:03:53.727088Z,0.274933,-0.126334,0.10993599999999999
2018-10-02T19:03:53.927088Z,1.422498,0.16658900000000001,0.562692
2018-10-02T19:03:54.127088Z,1.3093709999999998,0.30320199999999997,-0.513763
2018-10-02T19:03:54.356088Z,0.729866,0.68198,0.152488
2018-10-02T19:03:54.536088Z,-0.537211,-0.5482319999999999,0.5961270000000001
2018-10-02T19:03:54.728088Z,0.44128500000000004,-0.47134499999999996,-0.332888
2018-10-02T19:03:54.940088Z,0.7071390000000001,0.842741,-0.861869
2018-10-02T19:03:55.137088Z,1.01985,0.936428,0.959879
2018-10-02T19:03:55.339088Z,1.3544209999999999,-1.184491,0.456409
2018-10-02T19:03:55.553088Z,0.423155,-0.401538,-1.152369
2018-10-02T19:03:55.738088Z,1.474489,1.1785450000000002,0.48955200000000004
2018-10-02T19:03:55.938088Z,0.8757379999999999,-1.177477,1.159357
2018-10-02T19:03:56.139088Z,0.545087,-0.722017,-0.342172
2018-10-02T19:03:56.340088Z,-0.24655900000000003,0.509049,-0.531463
2018-10-02T19:03:56.538088Z,-0.619837,0.857709,0.800899
2018-10-02T19:03:56.739088Z,0.037981,-0.759093,0.497253
2018-10-02T19:03:56.939088Z,0.198999,-0.344066,-0.9413530000000001
2018-10-02T19:03:57.140088Z,0.23156100000000002,0.092651,-0.11863699999999999
2018-10-02T19:03:57.340088Z,0.9707879999999999,-0.010782,1.247087
2018-10-02T19:03:57.530088Z,0.723854,-1.332463,-0.10453499999999999
2018-10-02T19:03:57.752088Z,-0.144573,-0.46414700000000003,-0.462372
2018-10-02T19:03:57.940088Z,0.343684,0.40336500000000003,0.08905
2018-10-02T19:03:58.131088Z,1.8557669999999997,-0.94109,1.421375
2018-10-02T19:03:58.347088Z,2.3329009999999997,-1.730645,0.373754
2018-10-02T19:03:58.541088Z,1.105022,-1.820513,0.159678
2018-10-02T19:03:58.741088Z,0.250091,-1.44261,0.9573860000000001
2018-10-02T19:03:58.931088Z,-0.028092000000000002,-1.357367,-0.15623800000000002
2018-10-02T19:03:59.141088Z,0.055180999999999994,-0.9695090000000001,0.202271
2018-10-02T19:03:59.341088Z,0.146111,-0.151141,0.317275
2018-10-02T19:03:59.532088Z,0.034097,-1.410251,1.545323
2018-10-02T19:03:59.743088Z,0.990181,-1.198499,-0.668345
2018-10-02T19:03:59.943088Z,-0.845995,-0.367331,-0.65492
2018-10-02T19:04:00.144088Z,-1.30756,-1.158287,1.582386
2018-10-02T19:04:00.341088Z,-1.254745,-2.816052,0.590076
2018-10-02T19:04:00.542088Z,0.95342,-1.891262,0.24128000000000002
2018-10-02T19:04:00.743088Z,-0.411495,0.192381,0.202901
2018-10-02T19:04:00.942088Z,0.7980079999999999,0.156629,0.614284
2018-10-02T19:04:01.144088Z,0.229398,-0.165947,-0.615865
2018-10-02T19:04:01.342088Z,0.197776,0.393252,-0.58638
2018-10-02T19:04:01.533088Z,-0.024651,-0.044172,1.289125
2018-10-02T19:04:01.744088Z,1.124471,-0.722486,0.16678199999999999
2018-10-02T19:04:01.943088Z,0.6669390000000001,-0.29931599999999997,-0.921257
2018-10-02T19:04:02.152088Z,1.796448,0.857641,0.26053699999999996
2018-10-02T19:04:02.344088Z,1.5148139999999999,-1.495616,1.599569
2018-10-02T19:04:02.544088Z,1.433157,-1.727841,0.051459000000000005
2018-10-02T19:04:02.745088Z,0.638323,-1.076034,0.52166
2018-10-02T19:04:02.945088Z,0.03685,-0.632024,1.015328
2018-10-02T19:04:03.144088Z,-0.128778,-1.291723,0.006804000000000001
2018-10-02T19:04:03.360088Z,-0.01017,-0.009092,-0.706548
2018-10-02T19:04:03.535088Z,-0.529093,-0.262924,0.801074
2018-10-02T19:04:03.736088Z,-1.962334,-1.690909,1.1930459999999998
2018-10-02T19:04:03.935088Z,-2.283282,-1.61886,0.06696
2018-10-02T19:04:04.145088Z,-0.10015800000000001,-0.23562800000000003,-0.49313999999999997
2018-10-02T19:04:04.336088Z,0.731909,0.517868,0.36296300000000004
2018-10-02T19:04:04.546088Z,1.8835790000000001,0.474308,0.574171
2018-10-02T19:04:04.736088Z,-0.24024,-0.538029,-0.037269
2018-10-02T19:04:04.946088Z,-0.42308900000000005,-0.052351,-0.498978
2018-10-02T19:04:05.147088Z,-0.215335,-0.056701999999999995,1.261018
2018-10-02T19:04:05.346088Z,0.462363,-0.218666,-0.175821
2018-10-02T19:04:05.545088Z,-0.35139899999999996,-0.697353,-0.541169
2018-10-02T19:04:05.747088Z,-0.137889,-0.8108420000000001,0.46986999999999995
2018-10-02T19:04:05.937088Z,0.409826,-0.34092100000000003,0.480929
2018-10-02T19:04:06.146088Z,-0.254291,-0.6800609999999999,-0.23554
2018-10-02T19:04:06.347088Z,0.653938,0.17446199999999998,0.283543
2018-10-02T19:04:06.547088Z,1.136284,0.253298,0.42145200000000005
2018-10-02T19:04:06.748088Z,0.761718,-0.6114850000000001,-0.309633
2018-10-02T19:04:06.948088Z,0.891167,0.532779,-0.16650399999999999
2018-10-02T19:04:07.149088Z,1.350708,0.326546,0.984442
2018-10-02T19:04:07.348088Z,1.110783,-1.371947,0.074088
2018-10-02T19:04:07.548088Z,1.9709009999999998,0.390011,-0.71722
2018-10-02T19:04:07.749088Z,1.952652,0.11342200000000001,1.4725
2018-10-02T19:04:07.950088Z,2.719532,-1.916693,0.367053
2018-10-02T19:04:08.217088Z,1.199134,-0.683388,-0.617733
2018-10-02T19:04:08.374088Z,0.10395399999999999,0.109233,0.9503020000000001
2018-10-02T19:04:08.584088Z,-1.0537370000000001,-0.35279499999999997,0.347467
2018-10-02T19:04:08.774088Z,-0.5144029999999999,-0.794433,-0.587626
2018-10-02T19:04:08.940088Z,-1.206696,-0.739387,0.46438900000000005
2018-10-02T19:04:09.176088Z,-1.37894,0.328635,-0.040184
2018-10-02T19:04:09.403088Z,-0.415508,-0.737804,0.20676399999999998
2018-10-02T19:04:09.597088Z,-1.756046,-0.286812,-0.716554
2018-10-02T19:04:09.776088Z,0.784131,-0.540334,0.8929540000000001
2018-10-02T19:04:09.975088Z,0.941702,-0.574865,1.073025
2018-10-02T19:04:10.175088Z,1.7986240000000002,-0.694587,-0.382137
2018-10-02T19:04:10.408088Z,1.14561,0.251157,-0.21289899999999998
2018-10-02T19:04:10.580088Z,0.8445950000000001,0.305462,1.0890739999999999
2018-10-02T19:04:10.823088Z,0.653792,-0.761037,-0.563307
2018-10-02T19:04:10.976088Z,0.548417,0.269331,-0.641359
2018-10-02T19:04:11.178088Z,0.20388699999999998,0.559606,1.167778
2018-10-02T19:04:11.378088Z,-0.30499,-0.863808,-0.190621
2018-10-02T19:04:11.542088Z,0.570396,0.129027,-1.096869
2018-10-02T19:04:11.778088Z,0.463508,0.8357190000000001,0.91653
2018-10-02T19:04:11.984088Z,0.8085399999999999,-1.237075,0.71133
2018-10-02T19:04:12.158088Z,1.099276,-0.252892,-1.420856
2018-10-02T19:04:12.353088Z,-0.471896,0.355263,1.105193
2018-10-02T19:04:12.553088Z,-0.269034,0.786483,-0.201553
2018-10-02T19:04:12.753088Z,0.392326,-0.6333310000000001,-0.29885100000000003
2018-10-02T19:04:12.944088Z,0.32922199999999996,0.728642,-0.48386
2018-10-02T19:04:13.153088Z,-0.602688,0.093706,0.7065140000000001
2018-10-02T19:04:13.354088Z,1.023565,-0.075727,-0.77218
2018-10-02T19:04:13.554088Z,0.396884,0.465888,-0.011406999999999999
2018-10-02T19:04:13.753088Z,0.7708649999999999,0.037764,1.5744280000000002
2018-10-02T19:04:13.976088Z,-0.263277,-1.225342,-0.559968
2018-10-02T19:04:14.144088Z,0.30891199999999996,0.572315,-1.369268
2018-10-02T19:04:14.345088Z,-0.41317200000000004,1.1486180000000001,1.145576
2018-10-02T19:04:14.555088Z,0.7081689999999999,-0.7457590000000001,0.114692
2018-10-02T19:04:14.744088Z,-0.516504,0.146951,-1.294071
2018-10-02T19:04:14.955088Z,-0.396045,0.130754,1.448129
2018-10-02T19:04:15.155088Z,-0.007853,-0.265758,0.32801199999999997
2018-10-02T19:04:15.355088Z,0.47881,-0.532998,-0.951585
2018-10-02T19:04:15.555088Z,-0.187664,0.183962,0.517482
2018-10-02T19:04:15.757088Z,0.13944600000000001,-0.7544310000000001,1.104276
2018-10-02T19:04:15.974088Z,-0.302622,-0.667563,-1.171332
2018-10-02T19:04:16.157088Z,-0.554766,0.23263499999999998,0.278568
2018-10-02T19:04:16.358088Z,-0.7950470000000001,-0.24661999999999998,0.6238779999999999
2018-10-02T19:04:16.557088Z,-0.36821,-0.658606,-0.48957
2018-10-02T19:04:16.746088Z,-0.509854,0.22972199999999998,0.030920999999999997
2018-10-02T19:04:16.956088Z,1.155666,0.532863,1.604976
2018-10-02T19:04:17.147088Z,2.2516220000000002,-1.368156,-0.045622
2018-10-02T19:04:17.409088Z,1.185403,-0.423444,-1.053816
2018-10-02T19:04:17.547088Z,-0.436644,0.705145,-0.37240500000000004
2018-10-02T19:04:17.747088Z,-1.323612,-0.566812,0.9715739999999999
2018-10-02T19:04:17.948088Z,-0.916366,-1.489824,-0.309631
2018-10-02T19:04:18.158088Z,-0.588244,-0.595711,0.44732700000000003
2018-10-02T19:04:18.359088Z,0.917725,-0.9158139999999999,1.34355
2018-10-02T19:04:18.558088Z,0.9560930000000001,-0.613556,-0.39755999999999997
2018-10-02T19:04:18.758088Z,0.8718540000000001,-0.20456300000000002,0.236977
2018-10-02T19:04:18.958088Z,0.8249120000000001,0.037673000000000005,0.7699020000000001
2018-10-02T19:04:19.159088Z,1.20275,-1.036268,-0.009615
2018-10-02T19:04:19.359088Z,1.006332,-0.12381800000000001,-0.270433
2018-10-02T19:04:19.559088Z,0.7604479999999999,-0.08705800000000001,1.3344610000000001
2018-10-02T19:04:19.761088Z,1.66251,-0.639591,-0.049464
2018-10-02T19:04:19.959088Z,1.419912,-0.421888,-0.264314
2018-10-02T19:04:20.159088Z,1.238143,0.416933,0.838793
2018-10-02T19:04:20.359088Z,-0.06334,-0.450007,0.380265
2018-10-02T19:04:20.589088Z,1.804412,-0.712062,-0.230713
2018-10-02T19:04:20.750088Z,2.174686,0.313328,-0.342542
2018-10-02T19:04:20.960088Z,2.022325,-1.310117,1.800066
2018-10-02T19:04:21.160088Z,0.630193,-2.209364,0.8338979999999999
2018-10-02T19:04:21.360088Z,-0.24382600000000001,-0.8836149999999999,-0.690006
2018-10-02T19:04:21.561088Z,-1.113995,-0.837616,1.493592
2018-10-02T19:04:21.761088Z,-0.378858,-0.382148,-0.640936
2018-10-02T19:04:21.960088Z,-0.11328599999999998,-0.20981599999999997,0.548478
2018-10-02T19:04:22.161088Z,0.643646,-1.70308,1.155158
2018-10-02T19:04:22.351088Z,-0.330125,0.668384,-0.370546
2018-10-02T19:04:22.551088Z,-0.119861,-0.356325,-0.034629
2018-10-02T19:04:22.762088Z,0.818761,0.20681599999999997,-0.0877
2018-10-02T19:04:22.952088Z,-0.027837,0.8157260000000001,-0.648235
2018-10-02T19:04:23.162088Z,0.078577,0.9389940000000001,-0.647317
2018-10-02T19:04:23.362088Z,0.268329,0.724973,0.123674
2018-10-02T19:04:23.568088Z,0.7473810000000001,0.09247799999999999,0.922932
2018-10-02T19:04:23.762088Z,0.665557,-0.366739,-0.588504
2018-10-02T19:04:23.969088Z,-0.293621,0.329352,-0.805387
2018-10-02T19:04:24.153088Z,-0.7624609999999999,1.130768,0.252601
2018-10-02T19:04:24.353088Z,0.12125799999999999,-0.449771,0.476342
2018-10-02T19:04:24.553088Z,0.070384,-0.49177200000000004,-0.730536
2018-10-02T19:04:24.763088Z,0.132662,0.038876,0.11943599999999999
2018-10-02T19:04:24.963088Z,0.380535,-0.023283,1.354747
2018-10-02T19:04:25.164088Z,0.6037779999999999,-1.185884,-0.353146
2018-10-02T19:04:25.387088Z,1.0187899999999999,-0.579113,-0.072411
2018-10-02T19:04:25.563088Z,-0.11440499999999999,0.200199,0.794485
2018-10-02T19:04:25.764088Z,1.219465,-0.835521,1.140366
2018-10-02T19:04:25.965088Z,2.0832490000000004,-1.639805,-0.056028999999999995
2018-10-02T19:04:26.155088Z,0.633699,-0.85178,0.035697
2018-10-02T19:04:26.366088Z,-0.37506100000000003,0.305844,0.529489
2018-10-02T19:04:26.595088Z,-1.750704,-0.670574,0.7267239999999999
2018-10-02T19:04:26.760088Z,-1.1075059999999999,-0.44719899999999996,0.349589
2018-10-02T19:04:26.955088Z,-0.292145,-0.41140200000000005,0.30805
2018-10-02T19:04:27.164088Z,0.195354,-0.975261,0.946917
2018-10-02T19:04:27.365088Z,0.9090370000000001,-1.183115,-0.16955499999999998
2018-10-02T19:04:27.562088Z,0.707121,0.033533999999999994,-0.580587
2018-10-02T19:04:27.765088Z,-0.688179,0.7233189999999999,0.353614
2018-10-02T19:04:27.967088Z,-0.92285,-0.229129,0.37396599999999997
2018-10-02T19:04:28.167088Z,0.015992,-0.8267629999999999,-0.403041
2018-10-02T19:04:28.357088Z,0.647926,-0.118028,-0.420308
2018-10-02T19:04:28.557088Z,1.0639129999999999,-0.09088500000000001,1.02138
2018-10-02T19:04:28.766088Z,1.185283,-1.131163,0.35175100000000004
2018-10-02T19:04:28.965088Z,0.5599729999999999,-0.745487,-0.352613
2018-10-02T19:04:29.168088Z,-0.200863,0.518185,0.55953
2018-10-02T19:04:29.375088Z,-0.6390600000000001,-0.624513,0.281339
2018-10-02T19:04:29.568088Z,-1.583597,-0.049318,-0.968403
2018-10-02T19:04:29.767088Z,-2.432532,-0.007265000000000001,0.410419
2018-10-02T19:04:29.967088Z,-1.8542759999999998,-0.581533,0.13157
2018-10-02T19:04:30.168088Z,-1.90209,-0.123619,-1.336724
2018-10-02T19:04:30.368088Z,0.037953,0.342988,0.548325
2018-10-02T19:04:30.568088Z,-0.145394,-0.062389,1.415504
2018-10-02T19:04:30.769088Z,-0.591816,-1.526435,-0.145695
2018-10-02T19:04:30.969088Z,-0.192993,-0.189116,-0.467688
2018-10-02T19:04:31.168088Z,-1.0103209999999998,-0.076651,0.46949300000000005
2018-10-02T19:04:31.370088Z,0.912075,-0.974065,0.49630799999999997
2018-10-02T19:04:31.568088Z,0.505894,-0.908066,-0.46817200000000003
2018-10-02T19:04:31.769088Z,1.208692,-2.325057,0.083745
2018-10-02T19:04:31.970088Z,4.019829,0.14644400000000002,3.006238
2018-10-02T19:04:32.169088Z,1.161553,-2.08851,0.179856
2018-10-02T19:04:32.371088Z,0.244327,0.29806,-0.11099400000000001
2018-10-02T19:04:32.569088Z,0.828235,0.850714,0.247869
2018-10-02T19:04:32.771088Z,0.711056,0.257567,-0.24175700000000003
2018-10-02T19:04:32.970088Z,0.751365,0.29670799999999997,0.067633
2018-10-02T19:04:33.170088Z,0.40714,0.49693000000000004,-0.17943499999999998
2018-10-02T19:04:33.371088Z,0.9080030000000001,-0.013078999999999999,0.499409
2018-10-02T19:04:33.571088Z,1.440451,-0.050124,-0.104407
2018-10-02T19:04:33.771088Z,1.141872,0.8695069999999999,0.14673
2018-10-02T19:04:33.972088Z,-0.6667489999999999,-0.621829,0.177595
2018-10-02T19:04:34.173088Z,0.429054,-0.020102000000000002,-0.17068
2018-10-02T19:04:34.412088Z,2.09806,-0.10170599999999999,0.39789
2018-10-02T19:04:34.574088Z,-1.241109,-0.185384,-0.800949
2018-10-02T19:04:34.770088Z,0.042819,0.185522,-0.03934
2018-10-02T19:04:34.974088Z,-1.25216,0.717004,-0.47384499999999996
2018-10-02T19:04:35.171088Z,-0.187882,0.172495,0.267348
2018-10-02T19:04:35.371088Z,0.051692999999999996,0.046035,0.027708
2018-10-02T19:04:35.573088Z,-0.45157299999999995,0.142853,0.19223800000000002
2018-10-02T19:04:35.774088Z,0.068134,0.263612,0.11121700000000001
2018-10-02T19:04:35.964088Z,0.662525,0.593096,-0.401196
2018-10-02T19:04:36.173088Z,-0.009233,0.9789110000000001,-0.46319899999999997
2018-10-02T19:04:36.372088Z,0.190602,1.415529,0.11206300000000001
2018-10-02T19:04:36.575088Z,0.41834399999999994,0.28365999999999997,1.1144479999999999
2018-10-02T19:04:36.774088Z,1.131577,-1.398401,0.5958319999999999
2018-10-02T19:04:36.974088Z,1.33599,-0.852474,-0.6365970000000001
2018-10-02T19:04:37.176088Z,2.2412919999999996,0.508069,0.027638999999999997
2018-10-02T19:04:37.375088Z,-0.545301,0.056042999999999996,1.027152
2018-10-02T19:04:37.581088Z,0.49483599999999994,-0.896552,0.158952
2018-10-02T19:04:37.775088Z,0.9064690000000001,-0.59702,-0.201927
2018-10-02T19:04:37.975088Z,0.057012,0.013858,0.023171
2018-10-02T19:04:38.178088Z,-0.31268,0.505962,0.430418
2018-10-02T19:04:38.385088Z,0.470095,-0.864467,0.56243
2018-10-02T19:04:38.586088Z,0.13436700000000001,0.323048,-0.5935729999999999
2018-10-02T19:04:38.784088Z,-0.22607199999999997,0.08035199999999999,0.967966
2018-10-02T19:04:38.966088Z,0.754101,-1.050894,0.322423
2018-10-02T19:04:39.166088Z,1.491447,-0.9485049999999999,-0.23208800000000002
2018-10-02T19:04:39.376088Z,0.025572,0.10178200000000001,-0.521671
2018-10-02T19:04:39.589088Z,-0.63722,-0.25072300000000003,1.194086
2018-10-02T19:04:39.802088Z,-1.2152530000000001,-1.457561,-0.169775
2018-10-02T19:04:40.003088Z,-1.490507,-1.178597,-0.148128
2018-10-02T19:04:40.244088Z,-1.1087420000000001,-1.0037719999999999,0.26915100000000003
2018-10-02T19:04:40.403088Z,-0.24427100000000002,-0.195879,0.0053479999999999995
2018-10-02T19:04:40.603088Z,-0.190342,-0.5461229999999999,0.37453600000000004
2018-10-02T19:04:40.767088Z,-0.28860399999999997,-0.39791,0.062919
2018-10-02T19:04:41.002088Z,-0.6692060000000001,0.019162000000000002,-0.2902
2018-10-02T19:04:41.231088Z,0.6634899999999999,0.940672,-0.249825
2018-10-02T19:04:41.374088Z,1.304209,0.582385,0.887986
2018-10-02T19:04:41.577088Z,1.021433,-0.839082,0.289907
