Datetime,accx,accy,accz
2018-10-17T19:01:22.135184Z,0.41516099999999995,3.897156,-1.081299
2018-10-17T19:01:22.333184Z,-0.571472,0.009644,-1.101135
2018-10-17T19:01:22.539184Z,-0.162659,1.4765620000000002,0.280823
2018-10-17T19:01:22.735184Z,-0.5017699999999999,-0.585388,3.269836
2018-10-17T19:01:22.933184Z,0.49346899999999994,-1.45813,-1.394104
2018-10-17T19:01:23.132184Z,0.47766099999999995,-1.275269,-0.18243399999999999
2018-10-17T19:01:23.333184Z,0.145203,-0.038086,0.821533
2018-10-17T19:01:23.554184Z,-0.7269899999999999,-2.069214,1.391602
2018-10-17T19:01:23.740184Z,-1.289917,-1.713196,-0.079834
2018-10-17T19:01:23.935184Z,-1.291016,-0.990906,-0.154602
2018-10-17T19:01:24.135184Z,-0.872742,0.494141,-0.846924
2018-10-17T19:01:24.333184Z,-0.23101799999999997,-1.742432,3.688232
2018-10-17T19:01:24.532184Z,-0.034363,-1.052856,-0.9893190000000001
2018-10-17T19:01:24.733184Z,-0.033386,-0.172913,-0.171448
2018-10-17T19:01:24.933184Z,-0.65979,-0.5795899999999999,-0.283569
2018-10-17T19:01:25.134184Z,-0.8005979999999999,-1.553528,-0.731689
2018-10-17T19:01:25.333184Z,-0.9786379999999999,-0.9725950000000001,-0.23876999999999998
2018-10-17T19:01:25.551184Z,-0.513794,-0.018127,-0.5844729999999999
2018-10-17T19:01:25.732184Z,-0.109802,-0.123352,-0.125366
2018-10-17T19:01:26.138184Z,0.237854,-1.994629,0.476807
2018-10-17T19:01:26.334184Z,0.477051,-0.677856,-0.035095
2018-10-17T19:01:26.533184Z,0.970398,-0.9472659999999999,0.067078
2018-10-17T19:01:26.734184Z,0.967224,-0.272888,-0.025695999999999997
2018-10-17T19:01:26.935184Z,1.1516110000000002,0.28369099999999997,-0.378357
2018-10-17T19:01:27.147184Z,0.566467,0.46411099999999994,-0.376221
2018-10-17T19:01:27.332184Z,-0.243103,-1.089905,0.605835
2018-10-17T19:01:27.540184Z,-1.360474,-0.146484,-0.382385
2018-10-17T19:01:27.731184Z,-0.8504639999999999,0.831665,0.202148
2018-10-17T19:01:27.938184Z,-0.23529099999999997,-1.506592,3.2512209999999997
2018-10-17T19:01:28.219184Z,-0.166748,0.23864699999999997,-2.355713
2018-10-17T19:01:28.331184Z,0.009094,-0.341248,0.87616
2018-10-17T19:01:28.533184Z,-1.2995,-0.862793,-0.357483
2018-10-17T19:01:28.733184Z,-2.6176150000000002,-0.425842,-0.329346
2018-10-17T19:01:28.933184Z,-0.797607,-0.286072,0.349426
2018-10-17T19:01:29.133184Z,-0.408447,0.791687,1.487854
2018-10-17T19:01:29.332184Z,-0.602905,-0.665771,-0.750916
2018-10-17T19:01:29.533184Z,-1.152039,-0.918884,-1.018494
2018-10-17T19:01:29.733184Z,-0.777466,-0.31134,0.533081
2018-10-17T19:01:29.933184Z,-1.9689330000000003,-1.036438,-0.7067260000000001
2018-10-17T19:01:30.134184Z,-1.561951,-0.8925780000000001,0.26013200000000003
2018-10-17T19:01:30.335184Z,-1.619324,0.01239,0.448608
2018-10-17T19:01:30.534184Z,-1.559387,-0.8246459999999999,1.477295
2018-10-17T19:01:30.733184Z,-1.439575,-0.997498,-2.21875
2018-10-17T19:01:30.932184Z,-3.458618,0.16497799999999999,-0.712646
2018-10-17T19:01:31.134184Z,-2.9487919999999996,-0.42218,2.123169
2018-10-17T19:01:31.336184Z,-1.320862,1.6924439999999998,0.532349
2018-10-17T19:01:31.532184Z,-0.9620360000000001,0.47351099999999996,0.700928
2018-10-17T19:01:31.744184Z,-0.22998000000000002,-0.7303470000000001,0.387207
2018-10-17T19:01:31.932184Z,-0.786682,0.781067,-0.743225
2018-10-17T19:01:32.132184Z,-1.353149,1.565918,-0.170166
2018-10-17T19:01:32.334184Z,-1.076843,0.28833000000000003,-1.068481
2018-10-17T19:01:32.545184Z,-1.1634520000000002,0.86145,-0.8688959999999999
2018-10-17T19:01:32.739184Z,-1.2719120000000002,0.721497,-0.5559689999999999
2018-10-17T19:01:32.932184Z,-1.169922,0.863403,-0.493835
2018-10-17T19:01:33.133184Z,-0.333984,-0.8381959999999999,0.156921
2018-10-17T19:01:33.332184Z,-0.213867,0.34491,-1.9954830000000001
2018-10-17T19:01:33.530184Z,0.087158,0.631592,0.952881
2018-10-17T19:01:33.733184Z,-0.215698,1.066956,1.172852
2018-10-17T19:01:33.932184Z,-0.9375,-0.849915,0.9795530000000001
2018-10-17T19:01:34.141184Z,-1.046936,-1.214539,-0.945923
2018-10-17T19:01:34.325184Z,-0.816956,-0.178589,-0.71521
2018-10-17T19:01:34.592184Z,-0.227661,0.410645,-0.8929440000000001
2018-10-17T19:01:34.734184Z,0.182312,-0.637817,-0.892151
2018-10-17T19:01:34.932184Z,-0.071533,-0.6608890000000001,-0.271362
2018-10-17T19:01:35.129184Z,0.450745,-0.079224,-0.19781500000000002
2018-10-17T19:01:35.329184Z,0.232239,-0.814209,0.897217
2018-10-17T19:01:35.529184Z,-0.583801,-0.387268,0.716248
2018-10-17T19:01:35.732184Z,-0.044373,0.169678,0.150085
2018-10-17T19:01:35.932184Z,0.128479,0.24084499999999998,0.162659
2018-10-17T19:01:36.132184Z,0.392883,-0.443359,-0.110046
2018-10-17T19:01:36.332184Z,0.137878,-0.092529,-0.785034
2018-10-17T19:01:36.536184Z,0.353821,0.604431,0.131287
2018-10-17T19:01:36.734184Z,0.191895,-1.249939,2.225464
2018-10-17T19:01:36.932184Z,0.761292,-1.121826,0.15448
2018-10-17T19:01:37.136184Z,-0.012938999999999999,-0.118408,-0.357788
2018-10-17T19:01:37.342184Z,-0.52356,0.329773,0.517151
2018-10-17T19:01:37.533184Z,0.673584,-0.987,2.274048
2018-10-17T19:01:37.731184Z,0.736328,-0.073853,-0.732056
2018-10-17T19:01:37.939184Z,0.5974119999999999,0.531311,-0.674133
2018-10-17T19:01:38.133184Z,-0.048523000000000004,0.5393680000000001,-0.538269
2018-10-17T19:01:38.333184Z,-0.9191889999999999,-0.81897,-0.174622
2018-10-17T19:01:38.531184Z,-0.167236,-0.855835,-0.846252
2018-10-17T19:01:38.732184Z,-0.245117,-0.166931,-0.071716
2018-10-17T19:01:38.932184Z,-0.746887,-0.606628,0.138428
2018-10-17T19:01:39.132184Z,0.068176,-0.12561,-0.177063
2018-10-17T19:01:39.331184Z,0.33972199999999997,-0.329041,0.21160900000000002
2018-10-17T19:01:39.532184Z,-0.084961,-0.16650399999999999,0.476074
2018-10-17T19:01:39.732184Z,0.039062,-0.271545,-0.047057999999999996
2018-10-17T19:01:39.932184Z,0.048462,0.10180700000000001,0.038025
2018-10-17T19:01:40.133184Z,0.013489,0.29443400000000003,-0.721497
2018-10-17T19:01:40.332184Z,0.07605,-0.013244999999999998,-0.473206
2018-10-17T19:01:40.533184Z,0.221191,0.033569,-0.409912
2018-10-17T19:01:40.736184Z,-0.09411599999999999,0.192932,-0.297852
2018-10-17T19:01:40.934184Z,-0.0177,-0.263306,-0.026244999999999997
2018-10-17T19:01:41.132184Z,0.009644,0.21325700000000003,-0.08709700000000001
2018-10-17T19:01:41.333184Z,0.10553,-0.228638,0.091309
2018-10-17T19:01:41.536184Z,-0.071411,-0.099121,-0.166016
2018-10-17T19:01:41.729184Z,0.01001,-0.199097,0.127747
2018-10-17T19:01:41.932184Z,0.116943,0.175781,-0.099915
2018-10-17T19:01:42.153184Z,0.13372799999999999,0.15918,-0.11138900000000002
2018-10-17T19:01:42.332184Z,0.111206,0.005554,-0.098633
2018-10-17T19:01:42.538184Z,-0.014771000000000001,0.114258,-0.038513
2018-10-17T19:01:42.740184Z,0.489807,0.23999,-0.21148699999999998
2018-10-17T19:01:42.946184Z,-0.24096700000000001,0.648193,-0.166382
2018-10-17T19:01:43.141184Z,0.181885,0.5117189999999999,-0.5488890000000001
2018-10-17T19:01:43.341184Z,0.218689,0.6483760000000001,0.698242
2018-10-17T19:01:43.533184Z,0.730103,-1.534119,1.6831669999999999
2018-10-17T19:01:43.734184Z,1.633606,-0.398865,-0.29577600000000004
2018-10-17T19:01:43.933184Z,1.19165,0.703735,-0.012634000000000001
2018-10-17T19:01:44.144184Z,0.492554,-0.11065699999999999,0.029663
2018-10-17T19:01:44.340184Z,-1.227356,-1.38269,-0.228088
2018-10-17T19:01:44.737184Z,-0.391235,-0.45813000000000004,0.325256
2018-10-17T19:01:44.938184Z,-0.170593,0.326538,-0.352783
2018-10-17T19:01:45.139184Z,-0.017639,0.489929,-0.311768
2018-10-17T19:01:45.338184Z,-1.375732,-0.653809,0.322205
2018-10-17T19:01:45.532184Z,-0.517151,-1.352783,0.793335
2018-10-17T19:01:45.734184Z,0.35742199999999996,-0.41345200000000004,1.859314
2018-10-17T19:01:45.934184Z,-1.209717,-1.931702,2.275879
2018-10-17T19:01:46.133184Z,-0.339294,-1.52179,-0.265808
2018-10-17T19:01:46.330184Z,-0.9613649999999999,-0.151428,0.20483400000000002
2018-10-17T19:01:46.533184Z,-0.537537,-1.828064,3.0047610000000002
2018-10-17T19:01:46.743184Z,-0.820984,-0.950073,-0.541443
2018-10-17T19:01:46.951184Z,-1.161743,-0.647644,-0.25500500000000004
2018-10-17T19:01:47.129184Z,-1.453918,0.170105,-0.45080600000000004
2018-10-17T19:01:47.334184Z,-1.716064,-0.9814450000000001,0.352966
2018-10-17T19:01:47.533184Z,-2.120117,-0.76825,-0.566711
2018-10-17T19:01:47.734184Z,-1.72229,-0.674988,0.10516400000000001
2018-10-17T19:01:47.933184Z,-1.9464720000000002,0.49054,-1.3979489999999999
2018-10-17T19:01:48.133184Z,-0.835205,0.9343870000000001,0.8607790000000001
2018-10-17T19:01:48.332184Z,-0.407715,-0.836304,0.269165
2018-10-17T19:01:48.532184Z,0.498352,-1.089539,-0.988281
2018-10-17T19:01:48.733184Z,-0.21759,0.115356,0.9697879999999999
2018-10-17T19:01:48.932184Z,-0.150085,-1.890381,1.360535
2018-10-17T19:01:49.133184Z,-0.44592299999999996,-1.943054,-0.38763400000000003
2018-10-17T19:01:49.349184Z,-0.9701540000000001,-0.34368899999999997,0.125244
2018-10-17T19:01:49.532184Z,-0.789307,-0.191223,-0.07928500000000001
2018-10-17T19:01:49.735184Z,-0.761841,-0.512756,-0.713318
2018-10-17T19:01:49.923184Z,-0.98175,0.958435,-0.431824
2018-10-17T19:01:50.135184Z,-0.512939,1.011658,-0.404175
2018-10-17T19:01:50.337184Z,-0.69519,0.394165,0.84552
2018-10-17T19:01:50.534184Z,-0.433777,0.069763,-1.750061
2018-10-17T19:01:50.735184Z,0.440796,-0.975159,-0.103699
2018-10-17T19:01:50.933184Z,0.35388200000000003,-0.042725,0.718445
2018-10-17T19:01:51.132184Z,0.861084,-2.4855959999999997,2.861389
2018-10-17T19:01:51.341184Z,0.5075069999999999,-1.56189,0.567688
2018-10-17T19:01:51.529184Z,0.274109,-0.821838,-0.048157
2018-10-17T19:01:51.749184Z,0.180115,-0.391235,-0.033936
2018-10-17T19:01:51.930184Z,1.4797360000000002,-1.013306,-0.895386
2018-10-17T19:01:52.135184Z,1.374695,0.073792,-1.089783
2018-10-17T19:01:52.332184Z,0.891418,0.335754,0.09930399999999999
2018-10-17T19:01:52.533184Z,0.261902,2.159241,-0.131714
2018-10-17T19:01:52.733184Z,0.5374760000000001,0.579956,0.357056
2018-10-17T19:01:52.946184Z,0.031432999999999996,-0.755066,-0.879761
2018-10-17T19:01:53.134184Z,0.430359,-0.116577,-0.57196
2018-10-17T19:01:53.332184Z,0.393311,0.636108,-0.28015100000000004
2018-10-17T19:01:53.535184Z,0.15618900000000002,0.55896,-0.14068599999999998
2018-10-17T19:01:53.737184Z,1.167419,0.376892,-1.2653809999999999
2018-10-17T19:01:53.941184Z,0.751953,0.202148,-0.877136
2018-10-17T19:01:54.133184Z,0.5112300000000001,0.919861,-0.46777299999999994
2018-10-17T19:01:54.335184Z,0.067444,1.4069209999999999,-0.8922120000000001
2018-10-17T19:01:54.534184Z,0.028808999999999998,-0.5036010000000001,-0.148926
2018-10-17T19:01:54.740184Z,-0.381897,-0.770508,-0.22192399999999998
2018-10-17T19:01:54.932184Z,0.060242,-0.031372000000000004,0.19927999999999998
2018-10-17T19:01:55.210184Z,0.267029,0.34674099999999997,-0.213745
2018-10-17T19:01:55.332184Z,0.268005,0.11041300000000001,-0.291748
2018-10-17T19:01:55.542184Z,0.351562,0.9839479999999999,-1.9536740000000001
2018-10-17T19:01:55.740184Z,1.613708,1.085205,0.304688
2018-10-17T19:01:55.934184Z,1.335388,1.727295,-0.952515
2018-10-17T19:01:56.132184Z,-0.12365699999999999,0.863403,-1.0054319999999999
2018-10-17T19:01:56.332184Z,-3.2189330000000003,-0.8207399999999999,0.6544800000000001
2018-10-17T19:01:56.532184Z,-1.428711,-0.17938199999999999,0.27355999999999997
2018-10-17T19:01:56.734184Z,-0.74231,0.080933,-0.25238
2018-10-17T19:01:57.129184Z,-0.152344,0.37323,0.12548800000000002
2018-10-17T19:01:57.340184Z,-0.098694,0.239929,-0.057739
2018-10-17T19:01:57.539184Z,-0.8521120000000001,0.44647200000000004,-0.290955
2018-10-17T19:01:57.734184Z,-0.80896,0.305725,-0.305603
2018-10-17T19:01:57.956184Z,-0.674561,0.11523399999999999,0.297363
2018-10-17T19:01:58.144184Z,1.172302,-1.3997190000000002,2.008057
2018-10-17T19:01:58.343184Z,0.952393,-0.027587999999999998,-1.472839
2018-10-17T19:01:58.543184Z,0.453491,-0.013672,0.13378900000000002
2018-10-17T19:01:58.744184Z,-0.500366,-0.494812,-0.56189
2018-10-17T19:01:58.945184Z,-0.801147,-2.2379759999999997,0.547913
2018-10-17T19:01:59.165184Z,-0.432007,-1.170349,-1.150574
2018-10-17T19:01:59.344184Z,-0.29138200000000003,-0.518433,1.248657
2018-10-17T19:01:59.550184Z,-0.309265,-1.721191,1.0153809999999999
2018-10-17T19:01:59.742184Z,0.233154,-1.780457,-0.323547
2018-10-17T19:01:59.942184Z,0.299561,-1.041016,0.532654
2018-10-17T19:02:00.142184Z,-0.365662,-0.047668,-0.521362
2018-10-17T19:02:00.350184Z,-0.161438,-0.702209,-0.144653
2018-10-17T19:02:00.547184Z,-0.08770800000000001,-1.005981,0.399414
2018-10-17T19:02:00.750184Z,0.058105,-0.536682,0.173279
2018-10-17T19:02:00.949184Z,-0.455078,-0.391296,-0.69043
2018-10-17T19:02:01.143184Z,-1.195007,0.016663,-0.174438
2018-10-17T19:02:01.345184Z,-0.5310060000000001,0.29431199999999996,-0.280457
2018-10-17T19:02:01.546184Z,-0.502258,-0.18756099999999998,-0.00824
2018-10-17T19:02:01.743184Z,-0.41552700000000004,0.243835,-0.72113
2018-10-17T19:02:01.943184Z,-0.384216,0.264709,-0.362
2018-10-17T19:02:02.141184Z,-0.12262,-1.281616,2.1146849999999997
2018-10-17T19:02:02.344184Z,0.604309,-1.3327639999999998,0.593811
2018-10-17T19:02:02.549184Z,0.035767,-0.763977,-1.198364
2018-10-17T19:02:02.749184Z,0.2547,0.443604,0.514221
2018-10-17T19:02:02.943184Z,0.316223,-1.160095,0.660706
2018-10-17T19:02:03.133184Z,-0.797607,-1.6168209999999998,0.11456300000000001
2018-10-17T19:02:03.341184Z,-0.954834,-0.731201,-3.016418
2018-10-17T19:02:03.540184Z,-0.21783400000000003,-0.065125,-0.009583
2018-10-17T19:02:03.742184Z,-0.406494,-0.06951900000000001,0.431396
2018-10-17T19:02:03.942184Z,-0.021057,-1.225891,0.146484
2018-10-17T19:02:04.142184Z,1.273132,-1.082581,-0.34381100000000003
2018-10-17T19:02:04.389184Z,-0.008911,0.038269,-0.548035
2018-10-17T19:02:04.544184Z,0.327393,0.22784400000000002,-0.143127
2018-10-17T19:02:04.747184Z,0.652405,0.29931599999999997,-0.778381
2018-10-17T19:02:04.948184Z,2.369568,0.10571300000000002,0.268311
2018-10-17T19:02:05.143184Z,0.658997,0.125854,0.376465
2018-10-17T19:02:05.343184Z,0.780457,-0.593262,3.116272
2018-10-17T19:02:05.544184Z,0.14746099999999998,-0.341248,-0.103577
2018-10-17T19:02:05.745184Z,-0.427856,1.0535889999999999,-0.672485
2018-10-17T19:02:05.943184Z,-0.503174,1.729797,-0.496033
2018-10-17T19:02:06.151184Z,0.43426499999999996,-0.748596,1.5778809999999999
2018-10-17T19:02:06.345184Z,-0.08203099999999999,0.616577,-1.401672
2018-10-17T19:02:06.549184Z,0.12658699999999998,1.337891,0.8994139999999999
2018-10-17T19:02:06.750184Z,0.145386,-1.1256709999999999,4.567139
2018-10-17T19:02:06.943184Z,-0.43481400000000003,-0.514526,-0.774841
2018-10-17T19:02:07.143184Z,-1.086975,1.7728270000000002,-0.61615
2018-10-17T19:02:07.342184Z,1.0253299999999999,0.755798,-0.9555049999999999
2018-10-17T19:02:07.542184Z,-0.178101,-0.289978,-0.494385
2018-10-17T19:02:07.743184Z,0.394897,-0.168823,-0.241272
2018-10-17T19:02:07.956184Z,0.7390140000000001,0.596985,0.747192
2018-10-17T19:02:08.143184Z,0.11798099999999999,-0.011719,-0.9241940000000001
2018-10-17T19:02:08.344184Z,0.274658,-1.144348,0.795471
2018-10-17T19:02:08.543184Z,-0.090759,-0.345032,-0.215759
2018-10-17T19:02:08.744184Z,-0.272827,0.216858,-0.347473
2018-10-17T19:02:08.942184Z,-0.204224,0.367981,-0.8380129999999999
2018-10-17T19:02:09.142184Z,-0.203369,0.65625,-0.334717
2018-10-17T19:02:09.342184Z,0.099609,0.23034699999999997,-0.01825
2018-10-17T19:02:09.542184Z,0.192383,0.308411,-0.27887
2018-10-17T19:02:09.742184Z,0.396545,-0.007935,-0.529053
2018-10-17T19:02:09.942184Z,0.09185800000000001,-0.12646500000000002,0.09765599999999999
2018-10-17T19:02:10.141184Z,0.266296,0.31781,-0.16351300000000002
2018-10-17T19:02:10.349184Z,0.107727,0.311218,-0.092407
2018-10-17T19:02:10.539184Z,0.154419,0.190247,-0.140869
2018-10-17T19:02:10.742184Z,-0.257263,0.46295200000000003,-0.610413
2018-10-17T19:02:11.144184Z,-0.034424,0.48754899999999995,-0.664429
2018-10-17T19:02:11.351184Z,-0.345947,1.827087,-1.36261
2018-10-17T19:02:11.543184Z,-0.009705,1.003601,-0.330261
2018-10-17T19:02:11.743184Z,-0.40808099999999997,-0.354614,1.427429
2018-10-17T19:02:11.945184Z,-0.6426390000000001,-1.588013,-0.156616
2018-10-17T19:02:12.145184Z,-0.0068969999999999995,-0.717712,-0.358704
2018-10-17T19:02:12.366184Z,-0.437683,0.09967000000000001,0.0031739999999999997
2018-10-17T19:02:12.543184Z,0.25317399999999995,-1.341919,1.4801030000000002
2018-10-17T19:02:12.832184Z,0.1604,-0.560547,0.6286619999999999
2018-10-17T19:02:12.944184Z,-0.027405000000000002,-0.268494,0.165222
2018-10-17T19:02:13.150184Z,-0.13684100000000002,-0.181702,-0.19500699999999999
2018-10-17T19:02:13.350184Z,-0.065857,-0.041809,-0.194458
2018-10-17T19:02:13.549184Z,-0.20282,0.558228,-0.520813
2018-10-17T19:02:13.753184Z,0.043701,0.813232,-0.21209699999999998
2018-10-17T19:02:13.944184Z,0.107971,0.8911129999999999,-0.797424
2018-10-17T19:02:14.146184Z,0.372925,0.573242,-0.118958
2018-10-17T19:02:14.344184Z,-1.5420530000000001,-1.287109,-0.42498800000000003
2018-10-17T19:02:14.542184Z,-0.536377,-0.485901,-1.037903
2018-10-17T19:02:14.745184Z,-0.307312,0.406921,-0.11731
2018-10-17T19:02:14.944184Z,0.364502,-2.1234740000000003,3.432922
2018-10-17T19:02:15.147184Z,-0.586548,-0.50531,-2.566895
2018-10-17T19:02:15.344184Z,0.23669400000000002,-1.192871,0.037415
2018-10-17T19:02:15.543184Z,0.033569,-1.726868,3.013977
2018-10-17T19:02:15.744184Z,-0.539429,-1.889893,1.2352290000000001
2018-10-17T19:02:15.943184Z,-0.7768550000000001,-0.603394,0.012329000000000001
2018-10-17T19:02:16.143184Z,-0.975281,-0.13147,0.48919700000000005
2018-10-17T19:02:16.351184Z,-0.269409,-1.630371,1.380554
2018-10-17T19:02:16.572184Z,0.153076,-1.092041,-0.364197
2018-10-17T19:02:16.749184Z,-0.616699,-0.506042,0.105774
2018-10-17T19:02:16.949184Z,-1.565186,-0.611328,0.5413819999999999
2018-10-17T19:02:17.149184Z,-2.802979,-2.058472,-0.134521
2018-10-17T19:02:17.347184Z,-2.8114619999999997,-0.325317,0.0053100000000000005
2018-10-17T19:02:17.543184Z,-0.950867,-0.248718,-0.599121
2018-10-17T19:02:17.743184Z,-0.513733,1.016785,-2.779175
2018-10-17T19:02:17.959184Z,0.137329,-0.427917,-0.7851560000000001
2018-10-17T19:02:18.143184Z,-1.1083370000000001,0.24585,0.669128
2018-10-17T19:02:18.344184Z,-1.108643,-0.823364,0.41363500000000003
2018-10-17T19:02:18.641184Z,-0.8681030000000001,-0.9001459999999999,-0.269531
2018-10-17T19:02:18.743184Z,-1.032227,-0.10528599999999999,-0.25177
2018-10-17T19:02:18.951184Z,-0.855225,-0.25793499999999997,0.127686
2018-10-17T19:02:19.154184Z,-0.309631,-0.555542,-0.639343
2018-10-17T19:02:19.348184Z,0.278564,0.121643,-0.696838
2018-10-17T19:02:19.556184Z,0.59845,0.289978,-0.346375
2018-10-17T19:02:19.744184Z,0.28363,0.994751,-0.09979199999999999
2018-10-17T19:02:19.949184Z,-0.397949,-1.089844,0.280273
2018-10-17T19:02:20.142184Z,-0.364746,-1.370544,-1.435608
2018-10-17T19:02:20.343184Z,-0.493591,1.1159059999999998,2.5001830000000003
2018-10-17T19:02:20.544184Z,0.290527,-0.066345,-0.186646
2018-10-17T19:02:20.734184Z,0.500305,-1.496887,0.800659
2018-10-17T19:02:20.946184Z,0.576965,-0.279602,-0.384033
2018-10-17T19:02:21.149184Z,0.54657,0.3302,0.33197
2018-10-17T19:02:21.342184Z,-0.002441,-0.466919,-0.183167
2018-10-17T19:02:21.542184Z,0.8227540000000001,-0.828918,0.422729
2018-10-17T19:02:21.750184Z,0.290833,-0.29425,-0.532837
2018-10-17T19:02:21.943184Z,-0.138184,0.016235,0.008789
2018-10-17T19:02:22.143184Z,-0.47210699999999994,1.0928959999999999,-0.46795699999999996
2018-10-17T19:02:22.344184Z,0.28930700000000004,0.637329,0.557068
2018-10-17T19:02:22.542184Z,1.193542,0.5233760000000001,-1.1100459999999999
2018-10-17T19:02:22.743184Z,0.38751199999999997,1.758484,-0.243103
2018-10-17T19:02:22.943184Z,0.336609,1.211853,-0.564819
2018-10-17T19:02:23.143184Z,0.202515,-0.5422359999999999,-1.875366
2018-10-17T19:02:23.350184Z,-0.141907,-0.065491,-1.167114
2018-10-17T19:02:23.549184Z,0.175781,-0.229492,0.499146
2018-10-17T19:02:23.757184Z,0.23590100000000003,0.056885000000000005,-0.230408
2018-10-17T19:02:23.944184Z,0.068481,-0.027710000000000002,-1.4689940000000001
2018-10-17T19:02:24.142184Z,0.20550500000000002,0.15325899999999998,-0.47009300000000004
2018-10-17T19:02:24.373184Z,-0.030273,0.30896,-0.189331
2018-10-17T19:02:24.547184Z,-0.285156,0.607727,-0.46899399999999997
2018-10-17T19:02:24.748184Z,-0.720947,-1.049927,-0.541687
2018-10-17T19:02:24.948184Z,-0.908325,0.44238299999999997,-0.138062
2018-10-17T19:02:25.142184Z,-0.30956999999999996,0.328125,0.38385
2018-10-17T19:02:25.549184Z,-0.670898,-0.617432,1.296692
2018-10-17T19:02:25.741184Z,0.302307,-1.099915,0.6618649999999999
2018-10-17T19:02:25.941184Z,-0.104431,-0.336487,-0.678894
2018-10-17T19:02:26.143184Z,-0.024597,0.484558,-0.071167
2018-10-17T19:02:26.346184Z,0.134644,-0.954834,0.546143
2018-10-17T19:02:26.540184Z,-1.154907,-1.083923,-0.17687999999999998
2018-10-17T19:02:26.744184Z,-0.97583,-0.206787,-0.6965939999999999
2018-10-17T19:02:26.965184Z,-0.751709,0.018982,-0.33056599999999997
2018-10-17T19:02:27.141184Z,-0.772278,0.249023,-1.4320680000000001
2018-10-17T19:02:27.352184Z,0.179504,-0.698425,-0.8461299999999999
2018-10-17T19:02:27.548184Z,0.014953999999999999,-0.6094970000000001,0.114319
2018-10-17T19:02:27.743184Z,-0.37439,0.523621,-0.254333
2018-10-17T19:02:27.987184Z,0.571045,0.465942,0.105347
2018-10-17T19:02:28.147184Z,-1.1010739999999999,-0.7615970000000001,-0.257385
2018-10-17T19:02:28.347184Z,-0.579834,-1.186768,0.200989
2018-10-17T19:02:28.544184Z,-0.823792,-0.246521,-0.369629
2018-10-17T19:02:28.746184Z,-0.368958,-0.48877,-0.49499499999999996
2018-10-17T19:02:28.943184Z,-0.279846,0.384399,-2.888489
2018-10-17T19:02:29.149184Z,0.28717,-0.30456500000000003,-1.790466
2018-10-17T19:02:29.349184Z,-0.074585,0.7478640000000001,-0.203308
2018-10-17T19:02:29.544184Z,-0.23999,-0.20672600000000002,-0.631775
2018-10-17T19:02:29.743184Z,-0.8486940000000001,-1.35022,-1.369385
2018-10-17T19:02:29.943184Z,-0.679077,-0.568665,-1.331421
2018-10-17T19:02:30.142184Z,-0.6468510000000001,-0.029053,-0.432068
2018-10-17T19:02:30.342184Z,-0.354797,-0.43456999999999996,-0.449463
2018-10-17T19:02:30.542184Z,0.144226,-0.8355100000000001,-0.969543
2018-10-17T19:02:30.778184Z,0.242004,-0.43792700000000007,-1.215149
2018-10-17T19:02:30.943184Z,0.38147,0.031006,0.523254
2018-10-17T19:02:31.145184Z,0.24682600000000002,0.503113,-0.057861
2018-10-17T19:02:31.354184Z,-0.509521,-0.975159,0.190308
2018-10-17T19:02:31.542184Z,-0.44988999999999996,-0.604126,-0.833435
2018-10-17T19:02:31.741184Z,-0.20929,-0.115906,-0.343445
2018-10-17T19:02:31.943184Z,-0.431335,-0.14135699999999998,0.664978
2018-10-17T19:02:32.142184Z,-0.68042,-1.076355,-1.151733
2018-10-17T19:02:32.343184Z,1.530151,-2.408203,-0.7434689999999999
2018-10-17T19:02:32.543184Z,-2.011963,1.870728,0.854126
2018-10-17T19:02:32.736184Z,-1.385681,-1.7332150000000002,-1.233093
2018-10-17T19:02:32.961184Z,-2.3626709999999997,-1.044067,-1.211853
2018-10-17T19:02:33.148184Z,-0.5488890000000001,-1.6601560000000002,-0.12451199999999998
2018-10-17T19:02:33.382184Z,-1.775146,-1.119995,0.493958
2018-10-17T19:02:33.553184Z,-1.511536,-0.543884,-0.264648
2018-10-17T19:02:33.748184Z,-1.289307,0.160156,-0.43493699999999996
2018-10-17T19:02:33.943184Z,-0.942688,0.112854,-0.319458
2018-10-17T19:02:34.142184Z,0.10583499999999998,-1.024658,0.441284
2018-10-17T19:02:34.343184Z,0.37988299999999997,-0.635803,-0.959717
2018-10-17T19:02:34.547184Z,0.06012000000000001,-0.49883999999999995,-0.05011
2018-10-17T19:02:34.748184Z,-0.096252,-0.224915,0.691772
2018-10-17T19:02:34.941184Z,-0.386719,-2.794495,3.1696779999999998
2018-10-17T19:02:35.138184Z,-1.027588,-1.104065,-1.4769290000000002
2018-10-17T19:02:35.350184Z,-0.9637450000000001,-0.5431520000000001,-0.13409400000000002
2018-10-17T19:02:35.544184Z,-0.987366,0.014893,0.22021500000000002
2018-10-17T19:02:35.758184Z,-0.923523,-2.1098630000000003,2.06897
2018-10-17T19:02:35.943184Z,-0.689453,-0.824707,-0.92511
2018-10-17T19:02:36.148184Z,-0.901001,-0.710327,0.598877
2018-10-17T19:02:36.349184Z,-1.211487,-0.666931,-0.9176030000000001
2018-10-17T19:02:36.550184Z,-1.713989,-0.123047,-0.105896
2018-10-17T19:02:36.752184Z,-1.7030029999999998,0.805481,-0.410645
2018-10-17T19:02:36.943184Z,-1.5390620000000002,0.245544,-0.06323200000000001
2018-10-17T19:02:37.145184Z,-0.8598020000000001,-0.07019,-2.1864619999999997
2018-10-17T19:02:37.343184Z,0.373657,0.168762,-0.75946
2018-10-17T19:02:37.543184Z,-0.498779,0.7554930000000001,-0.220886
2018-10-17T19:02:37.743184Z,-1.2269290000000002,-1.013428,0.344788
2018-10-17T19:02:37.992184Z,-1.8506470000000002,-1.200134,1.651245
2018-10-17T19:02:38.342184Z,-1.112183,-0.26886,-0.236145
2018-10-17T19:02:38.545184Z,-1.1538700000000002,0.150635,0.598083
2018-10-17T19:02:38.743184Z,-0.743408,-1.2685549999999999,0.670654
2018-10-17T19:02:38.944184Z,0.25793499999999997,-1.626099,-0.05072
2018-10-17T19:02:39.149184Z,-0.471558,-0.405273,0.431885
2018-10-17T19:02:39.344184Z,-0.591003,-0.065125,0.088867
2018-10-17T19:02:39.552184Z,-0.526428,-0.255676,0.34881599999999996
2018-10-17T19:02:39.751184Z,-1.390259,-0.061707000000000005,-0.173218
2018-10-17T19:02:39.943184Z,-2.881958,-0.6838380000000001,-0.8087770000000001
2018-10-17T19:02:40.145184Z,-1.548401,-1.947021,0.41113299999999997
2018-10-17T19:02:40.344184Z,-2.647888,0.8720700000000001,0.031311
2018-10-17T19:02:40.552184Z,-1.800171,1.160461,-1.340698
2018-10-17T19:02:40.743184Z,-0.16534400000000002,0.6191409999999999,1.021362
2018-10-17T19:02:40.943184Z,-0.592773,-0.460571,-0.261108
2018-10-17T19:02:41.143184Z,-0.778748,1.046265,-0.8526
2018-10-17T19:02:41.342184Z,-2.66748,2.074646,-1.29364
2018-10-17T19:02:41.546184Z,-2.049927,0.576416,2.020813
2018-10-17T19:02:41.747184Z,-0.512329,2.10553,-0.386108
2018-10-17T19:02:41.943184Z,-2.1028439999999997,-0.345459,1.554138
2018-10-17T19:02:42.142184Z,-1.9304810000000001,0.9103389999999999,-1.961243
2018-10-17T19:02:42.345184Z,-0.43512,2.05188,0.216858
2018-10-17T19:02:42.545184Z,-1.285583,-0.546326,0.513916
2018-10-17T19:02:42.743184Z,-2.015015,0.804504,-1.109924
2018-10-17T19:02:42.943184Z,-1.240479,1.114136,-0.632446
2018-10-17T19:02:43.141184Z,-0.371338,1.087708,-0.236938
2018-10-17T19:02:43.346184Z,-0.616211,1.389343,-1.2141110000000002
2018-10-17T19:02:43.550184Z,-0.9709469999999999,0.8171390000000001,-1.0983889999999998
2018-10-17T19:02:43.750184Z,-1.135254,0.683533,-1.871277
2018-10-17T19:02:43.943184Z,-0.055541999999999994,3.5490720000000002,1.353516
2018-10-17T19:02:44.143184Z,0.076477,1.47583,-0.07281499999999999
2018-10-17T19:02:44.342184Z,0.659241,-0.345093,-2.546509
2018-10-17T19:02:44.543184Z,-0.8813479999999999,0.7151489999999999,1.121582
2018-10-17T19:02:44.743184Z,-2.017517,-1.230591,0.762634
2018-10-17T19:02:44.942184Z,-0.682312,0.082275,-0.6921390000000001
2018-10-17T19:02:45.142184Z,-0.7983399999999999,0.585938,-0.482605
2018-10-17T19:02:45.353184Z,-0.58905,0.08367899999999999,-0.121155
2018-10-17T19:02:45.536184Z,-0.637512,-0.150085,-1.617004
2018-10-17T19:02:45.749184Z,-0.308838,-0.052979,-0.49353
2018-10-17T19:02:45.943184Z,-0.901123,-0.303284,0.489624
2018-10-17T19:02:46.150184Z,-0.671021,0.351624,0.15802
2018-10-17T19:02:46.347184Z,-0.35907,0.404724,-0.024536000000000002
2018-10-17T19:02:46.544184Z,-0.78833,0.267822,-0.30719
2018-10-17T19:02:46.747184Z,-3.010559,0.336365,-1.1096190000000001
2018-10-17T19:02:46.943184Z,-1.368774,0.699646,0.49072299999999996
2018-10-17T19:02:47.144184Z,-0.170837,-0.732483,2.720581
2018-10-17T19:02:47.343184Z,0.001709,-0.401855,-0.93396
2018-10-17T19:02:47.543184Z,0.17541500000000002,0.025146,0.905884
2018-10-17T19:02:47.745184Z,-0.788574,0.447754,0.122375
2018-10-17T19:02:47.957184Z,-0.766785,-0.8682860000000001,-0.8267209999999999
2018-10-17T19:02:48.143184Z,-0.7973020000000001,0.567566,-0.6446529999999999
2018-10-17T19:02:48.343184Z,-0.6994020000000001,1.7231450000000001,-0.5706180000000001
2018-10-17T19:02:48.541184Z,-0.093689,0.448669,-1.188416
2018-10-17T19:02:48.742184Z,-0.796692,-0.795166,-1.384949
2018-10-17T19:02:48.941184Z,-0.699646,0.463135,-0.81311
2018-10-17T19:02:49.143184Z,-1.4729,-0.63446,1.129456
2018-10-17T19:02:49.341184Z,-0.9594729999999999,-0.585022,0.43011499999999997
2018-10-17T19:02:49.543184Z,-0.8444209999999999,0.32611100000000004,-0.065674
2018-10-17T19:02:49.749184Z,-0.20965599999999998,-0.25854499999999997,-0.0578
2018-10-17T19:02:49.947184Z,0.09258999999999999,-0.748047,-0.8910520000000001
2018-10-17T19:02:50.149184Z,-0.074524,0.017639,0.427368
2018-10-17T19:02:50.547184Z,0.330627,0.36261,-0.565491
2018-10-17T19:02:50.743184Z,0.482788,-0.661194,0.8813479999999999
2018-10-17T19:02:50.944184Z,-1.429382,-1.08374,2.292297
2018-10-17T19:02:51.143184Z,-0.452759,0.756897,0.283936
2018-10-17T19:02:51.343184Z,1.106873,0.018372,0.607178
2018-10-17T19:02:51.542184Z,0.257629,-1.38739,0.30749499999999996
2018-10-17T19:02:51.742184Z,0.039245999999999996,-0.190369,-0.268921
2018-10-17T19:02:51.970184Z,0.704224,0.360229,-0.263916
2018-10-17T19:02:52.144184Z,-0.544556,-1.179749,0.43884300000000004
2018-10-17T19:02:52.342184Z,0.21331799999999998,-1.1588129999999999,-1.0441280000000002
2018-10-17T19:02:52.542184Z,0.145325,-0.049132999999999996,-0.200562
2018-10-17T19:02:52.751184Z,-0.30395500000000003,0.217102,0.172241
2018-10-17T19:02:52.956184Z,0.172424,0.45019499999999996,-0.804077
2018-10-17T19:02:53.151184Z,0.757019,0.693481,-1.432312
2018-10-17T19:02:53.357184Z,0.444092,1.0422360000000002,-1.529907
2018-10-17T19:02:53.551184Z,0.827332,1.420776,-0.290527
2018-10-17T19:02:53.744184Z,-0.183777,1.13562,-0.266235
2018-10-17T19:02:53.947184Z,-0.9329219999999999,-1.246277,0.162903
2018-10-17T19:02:54.143184Z,-0.1604,-0.102173,-0.860291
2018-10-17T19:02:54.340184Z,0.059691999999999995,1.0120850000000001,0.230225
2018-10-17T19:02:54.540184Z,0.5690310000000001,0.013123,0.051086
2018-10-17T19:02:54.750184Z,1.067627,0.686951,-1.969727
2018-10-17T19:02:54.942184Z,0.663696,1.3815309999999998,-0.570801
2018-10-17T19:02:55.142184Z,-0.022705,0.040283,0.440125
2018-10-17T19:02:55.342184Z,0.046448,-0.365723,-0.176697
2018-10-17T19:02:55.544184Z,0.542175,0.279663,-0.6656489999999999
2018-10-17T19:02:55.742184Z,1.534607,0.095093,-1.114319
2018-10-17T19:02:55.942184Z,0.43408199999999997,-0.666077,0.032043
2018-10-17T19:02:56.142184Z,0.8827510000000001,0.9489139999999999,0.177002
2018-10-17T19:02:56.342184Z,-0.681824,-0.261658,0.6206050000000001
2018-10-17T19:02:56.545184Z,-0.018738,-0.743408,0.011597
2018-10-17T19:02:56.744184Z,0.255554,-0.8127439999999999,0.678528
2018-10-17T19:02:56.943184Z,0.153076,0.557495,-0.092651
2018-10-17T19:02:57.144184Z,0.788147,0.270325,-1.030334
2018-10-17T19:02:57.350184Z,0.9182739999999999,0.08569299999999999,0.44610600000000006
2018-10-17T19:02:57.551184Z,0.5562739999999999,1.630737,-0.13739
2018-10-17T19:02:57.753184Z,0.807129,1.621948,0.137207
2018-10-17T19:02:57.972184Z,0.09564199999999999,-0.788147,-1.480896
2018-10-17T19:02:58.143184Z,-0.686829,1.3504639999999999,-1.439514
2018-10-17T19:02:58.342184Z,1.59552,0.71637,0.420654
2018-10-17T19:02:58.543184Z,2.006836,-0.7537229999999999,-1.8054810000000001
2018-10-17T19:02:58.743184Z,0.725037,0.570801,-1.9129639999999999
2018-10-17T19:02:59.046184Z,0.754456,0.801392,-0.069885
2018-10-17T19:02:59.139184Z,0.727356,0.065674,-0.017456
2018-10-17T19:02:59.364184Z,0.636841,-0.457458,0.212585
2018-10-17T19:02:59.544184Z,-0.07739299999999999,1.764282,-0.90448
2018-10-17T19:02:59.742184Z,0.251343,1.9882810000000002,-0.815186
2018-10-17T19:02:59.933184Z,0.38623,0.40380900000000003,0.567322
2018-10-17T19:03:00.144184Z,0.981079,-0.188721,-0.9528200000000001
2018-10-17T19:03:00.343184Z,0.606079,1.888,0.091003
2018-10-17T19:03:00.544184Z,0.049072000000000005,1.241882,0.43859899999999996
2018-10-17T19:03:00.743184Z,-0.42627,-1.0540770000000002,-0.694153
2018-10-17T19:03:00.944184Z,0.204895,-0.039856,-1.56073
2018-10-17T19:03:01.150184Z,0.053101,0.987,-0.209229
2018-10-17T19:03:01.348184Z,0.19104000000000002,0.086243,0.216248
2018-10-17T19:03:01.550184Z,1.081299,-0.544006,-1.509766
2018-10-17T19:03:01.748184Z,1.4647219999999999,-0.363831,-0.267761
2018-10-17T19:03:01.943184Z,1.399292,1.560791,0.021729
2018-10-17T19:03:02.142184Z,1.6096190000000001,1.220337,1.0307620000000002
2018-10-17T19:03:02.346184Z,0.022765999999999998,0.294128,-0.050171
2018-10-17T19:03:02.543184Z,-0.29248,0.115173,-0.682922
2018-10-17T19:03:02.742184Z,0.48193400000000003,0.28875700000000004,-0.21423299999999998
2018-10-17T19:03:02.942184Z,0.23095700000000002,1.047424,-0.428467
2018-10-17T19:03:03.145184Z,-0.100647,1.8095700000000001,-0.881287
2018-10-17T19:03:03.342184Z,-0.332031,2.221924,-0.389648
2018-10-17T19:03:03.574184Z,0.738708,-0.11480699999999999,1.489746
2018-10-17T19:03:03.746184Z,0.870361,0.063538,-0.7750239999999999
2018-10-17T19:03:03.978184Z,0.11322,1.3760379999999999,-0.8731690000000001
2018-10-17T19:03:04.150184Z,0.152283,1.294617,-0.415894
2018-10-17T19:03:04.551184Z,0.299194,-0.09668,-0.307739
2018-10-17T19:03:04.751184Z,0.314697,0.534424,-0.9196780000000001
2018-10-17T19:03:04.946184Z,-0.232422,2.0032349999999997,-0.5941770000000001
2018-10-17T19:03:05.142184Z,-0.394165,1.53949,-0.977295
2018-10-17T19:03:05.344184Z,0.528809,-0.146545,-0.389404
2018-10-17T19:03:05.543184Z,-0.4552,1.995911,-0.859009
2018-10-17T19:03:05.742184Z,-0.261108,0.81366,-0.174561
2018-10-17T19:03:05.945184Z,-0.031738,-0.8773799999999999,0.143433
2018-10-17T19:03:06.254184Z,0.134399,0.210571,-1.085083
2018-10-17T19:03:06.339184Z,-0.09643600000000001,1.341492,-1.1165770000000002
2018-10-17T19:03:06.556184Z,-0.216675,0.6663819999999999,-1.561707
2018-10-17T19:03:06.747184Z,1.074768,0.45007299999999995,0.269775
2018-10-17T19:03:06.943184Z,0.478943,1.712646,-0.37206999999999996
2018-10-17T19:03:07.143184Z,-0.45617700000000005,2.265686,0.336609
2018-10-17T19:03:07.346184Z,-0.802979,-0.898071,-0.40063499999999996
2018-10-17T19:03:07.548184Z,-0.292603,0.37738,-0.5761109999999999
2018-10-17T19:03:07.746184Z,-0.42694099999999996,1.553284,-0.19280999999999998
2018-10-17T19:03:07.947184Z,0.07959,-0.594543,2.317932
2018-10-17T19:03:08.143184Z,0.492493,-0.13562000000000002,-1.5654299999999999
2018-10-17T19:03:08.358184Z,0.305603,0.534729,-0.399841
2018-10-17T19:03:08.542184Z,-0.11566199999999999,1.2026370000000002,-0.7436520000000001
2018-10-17T19:03:08.742184Z,-1.042664,-0.44970699999999997,-0.662048
2018-10-17T19:03:08.949184Z,-0.5917359999999999,0.543945,-2.000671
2018-10-17T19:03:09.149184Z,0.48510699999999995,1.846313,-0.031127999999999996
2018-10-17T19:03:09.343184Z,1.14917,-0.255249,-0.610718
2018-10-17T19:03:09.544184Z,0.866455,0.257385,-1.581787
2018-10-17T19:03:09.749184Z,0.525085,0.9976200000000001,0.46875
2018-10-17T19:03:09.945184Z,-1.627625,-0.683167,-0.396973
2018-10-17T19:03:10.145184Z,-0.812561,0.026672,-0.2677
2018-10-17T19:03:10.345184Z,-0.427734,1.250305,0.420471
2018-10-17T19:03:10.550184Z,1.059631,0.223633,-0.157532
2018-10-17T19:03:10.748184Z,-1.256104,-0.657227,0.8402709999999999
2018-10-17T19:03:10.945184Z,-0.686707,-0.130676,-0.32074
2018-10-17T19:03:11.143184Z,-0.173767,0.28241,-0.337891
2018-10-17T19:03:11.343184Z,-0.167419,-0.957825,0.317322
2018-10-17T19:03:11.543184Z,-1.067444,-0.8217770000000001,0.278198
2018-10-17T19:03:11.810184Z,-0.469604,-0.623169,1.129333
2018-10-17T19:03:11.932184Z,-0.782959,0.112305,0.068665
2018-10-17T19:03:12.148184Z,-0.565186,0.382385,-0.34314
2018-10-17T19:03:12.353184Z,0.160278,-0.518921,-0.8623049999999999
2018-10-17T19:03:12.542184Z,-0.591309,0.33068800000000004,0.61438
2018-10-17T19:03:12.743184Z,0.015503,0.173218,0.219788
2018-10-17T19:03:12.942184Z,0.572571,-0.485291,-0.9453739999999999
2018-10-17T19:03:13.143184Z,-1.354126,2.2323,-0.11499000000000001
2018-10-17T19:03:13.342184Z,-0.5,-0.9703370000000001,0.935364
2018-10-17T19:03:13.542184Z,-1.222595,-2.291321,-0.705688
2018-10-17T19:03:13.747184Z,-1.163269,-0.9302370000000001,-0.6340939999999999
2018-10-17T19:03:13.956184Z,-0.9606319999999999,-0.068359,0.560181
2018-10-17T19:03:14.147184Z,-0.733337,-0.607117,0.5837399999999999
2018-10-17T19:03:14.342184Z,-0.9824219999999999,-0.9981690000000001,0.342102
2018-10-17T19:03:14.545184Z,-0.6174930000000001,-0.35199,-0.322754
2018-10-17T19:03:14.743184Z,-0.721497,-0.10656700000000001,-0.6811520000000001
2018-10-17T19:03:14.943184Z,-0.864563,-0.414429,-0.490112
2018-10-17T19:03:15.142184Z,-0.472046,-0.37487800000000004,-0.129333
2018-10-17T19:03:15.342184Z,-0.695679,0.026367,-0.299561
2018-10-17T19:03:15.557184Z,-0.41931199999999996,0.093872,-0.47003199999999995
2018-10-17T19:03:15.749184Z,-0.513977,0.075134,-0.417908
2018-10-17T19:03:15.949184Z,-1.284912,0.842468,-0.427246
2018-10-17T19:03:16.148184Z,-1.098999,0.787537,0.09277300000000001
2018-10-17T19:03:16.342184Z,-0.065063,0.158325,-0.817078
2018-10-17T19:03:16.542184Z,0.48144499999999996,-1.30603,0.516724
2018-10-17T19:03:16.742184Z,0.312866,-1.244629,-0.8515010000000001
2018-10-17T19:03:16.942184Z,0.100464,-0.46136499999999997,0.015259
2018-10-17T19:03:17.141184Z,-0.536682,-0.8806149999999999,-0.29632600000000003
2018-10-17T19:03:17.564184Z,-1.798889,-1.391907,0.492188
2018-10-17T19:03:17.830184Z,-1.373901,-0.162537,-0.318542
2018-10-17T19:03:17.941184Z,-1.2702639999999998,0.873901,-0.14843800000000001
2018-10-17T19:03:18.142184Z,-0.345947,0.058776999999999996,-1.8221439999999998
2018-10-17T19:03:18.342184Z,-0.432007,-1.7908939999999998,0.45752
2018-10-17T19:03:18.543184Z,-0.440796,0.117249,-1.413147
2018-10-17T19:03:18.741184Z,-0.264832,0.622925,0.7670899999999999
2018-10-17T19:03:18.944184Z,-1.6679080000000002,-1.698914,-0.740051
2018-10-17T19:03:19.142184Z,-1.6510619999999998,-0.955994,-1.472229
2018-10-17T19:03:19.342184Z,-1.8081049999999999,1.11499,0.146423
2018-10-17T19:03:19.541184Z,-2.405396,-1.202148,3.7552489999999996
2018-10-17T19:03:19.741184Z,-0.783325,-2.1648560000000003,-0.143982
2018-10-17T19:03:19.942184Z,-1.174377,-0.053894000000000004,-1.109558
2018-10-17T19:03:20.142184Z,-1.359741,0.598022,-0.374207
2018-10-17T19:03:20.343184Z,-2.29657,-0.641541,-1.804382
2018-10-17T19:03:20.565184Z,-1.307251,-0.5231319999999999,-0.718384
2018-10-17T19:03:20.744184Z,-0.790833,0.036621,0.191528
2018-10-17T19:03:20.939184Z,-0.18634,-0.684265,-1.4106450000000001
2018-10-17T19:03:21.144184Z,0.327148,-1.3427120000000001,-2.1607060000000002
2018-10-17T19:03:21.343184Z,1.387329,-1.295044,1.062683
2018-10-17T19:03:21.543184Z,1.000977,-0.69989,0.36261
2018-10-17T19:03:21.743184Z,0.436829,-1.607483,1.343384
2018-10-17T19:03:21.943184Z,-1.595581,-1.824036,1.794556
2018-10-17T19:03:22.143184Z,-1.3120120000000002,-0.52771,-0.13030999999999998
2018-10-17T19:03:22.342184Z,-0.573303,0.459229,-0.220703
2018-10-17T19:03:22.542184Z,-0.23669400000000002,-0.676758,1.0977780000000001
2018-10-17T19:03:22.744184Z,0.324402,-0.742859,-0.070496
2018-10-17T19:03:22.990184Z,-0.069885,0.088684,-1.279907
2018-10-17T19:03:23.157184Z,-0.67688,0.22894299999999998,0.127686
2018-10-17T19:03:23.349184Z,-1.313599,-1.0377809999999998,-0.18823199999999998
2018-10-17T19:03:23.548184Z,-0.9812620000000001,-0.340454,0.43774399999999997
2018-10-17T19:03:23.750184Z,-0.9245610000000001,0.588989,-0.33551
2018-10-17T19:03:23.944184Z,-0.806213,0.414368,-0.151611
2018-10-17T19:03:24.143184Z,-0.385315,-0.291626,-1.462585
2018-10-17T19:03:24.343184Z,0.164185,-0.392273,-0.309204
2018-10-17T19:03:24.542184Z,-0.493958,0.110168,0.21148699999999998
2018-10-17T19:03:24.743184Z,-0.798462,-1.6339110000000001,3.134827
2018-10-17T19:03:24.946184Z,-1.426331,-1.484192,0.34387199999999996
2018-10-17T19:03:25.149184Z,-1.3184200000000001,-0.6704100000000001,0.198975
2018-10-17T19:03:25.351184Z,-1.518738,-0.08258099999999999,0.288391
2018-10-17T19:03:25.533184Z,-1.414856,-0.02002,0.801758
2018-10-17T19:03:25.743184Z,-0.43237299999999995,-1.148376,1.265625
2018-10-17T19:03:25.942184Z,-0.637207,-0.728638,0.5844729999999999
2018-10-17T19:03:26.175184Z,-0.500488,-0.053405999999999995,0.17871099999999998
2018-10-17T19:03:26.349184Z,-1.105408,-1.088562,0.7108760000000001
2018-10-17T19:03:26.548184Z,-2.206543,-0.9908450000000001,-0.298157
2018-10-17T19:03:26.749184Z,-2.701111,0.17968800000000001,-0.390259
2018-10-17T19:03:26.942184Z,-2.149353,0.646729,0.297119
2018-10-17T19:03:27.143184Z,-1.7587279999999998,-0.0008539999999999999,0.945801
2018-10-17T19:03:27.343184Z,0.067993,-1.212891,0.27722199999999997
2018-10-17T19:03:27.543184Z,-0.274353,0.417786,-0.393372
2018-10-17T19:03:27.743184Z,-0.636475,0.743591,0.538696
2018-10-17T19:03:27.967184Z,-1.194336,-0.9356690000000001,1.195557
2018-10-17T19:03:28.151184Z,-2.464111,0.292908,-4.654724
2018-10-17T19:03:28.339184Z,-0.731384,-0.263489,0.028319999999999998
2018-10-17T19:03:28.555184Z,-1.046448,0.12243699999999999,-0.385864
2018-10-17T19:03:28.752184Z,-1.827332,-0.886108,0.584167
2018-10-17T19:03:28.952184Z,-0.351013,-0.461487,-0.044617000000000004
2018-10-17T19:03:29.145184Z,-0.5532229999999999,-0.478943,0.33569299999999996
2018-10-17T19:03:29.343184Z,-0.539795,-0.057495000000000004,0.443176
2018-10-17T19:03:29.543184Z,0.822449,0.29718,-0.582092
2018-10-17T19:03:29.742184Z,1.318665,0.600952,-0.265625
2018-10-17T19:03:29.942184Z,0.706238,0.703857,0.608521
2018-10-17T19:03:30.150184Z,0.17114300000000002,-2.1179810000000003,2.337646
2018-10-17T19:03:30.346184Z,-1.379944,-0.169312,-0.981384
2018-10-17T19:03:30.558184Z,-0.143372,-0.579285,0.60321
2018-10-17T19:03:30.749184Z,-0.132874,0.8299559999999999,0.019287000000000002
2018-10-17T19:03:30.943184Z,-0.535583,-1.239685,0.602722
2018-10-17T19:03:31.144184Z,0.41803,-0.7011109999999999,1.030701
2018-10-17T19:03:31.619184Z,0.6209720000000001,-0.052002,0.313965
2018-10-17T19:03:31.744184Z,1.017517,0.602478,-0.144775
2018-10-17T19:03:31.947184Z,1.190796,0.635437,0.252869
2018-10-17T19:03:32.151184Z,0.698975,0.48120100000000005,0.304504
2018-10-17T19:03:32.361184Z,0.026367,-0.638794,1.335632
2018-10-17T19:03:32.542184Z,-0.218079,-0.46240200000000004,0.46453900000000004
2018-10-17T19:03:32.743184Z,-0.681213,0.088562,-0.285339
2018-10-17T19:03:32.942184Z,-0.256409,1.123657,-0.39373800000000003
2018-10-17T19:03:33.142184Z,0.37146,0.831909,-1.91272
2018-10-17T19:03:33.342184Z,0.153015,0.174805,-1.278076
2018-10-17T19:03:33.545184Z,0.10693399999999999,-0.300293,-0.156799
2018-10-17T19:03:33.748184Z,2.0759279999999998,-0.533997,0.418091
2018-10-17T19:03:33.948184Z,0.558716,0.390137,0.624146
2018-10-17T19:03:34.145184Z,-1.146179,0.16229200000000002,0.026001
2018-10-17T19:03:34.343184Z,-1.086792,-0.5715939999999999,-0.673706
2018-10-17T19:03:34.567184Z,-0.663818,-0.334351,0.235229
2018-10-17T19:03:34.747184Z,-0.560425,-0.07074,0.36791999999999997
2018-10-17T19:03:34.948184Z,-0.534668,0.178223,-0.606323
2018-10-17T19:03:35.165184Z,-0.41680900000000004,0.5755,0.022338999999999998
2018-10-17T19:03:35.341184Z,-0.39379899999999995,-0.48669399999999996,1.837952
2018-10-17T19:03:35.543184Z,-0.016907,-0.263,0.9612430000000001
2018-10-17T19:03:35.743184Z,0.40331999999999996,0.007873999999999999,-0.5448609999999999
2018-10-17T19:03:35.943184Z,0.423462,0.871582,-0.311096
2018-10-17T19:03:36.142184Z,0.576843,0.9345700000000001,-0.068604
2018-10-17T19:03:36.342184Z,0.715454,-0.721252,1.853577
2018-10-17T19:03:36.555184Z,-0.9573360000000001,-1.68219,0.080627
2018-10-17T19:03:36.748184Z,-0.42126499999999995,0.22784400000000002,0.225464
2018-10-17T19:03:36.949184Z,0.022827,0.609192,-0.005737
2018-10-17T19:03:37.142184Z,-0.012695,-2.168884,3.918945
2018-10-17T19:03:37.349184Z,0.27807600000000005,-1.160767,-0.249146
2018-10-17T19:03:37.550184Z,-0.13226300000000002,-0.22094699999999998,0.280579
2018-10-17T19:03:37.748184Z,0.581177,-0.43481400000000003,0.081665
2018-10-17T19:03:37.957184Z,1.5083010000000001,-0.379333,0.12054400000000001
2018-10-17T19:03:38.134184Z,2.2165529999999998,0.20105,-0.007506999999999999
2018-10-17T19:03:38.343184Z,1.034058,0.031311,0.685181
2018-10-17T19:03:38.544184Z,-0.122253,-2.628967,3.4423220000000003
2018-10-17T19:03:38.743184Z,-1.9873049999999999,-0.49768100000000004,-0.9221799999999999
2018-10-17T19:03:38.945184Z,-0.995239,-0.5271,1.199402
2018-10-17T19:03:39.139184Z,-0.682983,0.704468,-0.023254
2018-10-17T19:03:39.343184Z,-0.9111940000000001,-0.6774899999999999,0.897217
2018-10-17T19:03:39.548184Z,-0.298157,-1.112976,0.473938
2018-10-17T19:03:39.749184Z,-0.799927,0.197266,-0.5507810000000001
2018-10-17T19:03:39.949184Z,-0.5562739999999999,-0.093872,0.704468
2018-10-17T19:03:40.142184Z,-0.718933,-1.6936650000000002,1.085205
2018-10-17T19:03:40.342184Z,-1.854004,-0.386169,-0.359985
2018-10-17T19:03:40.566184Z,-2.024536,0.026733,0.027770999999999997
2018-10-17T19:03:40.748184Z,-1.274902,0.510315,0.018982
2018-10-17T19:03:40.948184Z,-2.220581,0.9974370000000001,-0.538025
2018-10-17T19:03:41.148184Z,-2.235779,-0.808228,3.6831050000000003
2018-10-17T19:03:41.343184Z,0.29370100000000005,-0.7150880000000001,-2.187073
2018-10-17T19:03:41.544184Z,-0.058899,0.704346,-0.734863
2018-10-17T19:03:41.743184Z,-1.497559,0.8685299999999999,-0.925537
2018-10-17T19:03:41.943184Z,-1.98291,-1.344849,0.561829
2018-10-17T19:03:42.144184Z,-0.30658,-0.253601,-0.8765870000000001
2018-10-17T19:03:42.343184Z,-1.2001950000000001,0.789734,1.349304
2018-10-17T19:03:42.545184Z,-1.220337,-1.6297,2.71106
2018-10-17T19:03:42.749184Z,-1.639648,-1.347046,-0.8460690000000001
2018-10-17T19:03:42.947184Z,-0.520203,-0.023254,-0.277893
2018-10-17T19:03:43.142184Z,-0.8975219999999999,-2.055725,3.264221
2018-10-17T19:03:43.342184Z,-2.96814,0.767151,-0.956665
2018-10-17T19:03:43.543184Z,-1.650696,0.10144,0.10913099999999999
2018-10-17T19:03:43.742184Z,-1.800598,0.832825,-0.037415
2018-10-17T19:03:43.964184Z,-1.63855,0.397278,-0.77356
2018-10-17T19:03:44.149184Z,-2.4807740000000003,0.6002810000000001,-0.788025
2018-10-17T19:03:44.348184Z,-1.480713,0.539795,-0.12408399999999999
2018-10-17T19:03:44.553184Z,-1.1123049999999999,0.831177,0.48669399999999996
2018-10-17T19:03:44.745184Z,0.43060299999999996,-1.5635379999999999,2.890564
2018-10-17T19:03:45.143184Z,0.043945,-0.624634,-1.2418209999999998
2018-10-17T19:03:45.343184Z,0.766418,0.760864,0.10656700000000001
2018-10-17T19:03:45.544184Z,-0.8259280000000001,-0.178101,-0.848267
2018-10-17T19:03:45.743184Z,-0.400818,-1.622742,1.012939
2018-10-17T19:03:45.960184Z,-0.184631,-1.162109,0.0
2018-10-17T19:03:46.151184Z,-0.11511199999999999,-0.342957,-0.778564
2018-10-17T19:03:46.349184Z,0.8628540000000001,-1.040771,-0.198669
2018-10-17T19:03:46.549184Z,0.142456,-1.3463129999999999,2.165466
2018-10-17T19:03:46.742184Z,1.277344,-0.191589,0.474182
2018-10-17T19:03:46.944184Z,0.719482,0.328125,0.599731
2018-10-17T19:03:47.142184Z,-0.381226,-0.326599,-0.992065
2018-10-17T19:03:47.342184Z,-0.12475599999999999,0.6602779999999999,-0.913818
2018-10-17T19:03:47.542184Z,0.366211,0.2146,-0.0045780000000000005
2018-10-17T19:03:47.742184Z,0.7064819999999999,-1.522644,4.520874
2018-10-17T19:03:47.974184Z,0.5671390000000001,-0.278931,0.14599600000000001
2018-10-17T19:03:48.143184Z,0.6176149999999999,0.557129,-0.072632
2018-10-17T19:03:48.351184Z,1.091492,1.3370360000000001,-0.256226
2018-10-17T19:03:48.550184Z,0.609863,-0.464905,0.740784
2018-10-17T19:03:48.765184Z,-0.171997,0.193604,0.48132299999999995
2018-10-17T19:03:48.942184Z,0.135193,0.366577,-0.445068
2018-10-17T19:03:49.140184Z,0.21991,1.891602,-0.42144799999999993
2018-10-17T19:03:49.350184Z,0.331421,0.423828,-0.11438
2018-10-17T19:03:49.543184Z,1.103882,-0.556396,1.262939
2018-10-17T19:03:49.745184Z,1.396606,0.832458,-0.728821
2018-10-17T19:03:49.933184Z,0.776489,1.943909,0.956787
2018-10-17T19:03:50.142184Z,-0.292175,-0.140442,-0.954407
2018-10-17T19:03:50.347184Z,0.683044,-0.092651,-0.9799190000000001
2018-10-17T19:03:50.541184Z,0.29138200000000003,0.9264530000000001,-0.5917359999999999
2018-10-17T19:03:50.742184Z,1.4273069999999999,0.5900880000000001,-2.411377
2018-10-17T19:03:50.943184Z,1.855957,-0.8880620000000001,-0.59491
2018-10-17T19:03:51.143184Z,2.154175,-0.434875,1.027466
2018-10-17T19:03:51.342184Z,1.302917,1.398499,0.8556520000000001
2018-10-17T19:03:51.543184Z,0.962952,1.580383,-0.281738
2018-10-17T19:03:51.742184Z,-0.9477540000000001,0.47381599999999996,-0.627869
2018-10-17T19:03:51.942184Z,-1.147644,1.7244869999999999,-1.990784
2018-10-17T19:03:52.143184Z,-0.126099,1.610352,-0.93573
2018-10-17T19:03:52.342184Z,0.383606,1.6363530000000002,-1.605286
2018-10-17T19:03:52.543184Z,-0.478516,0.568054,0.572571
2018-10-17T19:03:52.744184Z,-0.435425,1.232361,-0.631897
2018-10-17T19:03:52.949184Z,-0.06225599999999999,2.242126,-0.380432
2018-10-17T19:03:53.144184Z,-0.388428,0.225464,0.481995
2018-10-17T19:03:53.342184Z,0.31433099999999997,0.43804899999999997,0.260376
2018-10-17T19:03:53.542184Z,0.088745,0.19043,-0.156006
2018-10-17T19:03:53.775184Z,0.102173,0.517151,-0.410095
2018-10-17T19:03:53.956184Z,0.095154,0.843567,-0.383484
2018-10-17T19:03:54.148184Z,-0.48931899999999995,1.027466,-0.541138
2018-10-17T19:03:54.343184Z,-1.3636469999999998,1.550293,0.597229
2018-10-17T19:03:54.540184Z,-0.634338,1.598633,-0.42688000000000004
2018-10-17T19:03:54.756184Z,0.31445300000000004,1.72052,-0.746521
2018-10-17T19:03:54.945184Z,-0.41516099999999995,1.039307,1.0699459999999998
2018-10-17T19:03:55.145184Z,0.670471,-0.585022,0.958191
2018-10-17T19:03:55.343184Z,1.288757,-0.275269,0.909485
2018-10-17T19:03:55.544184Z,0.903809,1.515686,0.17395
2018-10-17T19:03:55.760184Z,-0.8969729999999999,0.37323,-4.887633999999999
2018-10-17T19:03:55.950184Z,-1.7125240000000002,-0.490784,-0.7700199999999999
2018-10-17T19:03:56.149184Z,-0.080688,-0.41851800000000006,-0.013244999999999998
2018-10-17T19:03:56.343184Z,-0.196716,-0.31243899999999997,-0.317688
2018-10-17T19:03:56.609184Z,-0.6362300000000001,-0.23761,0.732666
2018-10-17T19:03:56.743184Z,-0.20861799999999997,0.117004,0.336975
2018-10-17T19:03:56.948184Z,-1.662842,-0.445557,1.368774
2018-10-17T19:03:57.148184Z,-1.8499759999999998,1.048706,-0.40820300000000004
2018-10-17T19:03:57.342184Z,-1.716187,1.158875,-0.8303219999999999
2018-10-17T19:03:57.543184Z,-1.226318,-0.337036,2.973755
2018-10-17T19:03:57.744184Z,0.823608,-2.119324,0.915833
2018-10-17T19:03:58.142184Z,0.15393099999999998,-0.216675,0.031067
2018-10-17T19:03:58.343184Z,-0.387024,0.516418,-0.214905
2018-10-17T19:03:58.567184Z,-0.843994,-0.802917,-0.805725
2018-10-17T19:03:58.750184Z,-0.151428,-0.364624,-1.1521
2018-10-17T19:03:58.949184Z,0.520081,-0.263977,-0.377747
2018-10-17T19:03:59.156184Z,0.673096,-0.8051149999999999,0.5314939999999999
2018-10-17T19:03:59.345184Z,1.481506,-0.474609,0.201477
2018-10-17T19:03:59.562184Z,-0.5547489999999999,1.1947020000000002,1.057556
2018-10-17T19:03:59.743184Z,-0.234619,-0.22869899999999999,-1.165649
2018-10-17T19:03:59.946184Z,-0.82135,0.200012,-0.919006
2018-10-17T19:04:00.144184Z,0.0063479999999999995,0.24725300000000003,0.281738
2018-10-17T19:04:00.342184Z,0.328369,-0.198181,2.330444
2018-10-17T19:04:00.548184Z,0.5585939999999999,0.46850600000000003,-2.2151490000000003
2018-10-17T19:04:00.749184Z,0.270935,1.353333,0.049683
2018-10-17T19:04:00.949184Z,-0.31958000000000003,-1.856628,0.908142
2018-10-17T19:04:01.142184Z,-0.049377,-0.50415,-0.603333
2018-10-17T19:04:01.379184Z,-0.075806,-0.6752319999999999,0.033447000000000005
2018-10-17T19:04:01.559184Z,-0.375488,0.50885,-0.506836
2018-10-17T19:04:01.750184Z,-1.054993,0.286377,-0.249207
2018-10-17T19:04:01.950184Z,-2.185547,0.615051,-0.40625
2018-10-17T19:04:02.143184Z,-1.251099,0.13861099999999998,1.1490479999999998
2018-10-17T19:04:02.345184Z,0.998657,-1.990662,3.2689209999999997
2018-10-17T19:04:02.545184Z,0.451904,-0.168213,-1.875305
2018-10-17T19:04:02.744184Z,-1.494019,0.565308,0.705994
2018-10-17T19:04:02.943184Z,-1.35791,-1.186401,-2.8588869999999997
2018-10-17T19:04:03.142184Z,1.324524,-0.80896,0.09845
2018-10-17T19:04:03.345184Z,-0.806396,-1.558777,2.51947
2018-10-17T19:04:03.550184Z,-0.744629,-1.379456,0.000671
2018-10-17T19:04:03.748184Z,0.20788600000000002,-0.8574219999999999,0.5451050000000001
2018-10-17T19:04:03.961184Z,0.598328,0.345337,0.7738649999999999
2018-10-17T19:04:04.146184Z,1.154541,-0.10955799999999999,-0.527161
2018-10-17T19:04:04.348184Z,1.1190799999999999,0.505676,0.710388
2018-10-17T19:04:04.549184Z,0.43078599999999995,0.8980100000000001,0.660461
2018-10-17T19:04:04.743184Z,-0.785339,-0.610901,-1.3684690000000002
2018-10-17T19:04:04.944184Z,-0.20086700000000002,-0.019287000000000002,-0.49121099999999995
2018-10-17T19:04:05.142184Z,0.08136,0.404541,-0.201172
2018-10-17T19:04:05.342184Z,0.317444,0.786621,-0.825317
2018-10-17T19:04:05.544184Z,1.108032,-1.5625,1.9917599999999998
2018-10-17T19:04:05.743184Z,0.32959,-1.032532,0.49127200000000004
2018-10-17T19:04:05.949184Z,0.168274,-0.231384,-0.143188
2018-10-17T19:04:06.148184Z,0.021301,0.321594,0.29180900000000004
2018-10-17T19:04:06.343184Z,0.49054,0.17028800000000002,-0.32061799999999996
2018-10-17T19:04:06.544184Z,0.364319,0.052428999999999996,0.304077
2018-10-17T19:04:06.745184Z,0.370239,0.28302,-0.013244999999999998
2018-10-17T19:04:06.940184Z,1.045715,0.449829,-0.454529
2018-10-17T19:04:07.161184Z,2.051575,0.656921,0.256042
2018-10-17T19:04:07.348184Z,1.586182,0.365173,-0.040466
2018-10-17T19:04:07.544184Z,0.5291140000000001,1.3745120000000002,0.476013
2018-10-17T19:04:07.742184Z,-0.01593,-0.14562999999999998,0.27868699999999996
2018-10-17T19:04:07.944184Z,0.345276,0.557739,-0.802429
2018-10-17T19:04:08.142184Z,-0.156372,1.470825,-0.385498
2018-10-17T19:04:08.342184Z,0.757263,0.396729,-1.015503
2018-10-17T19:04:08.550184Z,0.31811500000000004,-0.09753400000000001,-0.631042
2018-10-17T19:04:08.823184Z,0.255798,1.094971,0.514587
2018-10-17T19:04:08.943184Z,-0.529358,1.543091,-0.135498
2018-10-17T19:04:09.168184Z,-0.395325,0.031616000000000005,-1.707886
2018-10-17T19:04:09.346184Z,0.8756709999999999,0.435791,-0.807922
2018-10-17T19:04:09.544184Z,1.031311,1.108765,-1.576904
2018-10-17T19:04:09.747184Z,0.785828,-0.6627810000000001,0.8673709999999999
2018-10-17T19:04:09.945184Z,0.740479,0.302551,-0.303223
2018-10-17T19:04:10.145184Z,-0.371094,-0.8356319999999999,-0.8244020000000001
2018-10-17T19:04:10.352184Z,-1.223328,-0.031921,1.002808
2018-10-17T19:04:10.541184Z,-0.047057999999999996,-0.195801,0.262756
2018-10-17T19:04:10.744184Z,0.006958,-0.7581180000000001,0.333374
2018-10-17T19:04:11.148184Z,-0.138,-0.13006600000000001,-0.42486599999999997
2018-10-17T19:04:11.343184Z,0.315552,-0.702026,0.15698199999999998
2018-10-17T19:04:11.578184Z,-0.263855,0.270447,-0.023987
2018-10-17T19:04:11.748184Z,-0.581543,0.165588,-0.40155
2018-10-17T19:04:11.949184Z,-0.40509,-0.124634,0.043884
2018-10-17T19:04:12.148184Z,-0.623901,-0.15246600000000002,-0.29248
2018-10-17T19:04:12.344184Z,-1.3637700000000001,0.299194,-0.8357540000000001
2018-10-17T19:04:12.544184Z,-0.348938,0.6992189999999999,0.008789
2018-10-17T19:04:12.745184Z,-0.711182,1.419861,0.839233
2018-10-17T19:04:12.943184Z,-0.8198850000000001,0.36193800000000004,-1.272522
2018-10-17T19:04:13.144184Z,-0.368164,-1.256165,0.9110719999999999
2018-10-17T19:04:13.386184Z,-0.571289,-0.364807,0.553589
2018-10-17T19:04:13.545184Z,-0.41766400000000004,0.3349,0.06189
2018-10-17T19:04:13.750184Z,-0.5231319999999999,0.350403,0.013123
2018-10-17T19:04:13.952184Z,-2.543701,-0.730225,-0.130798
2018-10-17T19:04:14.142184Z,-1.914612,0.211121,-0.521912
2018-10-17T19:04:14.343184Z,0.291443,0.138062,0.240662
2018-10-17T19:04:14.543184Z,-0.22479200000000002,-0.27374299999999996,0.552551
2018-10-17T19:04:14.743184Z,-0.331909,0.37445100000000003,-0.507202
2018-10-17T19:04:14.938184Z,-0.492004,0.40124499999999996,0.793762
2018-10-17T19:04:15.142184Z,-1.7708130000000002,-0.507812,-1.042175
2018-10-17T19:04:15.345184Z,-1.589233,-0.166626,-0.7051390000000001
2018-10-17T19:04:15.533184Z,-0.958191,0.655945,-0.054626
2018-10-17T19:04:15.749184Z,-1.2941280000000002,-1.544434,3.617065
2018-10-17T19:04:15.946184Z,-0.9938959999999999,0.089111,-1.8786009999999997
2018-10-17T19:04:16.142184Z,-0.693054,0.253052,-0.31488
2018-10-17T19:04:16.359184Z,-1.5527950000000001,-0.5314939999999999,-0.86615
2018-10-17T19:04:16.549184Z,-3.4825440000000003,-0.9351200000000001,0.717896
2018-10-17T19:04:16.743184Z,-2.3172610000000002,0.120361,0.776123
2018-10-17T19:04:16.943184Z,-1.569519,0.8693850000000001,-0.415649
2018-10-17T19:04:17.140184Z,-1.8055419999999998,-0.331482,0.176514
2018-10-17T19:04:17.343184Z,-1.287354,-0.163879,0.495667
2018-10-17T19:04:17.542184Z,-1.1187129999999998,0.8293459999999999,-0.045776
2018-10-17T19:04:17.751184Z,-2.008972,1.3676760000000001,-0.684265
2018-10-17T19:04:17.962184Z,-2.675598,-0.269775,0.041382
2018-10-17T19:04:18.151184Z,-2.947693,0.454651,-0.797363
2018-10-17T19:04:18.343184Z,-2.767517,1.572937,-0.53009
2018-10-17T19:04:18.543184Z,-2.215088,1.877319,-0.883301
2018-10-17T19:04:18.743184Z,-0.5549930000000001,0.569519,0.042114
2018-10-17T19:04:18.942184Z,-0.22833299999999998,0.337158,-1.465271
2018-10-17T19:04:19.142184Z,-0.26763899999999996,1.7655029999999998,-1.03302
2018-10-17T19:04:19.343184Z,-0.651001,0.110107,-0.032288
2018-10-17T19:04:19.542184Z,-0.000122,0.38116500000000003,0.14593499999999998
2018-10-17T19:04:19.783184Z,-0.062012,0.552429,-0.676331
2018-10-17T19:04:19.951184Z,-0.051879999999999996,0.59668,-0.568298
2018-10-17T19:04:20.143184Z,0.715332,-0.299011,-0.5065310000000001
2018-10-17T19:04:20.345184Z,1.312866,-0.49346899999999994,-1.069885
2018-10-17T19:04:20.543184Z,0.682983,0.118958,1.822327
2018-10-17T19:04:20.743184Z,-0.45440699999999995,1.067993,0.067139
2018-10-17T19:04:20.948184Z,-0.379395,-1.0618290000000001,-0.098083
2018-10-17T19:04:21.149184Z,-0.748413,0.157593,-1.271606
2018-10-17T19:04:21.342184Z,-1.1098629999999998,1.592834,-0.39801
2018-10-17T19:04:21.542184Z,0.20605500000000002,-0.431885,4.166077
2018-10-17T19:04:21.742184Z,-0.171997,-0.07104500000000001,-1.907227
2018-10-17T19:04:21.946184Z,0.281616,0.782593,0.116882
2018-10-17T19:04:22.148184Z,-0.335266,-0.137817,1.7125849999999998
2018-10-17T19:04:22.343184Z,0.384033,-0.011414,-1.042297
2018-10-17T19:04:22.543184Z,0.651245,0.146973,0.404602
2018-10-17T19:04:22.753184Z,0.6912229999999999,0.596497,-1.534058
2018-10-17T19:04:22.949184Z,1.605042,0.557495,-0.42333999999999994
2018-10-17T19:04:23.145184Z,0.254822,0.7719729999999999,1.330811
2018-10-17T19:04:23.544184Z,-1.034912,-0.714294,-0.674866
2018-10-17T19:04:23.748184Z,0.539062,-0.731567,-0.68811
2018-10-17T19:04:23.941184Z,-0.399597,0.8811040000000001,0.070618
2018-10-17T19:04:24.143184Z,0.43041999999999997,1.174683,-1.477905
2018-10-17T19:04:24.343184Z,0.705688,-0.739319,1.166931
2018-10-17T19:04:24.543184Z,0.155151,0.085266,0.313416
2018-10-17T19:04:24.819184Z,0.079956,1.089417,-0.298523
2018-10-17T19:04:24.959184Z,0.71875,1.4102780000000001,-0.7266239999999999
2018-10-17T19:04:25.150184Z,0.77533,1.739441,-0.856323
2018-10-17T19:04:25.352184Z,0.300781,1.8350220000000002,0.009705
2018-10-17T19:04:25.539184Z,-0.516113,0.37384,0.967224
2018-10-17T19:04:25.747184Z,0.097839,-0.968933,0.657471
2018-10-17T19:04:25.945184Z,-0.5314939999999999,0.784668,-0.641174
2018-10-17T19:04:26.143184Z,0.754578,0.452454,-0.8716430000000001
2018-10-17T19:04:26.344184Z,-1.235474,1.421692,-0.28424099999999997
2018-10-17T19:04:26.543184Z,2.2573849999999998,-0.391541,0.894287
2018-10-17T19:04:26.744184Z,-1.324524,-0.120117,2.850342
2018-10-17T19:04:26.954184Z,-0.705627,-0.008545,-0.3396
2018-10-17T19:04:27.144184Z,-0.829041,1.284851,-1.631958
2018-10-17T19:04:27.333184Z,-0.27124000000000004,-0.210083,2.956482
2018-10-17T19:04:27.552184Z,0.437622,0.501099,-2.865173
2018-10-17T19:04:27.743184Z,0.386108,1.99292,0.382629
2018-10-17T19:04:27.955184Z,-0.8459469999999999,-0.356995,-0.755371
2018-10-17T19:04:28.143184Z,-0.667603,0.359985,-1.90979
2018-10-17T19:04:28.342184Z,-0.958923,1.41626,-0.025635
2018-10-17T19:04:28.542184Z,1.143494,-0.476318,-1.189331
2018-10-17T19:04:28.742184Z,-0.123779,0.557495,-0.642883
2018-10-17T19:04:28.942184Z,0.115173,0.798523,-0.686157
2018-10-17T19:04:29.158184Z,-0.631836,-1.1948239999999999,1.547424
2018-10-17T19:04:29.339184Z,-0.6870729999999999,0.399475,-0.735657
2018-10-17T19:04:29.546184Z,-0.132446,1.649414,-0.84021
2018-10-17T19:04:29.745184Z,0.008362,-0.12677,2.473694
2018-10-17T19:04:29.947184Z,0.093933,0.519836,-1.8533330000000001
2018-10-17T19:04:30.143184Z,-0.164429,1.071289,-0.233704
2018-10-17T19:04:30.345184Z,-0.113647,-1.177856,2.35498
2018-10-17T19:04:30.543184Z,-0.033142000000000005,-0.0072629999999999995,-0.903625
2018-10-17T19:04:30.745184Z,-0.19574,0.538025,-0.29376199999999997
2018-10-17T19:04:30.943184Z,-0.159851,1.544556,1.34906
2018-10-17T19:04:31.143184Z,-0.409851,-2.952393,1.498108
2018-10-17T19:04:31.348184Z,0.259949,-1.562805,-0.60321
2018-10-17T19:04:31.548184Z,1.009277,-0.64032,0.14788800000000002
2018-10-17T19:04:31.750184Z,-0.277283,0.499146,-0.011597
2018-10-17T19:04:31.943184Z,-0.722839,0.6362300000000001,-0.26745599999999997
2018-10-17T19:04:32.142184Z,-0.262024,0.337402,-0.846191
2018-10-17T19:04:32.345184Z,-0.96344,1.190918,-0.737915
2018-10-17T19:04:32.549184Z,0.21166999999999997,1.569458,0.047241000000000005
2018-10-17T19:04:32.748184Z,0.23492399999999997,-0.02356,-1.56427
2018-10-17T19:04:32.943184Z,0.10272200000000001,-0.42303500000000005,1.8174439999999998
2018-10-17T19:04:33.142184Z,0.43450900000000003,1.0622559999999999,0.6860350000000001
2018-10-17T19:04:33.346184Z,0.182922,0.49517799999999995,0.091003
2018-10-17T19:04:33.543184Z,0.09338400000000001,-1.224365,-0.845032
2018-10-17T19:04:33.744184Z,-0.09600800000000001,-0.644592,-0.648254
2018-10-17T19:04:33.944184Z,-0.21398899999999998,1.222534,0.048218000000000004
2018-10-17T19:04:34.143184Z,-0.329285,-0.276306,2.5436400000000003
2018-10-17T19:04:34.349184Z,0.293274,-1.7097779999999998,0.08429
2018-10-17T19:04:34.549184Z,0.22869899999999999,-0.593018,1.358215
2018-10-17T19:04:34.767184Z,0.348328,-0.255554,0.370911
2018-10-17T19:04:34.943184Z,0.9797969999999999,-0.502197,-0.314819
2018-10-17T19:04:35.145184Z,0.290161,0.332947,0.518738
2018-10-17T19:04:35.351184Z,1.450867,-0.268372,0.9067379999999999
2018-10-17T19:04:35.759184Z,1.052185,0.643372,0.090271
2018-10-17T19:04:35.944184Z,0.764709,0.9801030000000001,0.279663
2018-10-17T19:04:36.140184Z,0.290344,0.551758,0.9820559999999999
2018-10-17T19:04:36.346184Z,0.36438000000000004,-0.226746,-0.759583
2018-10-17T19:04:36.545184Z,0.131958,0.45599399999999995,-0.542358
2018-10-17T19:04:36.754184Z,-0.151123,1.3610229999999999,-0.7731319999999999
2018-10-17T19:04:36.949184Z,0.41803,-0.16833499999999998,0.923035
2018-10-17T19:04:37.153184Z,0.780396,-0.152283,-0.112549
