Datetime,accx,accy,accz
2018-10-15T19:46:01.345130Z,0.0,0.0,0.0
2018-10-15T19:46:01.567130Z,0.161251,-0.834598,0.125891
2018-10-15T19:46:01.812130Z,0.59508,0.124279,-1.256614
2018-10-15T19:46:01.998130Z,-1.435141,0.577151,0.617383
2018-10-15T19:46:02.208130Z,-2.177921,-1.3323639999999999,0.634408
2018-10-15T19:46:02.417130Z,0.063712,-0.79686,-0.701867
2018-10-15T19:46:02.607130Z,0.6334,0.146329,0.300105
2018-10-15T19:46:02.783130Z,0.79318,-0.560542,1.611907
2018-10-15T19:46:03.012130Z,1.884105,-1.271296,-0.362165
2018-10-15T19:46:03.196130Z,0.401516,0.382348,0.436345
2018-10-15T19:46:03.412130Z,0.813218,-0.085381,1.355068
2018-10-15T19:46:03.684130Z,1.779465,-0.931983,-0.283909
2018-10-15T19:46:03.799130Z,0.9451440000000001,-0.351885,-1.377981
2018-10-15T19:46:04.065130Z,0.543748,0.194641,1.422297
2018-10-15T19:46:04.229130Z,0.357027,-1.318446,-0.409308
2018-10-15T19:46:04.424130Z,0.800435,-1.160172,-0.906724
2018-10-15T19:46:04.632130Z,1.258098,0.34868699999999997,0.603767
2018-10-15T19:46:04.826130Z,1.002246,-1.064429,0.012819999999999998
2018-10-15T19:46:04.987130Z,0.578216,-0.7691899999999999,-1.439599
2018-10-15T19:46:05.225130Z,0.6379630000000001,0.8406809999999999,0.087283
2018-10-15T19:46:05.440130Z,-0.34165999999999996,0.652125,1.630176
2018-10-15T19:46:05.603130Z,0.862541,-1.285415,-1.271399
2018-10-15T19:46:05.814130Z,0.20521399999999998,0.041349000000000004,0.4939
2018-10-15T19:46:05.987130Z,0.054886000000000004,0.198739,0.7076399999999999
2018-10-15T19:46:06.212130Z,0.889318,-0.436662,0.150315
2018-10-15T19:46:06.386130Z,0.669009,0.39691,-0.680041
2018-10-15T19:46:06.605130Z,-0.22371799999999997,0.789079,1.837796
2018-10-15T19:46:06.813130Z,-0.289552,-0.8749020000000001,-0.125504
2018-10-15T19:46:06.989130Z,0.42022299999999996,-1.127367,-1.050694
2018-10-15T19:46:07.188130Z,0.162237,0.788937,1.079264
2018-10-15T19:46:07.387130Z,0.7149449999999999,-1.04162,-0.095211
2018-10-15T19:46:07.589130Z,0.6614939999999999,-0.662643,-1.3502239999999999
2018-10-15T19:46:07.810130Z,0.479926,0.697277,0.139496
2018-10-15T19:46:07.989130Z,0.195079,-0.946521,-0.187272
2018-10-15T19:46:08.218130Z,0.600747,-0.6251220000000001,-1.057439
2018-10-15T19:46:08.388130Z,0.058313,0.5979369999999999,0.07308300000000001
2018-10-15T19:46:08.610130Z,-0.08744199999999999,0.483274,1.544735
2018-10-15T19:46:08.787130Z,0.7136060000000001,-0.746594,-1.581858
2018-10-15T19:46:08.990130Z,0.272192,0.46082799999999996,0.58057
2018-10-15T19:46:09.189130Z,-0.100589,0.790985,1.574562
2018-10-15T19:46:09.473130Z,-0.28794699999999995,-1.3030709999999999,-0.100159
2018-10-15T19:46:09.588130Z,-0.19533599999999998,0.43401300000000004,-0.071878
2018-10-15T19:46:09.789130Z,0.024991,0.852101,0.614107
2018-10-15T19:46:10.015130Z,-0.130262,-0.762478,0.126966
2018-10-15T19:46:10.212130Z,0.508791,-0.541141,-0.9731850000000001
2018-10-15T19:46:10.418130Z,-0.374332,0.917542,0.811818
2018-10-15T19:46:10.618130Z,-0.447804,-0.671968,0.382805
2018-10-15T19:46:10.821130Z,-0.395219,-1.017682,-1.022448
2018-10-15T19:46:10.991130Z,-1.112279,0.009156000000000001,-0.113944
2018-10-15T19:46:11.208130Z,-0.745442,-0.98736,0.326287
2018-10-15T19:46:11.389130Z,-0.114133,-0.554094,-1.067067
2018-10-15T19:46:11.610130Z,0.19116,0.070639,-0.143545
2018-10-15T19:46:11.812130Z,0.546181,1.061964,1.2242110000000002
2018-10-15T19:46:12.016130Z,-0.020574000000000002,-1.34861,-0.532786
2018-10-15T19:46:12.208130Z,0.5396479999999999,-0.506042,-1.107315
2018-10-15T19:46:12.390130Z,0.31487,1.126067,0.221796
2018-10-15T19:46:12.609130Z,-0.008465,0.434734,1.7105689999999998
2018-10-15T19:46:12.812130Z,0.785312,-0.536295,-1.457824
2018-10-15T19:46:13.011130Z,0.441796,0.938624,0.575498
2018-10-15T19:46:13.193130Z,-0.179578,0.634817,1.7632580000000002
2018-10-15T19:46:13.418130Z,0.323841,-1.293564,0.339014
2018-10-15T19:46:13.616130Z,0.544818,0.507432,0.349696
2018-10-15T19:46:13.793130Z,0.937378,0.562305,0.8542790000000001
2018-10-15T19:46:14.047130Z,1.24685,-0.952425,0.293713
2018-10-15T19:46:14.192130Z,1.095536,-0.690842,-0.919373
2018-10-15T19:46:14.392130Z,0.23586100000000002,0.846504,1.2759
2018-10-15T19:46:14.608130Z,-0.07977200000000001,-0.986692,0.6739689999999999
2018-10-15T19:46:14.809130Z,0.594594,-0.9357770000000001,-0.940939
2018-10-15T19:46:15.032130Z,0.24620999999999998,0.272477,-0.46356
2018-10-15T19:46:15.194130Z,0.556063,-0.4546,0.635979
2018-10-15T19:46:15.406130Z,0.520255,-0.781941,-0.523658
2018-10-15T19:46:15.592130Z,-0.017352,-0.039546,-0.302501
2018-10-15T19:46:15.807130Z,0.08050299999999999,0.5612729999999999,0.745276
2018-10-15T19:46:16.014130Z,0.239004,-0.653273,-0.739109
2018-10-15T19:46:16.213130Z,0.797194,0.068887,-0.151946
2018-10-15T19:46:16.413130Z,1.4802309999999999,-0.0012259999999999999,0.940208
2018-10-15T19:46:16.612130Z,1.8152110000000001,-0.360188,1.057955
2018-10-15T19:46:16.812130Z,1.4714,0.36946,-0.07672999999999999
2018-10-15T19:46:17.012130Z,0.549311,0.9251659999999999,0.358088
2018-10-15T19:46:17.217130Z,-0.203348,-0.083499,1.023325
2018-10-15T19:46:17.405130Z,0.26426900000000003,-1.289048,-0.24017
2018-10-15T19:46:17.683130Z,-0.08226900000000001,0.24302800000000002,-0.742209
2018-10-15T19:46:17.806130Z,-1.4850889999999999,0.021158,1.351656
2018-10-15T19:46:18.010130Z,-1.694323,-2.150052,0.96431
2018-10-15T19:46:18.214130Z,-1.650338,-0.995173,-0.255369
2018-10-15T19:46:18.414130Z,-0.601377,-0.673629,0.43693999999999994
2018-10-15T19:46:18.597130Z,-0.5524600000000001,-1.214056,0.828506
2018-10-15T19:46:18.796130Z,-0.003237,-1.2871299999999999,0.482784
2018-10-15T19:46:19.015130Z,0.614401,-0.456032,-0.47055600000000003
2018-10-15T19:46:19.218130Z,0.763161,0.393096,0.447712
2018-10-15T19:46:19.420130Z,1.805205,-0.755095,0.741865
2018-10-15T19:46:19.597130Z,1.374417,-0.40229000000000004,-0.566675
2018-10-15T19:46:19.795130Z,0.874875,0.008399,-0.256348
2018-10-15T19:46:20.040130Z,0.600521,-0.580038,0.259213
2018-10-15T19:46:20.204130Z,0.955678,-0.287038,-0.7670520000000001
2018-10-15T19:46:20.418130Z,0.654295,0.412675,-0.009852
2018-10-15T19:46:20.614130Z,0.5564439999999999,0.414067,1.234643
2018-10-15T19:46:20.810130Z,1.031061,-0.453734,-1.134141
2018-10-15T19:46:21.008130Z,0.668533,0.31353200000000003,-0.5533100000000001
2018-10-15T19:46:21.216130Z,0.377391,0.5325340000000001,1.588314
2018-10-15T19:46:21.424130Z,-0.101533,-0.683319,0.8758450000000001
2018-10-15T19:46:21.620130Z,0.22255999999999998,0.042637,-0.732176
2018-10-15T19:46:21.821130Z,0.20039400000000002,0.311123,1.024434
2018-10-15T19:46:22.013130Z,0.18783699999999998,-0.646827,1.02645
2018-10-15T19:46:22.215130Z,0.27871399999999996,-0.858865,-1.2229510000000001
2018-10-15T19:46:22.418130Z,-0.886566,-0.11191300000000001,0.543411
2018-10-15T19:46:22.616130Z,-0.922099,-1.05639,0.648917
2018-10-15T19:46:22.818130Z,0.048872000000000006,-1.170447,-0.15123
2018-10-15T19:46:23.023130Z,0.008343000000000001,-0.529834,-0.26657600000000004
2018-10-15T19:46:23.225130Z,0.838412,-0.02001,0.8669370000000001
2018-10-15T19:46:23.400130Z,1.2798370000000001,-0.514904,0.218131
2018-10-15T19:46:23.663130Z,1.100156,-0.135237,-0.7444270000000001
2018-10-15T19:46:23.810130Z,1.130994,0.6494439999999999,-0.17438599999999999
2018-10-15T19:46:24.048130Z,1.4842879999999998,-0.776317,0.538445
2018-10-15T19:46:24.216130Z,1.2709840000000001,-0.119144,-0.366361
2018-10-15T19:46:24.411130Z,0.706518,0.363325,-0.399066
2018-10-15T19:46:24.611130Z,0.48401000000000005,0.805227,0.484696
2018-10-15T19:46:24.816130Z,1.05405,-0.354692,-0.252668
2018-10-15T19:46:25.020130Z,0.429571,0.127924,-0.75303
2018-10-15T19:46:25.222130Z,0.07120499999999999,0.643213,0.819356
2018-10-15T19:46:25.444130Z,-0.176208,-0.263669,1.1003479999999999
2018-10-15T19:46:25.604130Z,0.25211,-0.7187640000000001,-0.880857
2018-10-15T19:46:25.817130Z,0.14587999999999998,0.140647,-0.178333
2018-10-15T19:46:26.011130Z,0.9974700000000001,0.601644,0.908434
2018-10-15T19:46:26.220130Z,2.5013520000000002,-0.813074,2.4944290000000002
2018-10-15T19:46:26.420130Z,1.785636,-1.302836,-0.276962
2018-10-15T19:46:26.620130Z,0.999302,-0.292018,0.5014930000000001
2018-10-15T19:46:26.802130Z,0.18515399999999999,-0.8346819999999999,1.392364
2018-10-15T19:46:27.003130Z,-0.035212,-1.8419020000000002,0.38424899999999995
2018-10-15T19:46:27.200130Z,-0.126185,-0.18138800000000002,-0.6997140000000001
2018-10-15T19:46:27.423130Z,0.15291300000000002,0.710846,0.7618119999999999
2018-10-15T19:46:27.618130Z,0.00634,-1.0631549999999999,1.3657540000000001
2018-10-15T19:46:27.813130Z,0.251224,-1.274857,-0.385527
2018-10-15T19:46:28.017130Z,-0.10413499999999999,0.233415,0.46737
2018-10-15T19:46:28.218130Z,-0.431295,-0.508628,1.361911
2018-10-15T19:46:28.420130Z,-0.489054,-1.386366,-0.076287
2018-10-15T19:46:28.636130Z,0.241171,-1.375613,-0.8369979999999999
2018-10-15T19:46:28.823130Z,-0.204042,0.451618,1.1173600000000001
2018-10-15T19:46:29.020130Z,0.634236,-1.046137,0.587039
2018-10-15T19:46:29.216130Z,1.287725,-1.000865,-0.933629
2018-10-15T19:46:29.418130Z,0.038725,0.093612,-0.424573
2018-10-15T19:46:29.619130Z,0.039004000000000004,-0.552882,0.480526
2018-10-15T19:46:29.804130Z,-0.19109500000000001,-1.351129,-0.314222
2018-10-15T19:46:30.028130Z,0.056344000000000005,-0.690088,-0.32619000000000004
2018-10-15T19:46:30.203130Z,-0.43138999999999994,0.088155,-0.308696
2018-10-15T19:46:30.419130Z,-1.7627950000000001,-1.670475,1.255262
2018-10-15T19:46:30.620130Z,-1.37646,-0.9266790000000001,0.186971
2018-10-15T19:46:30.803130Z,-0.706874,-0.459897,-0.44920699999999997
2018-10-15T19:46:31.020130Z,0.077198,-0.648117,0.933559
2018-10-15T19:46:31.229130Z,-0.11781900000000001,-0.980189,-0.180693
2018-10-15T19:46:31.422130Z,0.358887,0.325748,-0.201812
2018-10-15T19:46:31.605130Z,0.8613540000000001,0.8595510000000001,0.26610700000000004
2018-10-15T19:46:31.828130Z,1.103191,0.19834200000000002,1.2962209999999998
2018-10-15T19:46:32.006130Z,0.876862,-0.860284,-1.010786
2018-10-15T19:46:32.218130Z,0.809693,-0.108457,-0.7316630000000001
2018-10-15T19:46:32.423130Z,0.662201,0.9591649999999999,0.180777
2018-10-15T19:46:32.605130Z,0.554663,0.333208,0.981452
2018-10-15T19:46:32.819130Z,0.9038459999999999,-1.0051729999999999,-0.512729
2018-10-15T19:46:33.077130Z,0.905792,0.237289,-0.395337
2018-10-15T19:46:33.219130Z,0.732222,0.830623,1.372681
2018-10-15T19:46:33.431130Z,1.140795,-0.731631,1.041747
2018-10-15T19:46:33.606130Z,0.960808,-0.524047,-0.8536739999999999
2018-10-15T19:46:33.869130Z,0.983733,-0.068624,0.24861100000000003
2018-10-15T19:46:34.047130Z,1.059519,0.917703,0.525252
2018-10-15T19:46:34.251130Z,0.057608000000000006,-1.240192,0.984442
2018-10-15T19:46:34.450130Z,0.6575840000000001,-0.052992,-0.348771
2018-10-15T19:46:34.609130Z,0.540974,0.560167,0.079416
2018-10-15T19:46:34.846130Z,-0.017856,0.044427999999999995,0.810499
2018-10-15T19:46:35.050130Z,-0.125578,-0.777532,0.065991
2018-10-15T19:46:35.248130Z,-0.354142,-0.49643000000000004,-0.059916
2018-10-15T19:46:35.477130Z,-0.808759,-0.330966,0.467175
2018-10-15T19:46:35.618130Z,-0.49374300000000004,-0.454642,0.091805
2018-10-15T19:46:35.823130Z,-1.0732389999999998,-0.9050809999999999,0.142975
2018-10-15T19:46:36.019130Z,-0.892183,-0.485306,0.163363
2018-10-15T19:46:36.225130Z,0.099084,-0.32909,0.23449299999999998
2018-10-15T19:46:36.422130Z,0.8038770000000001,-0.006654,0.42230500000000004
2018-10-15T19:46:36.625130Z,1.124636,-0.465132,0.347683
2018-10-15T19:46:36.824130Z,1.093812,0.353613,-0.48549899999999996
2018-10-15T19:46:37.026130Z,0.9646899999999999,0.8451209999999999,0.399654
2018-10-15T19:46:37.224130Z,0.255581,0.158273,0.754807
2018-10-15T19:46:37.422130Z,0.340618,-0.8760549999999999,-0.561679
2018-10-15T19:46:37.623130Z,0.52344,0.526488,-0.267761
2018-10-15T19:46:37.828130Z,0.664037,0.495781,0.9200280000000001
2018-10-15T19:46:38.029130Z,1.467336,-0.745747,0.950076
2018-10-15T19:46:38.225130Z,1.026691,-0.8168979999999999,-0.732846
2018-10-15T19:46:38.420130Z,1.255347,0.6372720000000001,0.42116800000000004
2018-10-15T19:46:38.628130Z,1.2813809999999999,-0.8106760000000001,1.8530240000000002
2018-10-15T19:46:38.823130Z,1.3771120000000001,-1.213432,0.27289800000000003
2018-10-15T19:46:39.029130Z,1.39395,-0.292005,-0.38161999999999996
2018-10-15T19:46:39.210130Z,0.25245100000000004,-0.322886,0.628328
2018-10-15T19:46:39.422130Z,0.083219,-1.28413,0.443438
2018-10-15T19:46:39.631130Z,0.461125,-0.746897,-0.805946
2018-10-15T19:46:39.812130Z,0.5051140000000001,-0.598163,0.5348189999999999
2018-10-15T19:46:40.019130Z,-0.053513,-0.8069430000000001,0.834468
2018-10-15T19:46:40.255130Z,0.021524,-1.222126,-0.331662
2018-10-15T19:46:40.425130Z,0.341777,-0.593827,0.10547999999999999
2018-10-15T19:46:40.611130Z,0.362914,-0.563588,1.219545
2018-10-15T19:46:40.811130Z,1.042059,-1.297479,-0.146983
2018-10-15T19:46:41.032130Z,0.690183,-0.703264,0.262376
2018-10-15T19:46:41.233130Z,0.576599,0.18618800000000002,0.610937
2018-10-15T19:46:41.434130Z,0.072306,0.020291999999999998,0.5159159999999999
2018-10-15T19:46:41.627130Z,0.176063,-1.5719969999999999,-0.812286
2018-10-15T19:46:41.836130Z,0.091602,-0.432978,0.190545
2018-10-15T19:46:42.029130Z,-0.225762,-0.217065,0.707803
2018-10-15T19:46:42.229130Z,-0.041017000000000005,-0.11609000000000001,0.496296
2018-10-15T19:46:42.430130Z,0.061565999999999996,-1.153848,-0.177298
2018-10-15T19:46:42.637130Z,0.24067800000000003,-0.45246899999999995,-0.11264300000000001
2018-10-15T19:46:42.833130Z,-0.261108,0.45735,0.5119020000000001
2018-10-15T19:46:43.033130Z,0.132806,-0.442528,0.9859389999999999
2018-10-15T19:46:43.214130Z,-0.028562999999999998,-1.275501,-0.473236
2018-10-15T19:46:43.473130Z,-0.207968,-0.41225600000000007,-0.285575
2018-10-15T19:46:43.616130Z,-0.834614,0.18831900000000001,1.106895
2018-10-15T19:46:43.840130Z,-1.2388860000000002,-1.450817,0.97326
2018-10-15T19:46:44.013130Z,-1.055053,-1.185441,-0.14243699999999998
2018-10-15T19:46:44.213130Z,-0.37006500000000003,-0.578341,0.20023
2018-10-15T19:46:44.432130Z,0.24443600000000001,-0.0036009999999999996,0.6561640000000001
2018-10-15T19:46:44.632130Z,0.432303,-0.715737,1.040176
2018-10-15T19:46:44.815130Z,0.561503,-0.33025,-0.7097399999999999
2018-10-15T19:46:45.014130Z,0.36699499999999996,0.326293,0.21553699999999998
2018-10-15T19:46:45.235130Z,0.214094,0.41340200000000005,0.454329
2018-10-15T19:46:45.433130Z,0.789378,-0.726985,0.736334
2018-10-15T19:46:45.640130Z,0.12336400000000002,-0.011594,-0.8056399999999999
2018-10-15T19:46:45.833130Z,-0.681087,0.23269,0.562684
2018-10-15T19:46:46.026130Z,-1.779404,-1.042799,0.999057
2018-10-15T19:46:46.232130Z,-1.0738459999999999,-1.671054,-0.508088
2018-10-15T19:46:46.431130Z,0.248723,-0.405196,0.356767
2018-10-15T19:46:46.617130Z,0.944743,0.151341,0.184607
2018-10-15T19:46:46.838130Z,0.703024,0.157621,0.936602
2018-10-15T19:46:47.109130Z,1.1049209999999998,-0.990866,-0.086976
2018-10-15T19:46:47.225130Z,1.608574,0.22529200000000002,0.399127
2018-10-15T19:46:47.434130Z,1.437345,0.051635,0.715739
2018-10-15T19:46:47.635130Z,3.0692009999999996,-1.219355,0.5530010000000001
2018-10-15T19:46:47.828130Z,2.3803799999999997,-0.984439,0.35311
2018-10-15T19:46:48.031130Z,0.10105,0.054314,-0.160994
2018-10-15T19:46:48.238130Z,0.11028900000000001,0.17511500000000002,0.603992
2018-10-15T19:46:48.416130Z,0.530799,-1.482376,0.9183540000000001
2018-10-15T19:46:48.638130Z,0.46822600000000003,-0.676226,-0.890497
2018-10-15T19:46:48.836130Z,-0.127114,0.812182,0.33153299999999997
2018-10-15T19:46:49.087130Z,-0.196734,0.000967,0.69545
2018-10-15T19:46:49.217130Z,-0.8308559999999999,-1.274475,-0.055573000000000004
2018-10-15T19:46:49.438130Z,-0.551333,-1.069107,-0.833644
2018-10-15T19:46:49.617130Z,-0.543223,0.647613,0.632703
2018-10-15T19:46:49.833130Z,0.108723,-0.07888400000000001,0.432316
2018-10-15T19:46:50.019130Z,0.836609,-1.20444,-0.238015
2018-10-15T19:46:50.237130Z,0.103003,-0.199466,-0.777813
2018-10-15T19:46:50.450130Z,0.079291,0.628767,0.6666489999999999
2018-10-15T19:46:50.618130Z,-0.387292,-1.0889309999999999,-0.048145
2018-10-15T19:46:50.817130Z,0.06550399999999999,-0.531107,-0.664143
2018-10-15T19:46:51.037130Z,-0.097478,0.424749,-0.324375
2018-10-15T19:46:51.229130Z,0.31147600000000003,-0.022659000000000002,0.5106350000000001
2018-10-15T19:46:51.418130Z,0.304374,-0.886223,-0.029722000000000002
2018-10-15T19:46:51.639130Z,0.15756199999999998,-0.518004,-0.844241
2018-10-15T19:46:51.820130Z,0.12125799999999999,0.413574,-0.056808000000000004
2018-10-15T19:46:52.115130Z,0.021678,-0.657507,-0.42112799999999995
2018-10-15T19:46:52.229130Z,-0.381239,-0.670846,-0.108063
2018-10-15T19:46:52.419130Z,-0.156219,0.417745,-0.545901
2018-10-15T19:46:52.620130Z,-0.193679,0.552308,1.041718
2018-10-15T19:46:52.839130Z,0.355819,-0.8814860000000001,-0.355486
2018-10-15T19:46:53.040130Z,0.061867,-0.0018899999999999998,-0.6994130000000001
2018-10-15T19:46:53.235130Z,-0.438359,0.43285,0.427519
2018-10-15T19:46:53.442130Z,-0.740147,0.044478,0.978189
2018-10-15T19:46:53.636130Z,-1.349596,-0.752496,-0.18520999999999999
2018-10-15T19:46:53.839130Z,-0.97305,-0.20448,-0.039847
2018-10-15T19:46:54.036130Z,-0.742233,-0.187911,0.7924720000000001
2018-10-15T19:46:54.236130Z,-0.150472,-0.7357520000000001,0.581987
2018-10-15T19:46:54.442130Z,0.6089220000000001,0.245772,-0.29502399999999995
2018-10-15T19:46:54.642130Z,0.632488,1.02514,0.5818979999999999
2018-10-15T19:46:54.837130Z,0.700642,0.592896,0.547603
2018-10-15T19:46:55.039130Z,0.39158000000000004,-1.220791,0.045357
2018-10-15T19:46:55.238130Z,1.04284,0.835675,-0.056763
2018-10-15T19:46:55.440130Z,0.5082439999999999,0.644675,1.582496
2018-10-15T19:46:55.643130Z,0.856001,-1.202817,-0.301719
2018-10-15T19:46:55.821130Z,0.711835,-0.628944,-0.8922469999999999
2018-10-15T19:46:56.021130Z,0.622862,0.797504,0.951032
2018-10-15T19:46:56.250130Z,0.295222,-0.714803,0.52156
2018-10-15T19:46:56.444130Z,0.41218699999999997,-0.9179360000000001,-0.34823200000000004
2018-10-15T19:46:56.634130Z,0.457978,0.368381,-0.9328549999999999
2018-10-15T19:46:56.844130Z,1.062759,0.068471,0.995625
2018-10-15T19:46:57.080130Z,0.847139,-1.016793,-0.8147
2018-10-15T19:46:57.230130Z,0.56888,-0.022364,-0.863399
2018-10-15T19:46:57.434130Z,0.394801,0.9266629999999999,0.056470000000000006
2018-10-15T19:46:57.639130Z,0.221971,-0.798992,0.701597
2018-10-15T19:46:57.839130Z,0.182818,-0.698144,-0.7086600000000001
2018-10-15T19:46:58.042130Z,0.190744,0.40924499999999997,-0.654633
2018-10-15T19:46:58.247130Z,0.366219,0.807129,0.418551
2018-10-15T19:46:58.444130Z,0.5759270000000001,-0.654754,-0.182363
2018-10-15T19:46:58.647130Z,0.653821,-0.174938,-0.9854709999999999
2018-10-15T19:46:58.841130Z,0.289871,0.587933,0.245338
2018-10-15T19:46:59.046130Z,-0.24589,0.361181,1.487838
2018-10-15T19:46:59.225130Z,-0.103862,-0.589232,-1.102411
2018-10-15T19:46:59.437130Z,-0.114896,0.635409,-0.305396
2018-10-15T19:46:59.641130Z,-0.185494,0.860505,0.787148
2018-10-15T19:46:59.844130Z,0.666044,-0.801613,0.8302799999999999
2018-10-15T19:47:00.041130Z,0.457945,0.30929,-0.825313
2018-10-15T19:47:00.247130Z,0.23223400000000002,0.901183,0.182949
2018-10-15T19:47:00.444130Z,-0.222061,0.642918,1.046427
2018-10-15T19:47:00.644130Z,0.553856,-1.396984,0.7292390000000001
2018-10-15T19:47:00.861130Z,-0.149108,0.115319,-0.8465809999999999
2018-10-15T19:47:01.027130Z,-1.175828,0.9400229999999999,0.806254
2018-10-15T19:47:01.229130Z,-1.078617,-0.9755309999999999,0.8839530000000001
2018-10-15T19:47:01.462130Z,-1.0400340000000001,-1.545266,-0.579329
2018-10-15T19:47:01.666130Z,0.47847700000000004,0.094828,0.427654
2018-10-15T19:47:01.867130Z,0.609876,1.047871,0.921392
2018-10-15T19:47:02.071130Z,0.6885680000000001,-0.201167,1.019359
2018-10-15T19:47:02.266130Z,1.299194,-1.80182,0.034948
2018-10-15T19:47:02.483130Z,0.075701,0.280455,0.194097
2018-10-15T19:47:02.665130Z,-0.21394899999999997,0.268944,0.47337399999999996
2018-10-15T19:47:02.829130Z,-0.327918,-1.5822049999999999,0.677138
2018-10-15T19:47:03.066130Z,-0.7718510000000001,-1.579618,-0.177752
2018-10-15T19:47:03.236130Z,0.341706,-0.597353,0.202517
2018-10-15T19:47:03.443130Z,0.7484649999999999,0.498309,0.22318600000000002
2018-10-15T19:47:03.644130Z,1.203465,-0.33132,1.757409
2018-10-15T19:47:03.850130Z,0.774673,-1.7528810000000001,0.153816
2018-10-15T19:47:04.049130Z,0.805872,-0.13367300000000001,0.24426900000000001
2018-10-15T19:47:04.246130Z,0.596114,0.118399,0.342319
2018-10-15T19:47:04.445130Z,0.9433360000000001,-0.196699,1.008031
2018-10-15T19:47:04.641130Z,1.5024600000000001,-1.297428,0.112175
2018-10-15T19:47:04.844130Z,0.9442440000000001,0.381389,-0.035779000000000005
2018-10-15T19:47:05.044130Z,0.558128,0.674139,0.9016200000000001
2018-10-15T19:47:05.245130Z,-0.196979,-1.41046,0.908667
2018-10-15T19:47:05.443130Z,0.843325,-1.304745,-0.637542
2018-10-15T19:47:05.669130Z,1.123883,-0.385869,0.667534
2018-10-15T19:47:05.829130Z,1.1835,-0.999402,0.597124
2018-10-15T19:47:06.043130Z,0.9128930000000001,-1.2790549999999998,0.423692
2018-10-15T19:47:06.230130Z,0.530828,-1.071775,0.27913699999999997
2018-10-15T19:47:06.450130Z,0.039592,-0.381678,0.296268
2018-10-15T19:47:06.642130Z,0.5865640000000001,-0.42504,-0.000346
2018-10-15T19:47:06.848130Z,0.695802,-0.201031,-0.39136
2018-10-15T19:47:07.046130Z,0.20405,0.13610999999999998,0.15731099999999998
2018-10-15T19:47:07.249130Z,1.37919,-0.49826000000000004,0.129636
2018-10-15T19:47:07.453130Z,0.701205,-0.083,-0.071086
2018-10-15T19:47:07.650130Z,-0.6883020000000001,0.563786,-0.899415
2018-10-15T19:47:07.850130Z,-0.577808,0.357191,0.506509
2018-10-15T19:47:08.052130Z,0.99408,-1.114982,1.6439270000000001
2018-10-15T19:47:08.254130Z,-0.121233,-0.55908,0.078401
2018-10-15T19:47:08.452130Z,-1.035533,-0.101891,-0.8089689999999999
2018-10-15T19:47:08.651130Z,-0.600715,-1.166269,0.369147
2018-10-15T19:47:08.852130Z,-1.861922,-1.809337,-0.7272029999999999
2018-10-15T19:47:09.054130Z,-1.2619280000000002,-0.8809299999999999,0.532293
2018-10-15T19:47:09.251130Z,-0.6635770000000001,-0.623865,0.509845
2018-10-15T19:47:09.454130Z,-0.5887640000000001,0.045727,-0.443779
2018-10-15T19:47:09.657130Z,0.181436,0.674908,-0.603916
2018-10-15T19:47:09.834130Z,0.356401,0.992714,0.128342
2018-10-15T19:47:10.054130Z,0.435909,-0.190814,0.175488
2018-10-15T19:47:10.256130Z,1.605083,-0.703652,1.182695
2018-10-15T19:47:10.455130Z,0.8483440000000001,0.406812,-0.228282
2018-10-15T19:47:10.665130Z,1.122718,0.9040959999999999,0.1523
2018-10-15T19:47:10.862130Z,0.724124,0.463962,1.120792
2018-10-15T19:47:11.052130Z,0.393106,-1.156658,0.51827
2018-10-15T19:47:11.234130Z,1.9023880000000002,-0.716433,0.189496
2018-10-15T19:47:11.444130Z,1.501997,-0.696006,0.8888950000000001
2018-10-15T19:47:11.654130Z,0.653189,-1.195437,0.118506
2018-10-15T19:47:11.855130Z,0.721852,-0.857384,-0.087827
2018-10-15T19:47:12.053130Z,-0.28125700000000003,-0.006301,1.2993649999999999
2018-10-15T19:47:12.250130Z,-0.07015199999999999,-1.6570470000000002,0.044412
2018-10-15T19:47:12.485130Z,0.731052,-1.201393,-0.624416
2018-10-15T19:47:12.651130Z,0.5029100000000001,-0.484097,0.836384
2018-10-15T19:47:12.842130Z,1.3769870000000002,-1.7343549999999999,0.929693
2018-10-15T19:47:13.049130Z,1.137545,-1.721338,-0.371952
2018-10-15T19:47:13.235130Z,1.480988,-0.5325310000000001,0.134953
2018-10-15T19:47:13.451130Z,-0.38600500000000004,-0.43142299999999995,1.9215200000000001
2018-10-15T19:47:13.723130Z,-0.25648200000000004,-1.7200229999999999,-0.636013
2018-10-15T19:47:13.851130Z,-0.293088,-0.333215,-0.34778600000000004
2018-10-15T19:47:14.053130Z,-0.273701,0.278287,0.774176
2018-10-15T19:47:14.261130Z,0.146025,-0.724635,1.773468
2018-10-15T19:47:14.452130Z,0.208135,-1.094739,-1.419891
2018-10-15T19:47:14.653130Z,0.177268,-0.087001,0.734258
2018-10-15T19:47:14.857130Z,0.091136,0.08795900000000001,1.687432
2018-10-15T19:47:15.057130Z,-0.5070640000000001,-1.933097,0.8868729999999999
2018-10-15T19:47:15.288130Z,-0.137132,-0.38624899999999995,-0.813501
2018-10-15T19:47:15.451130Z,-1.2953649999999999,0.527003,1.231507
2018-10-15T19:47:15.650130Z,-1.866997,-2.0595060000000003,0.893056
2018-10-15T19:47:15.849130Z,-2.140638,-2.557938,0.303869
2018-10-15T19:47:16.051130Z,0.0014349999999999999,-1.4060059999999999,0.385375
2018-10-15T19:47:16.255130Z,0.107396,-0.615175,0.918175
2018-10-15T19:47:16.457130Z,-0.18518900000000002,-0.947147,0.7222930000000001
2018-10-15T19:47:16.657130Z,0.537991,-0.8722799999999999,-0.33664099999999997
2018-10-15T19:47:16.857130Z,0.29042199999999996,0.621466,0.472699
2018-10-15T19:47:17.059130Z,1.43782,-0.271791,1.226711
2018-10-15T19:47:17.296130Z,1.645029,-0.827625,-0.5693779999999999
2018-10-15T19:47:17.450130Z,0.835722,0.129435,-0.41589499999999996
2018-10-15T19:47:17.673130Z,1.425319,-0.46886099999999997,1.12555
2018-10-15T19:47:17.852130Z,1.2482659999999999,-0.596642,-0.869941
2018-10-15T19:47:18.053130Z,0.46651800000000004,0.270872,-0.28952100000000003
2018-10-15T19:47:18.261130Z,0.033772,0.40489899999999995,1.227838
2018-10-15T19:47:18.438130Z,0.8033710000000001,-0.8559979999999999,-0.72477
2018-10-15T19:47:18.659130Z,0.568144,0.291105,-0.7404029999999999
2018-10-15T19:47:18.858130Z,-0.058958,0.7046359999999999,1.004359
2018-10-15T19:47:19.050130Z,-0.434758,-0.5169729999999999,1.6240370000000002
2018-10-15T19:47:19.256130Z,-0.257945,-0.398008,-0.9574360000000001
2018-10-15T19:47:19.439130Z,-0.385227,0.640548,-0.084616
2018-10-15T19:47:19.655130Z,-0.082326,0.408337,0.739858
2018-10-15T19:47:19.839130Z,0.138287,-0.7935409999999999,0.062127999999999996
2018-10-15T19:47:20.054130Z,0.2299,0.454978,-0.40702699999999997
2018-10-15T19:47:20.255130Z,0.06776499999999999,0.617521,0.737541
2018-10-15T19:47:20.457130Z,-0.30035500000000004,-0.580188,1.149642
2018-10-15T19:47:20.710130Z,0.819298,-1.1069200000000001,-1.104869
2018-10-15T19:47:20.857130Z,0.06845599999999999,0.6251800000000001,-0.29306
2018-10-15T19:47:21.056130Z,0.310238,0.11115499999999999,0.9487260000000001
2018-10-15T19:47:21.252130Z,0.219619,-1.070913,-0.49533299999999997
2018-10-15T19:47:21.457130Z,-0.187088,-0.25387600000000005,-1.485682
2018-10-15T19:47:21.656130Z,-0.42002399999999995,1.198335,0.970093
2018-10-15T19:47:21.864130Z,-0.089982,-0.8499709999999999,0.7790239999999999
2018-10-15T19:47:22.052130Z,0.403053,-1.38893,-1.0964399999999999
2018-10-15T19:47:22.265130Z,-0.062314,-0.031167,-1.320858
2018-10-15T19:47:22.457130Z,0.093336,-0.016719,1.3853659999999999
2018-10-15T19:47:22.646130Z,0.693902,-0.915693,-0.383779
2018-10-15T19:47:22.848130Z,0.010588,-0.266425,-1.4365569999999999
2018-10-15T19:47:23.056130Z,-0.27166999999999997,0.668254,0.34268200000000004
2018-10-15T19:47:23.264130Z,-0.388395,-0.580671,0.298213
2018-10-15T19:47:23.443130Z,-0.082594,-0.998286,-1.078352
2018-10-15T19:47:23.664130Z,0.011585,0.370446,0.19311
2018-10-15T19:47:23.843130Z,-0.227136,0.636167,0.784764
2018-10-15T19:47:24.058130Z,0.48666000000000004,-0.819751,-0.652957
2018-10-15T19:47:24.259130Z,0.028554000000000003,0.091257,-0.646729
2018-10-15T19:47:24.459130Z,0.559507,1.274635,0.316071
2018-10-15T19:47:24.656130Z,-0.316157,0.221232,1.354675
2018-10-15T19:47:24.858130Z,-0.035472000000000004,-0.6766840000000001,-1.149364
2018-10-15T19:47:25.064130Z,-0.299849,0.8566379999999999,0.060247
2018-10-15T19:47:25.260130Z,0.011578,0.8866459999999999,0.9445709999999999
2018-10-15T19:47:25.465130Z,0.714055,-0.8505360000000001,1.108784
2018-10-15T19:47:25.655130Z,0.374748,-0.160744,-1.079688
2018-10-15T19:47:25.863130Z,-0.196027,0.792924,0.739334
2018-10-15T19:47:26.062130Z,-0.342998,0.070963,1.0509469999999999
2018-10-15T19:47:26.256130Z,-0.007431999999999999,-0.9222469999999999,-0.745855
2018-10-15T19:47:26.466130Z,0.052596000000000004,0.9068879999999999,0.179169
2018-10-15T19:47:26.666130Z,0.00506,0.311971,1.642275
2018-10-15T19:47:26.856130Z,0.316938,-1.20004,-0.11719700000000001
2018-10-15T19:47:27.059130Z,-0.141221,-0.792824,-1.4786190000000001
2018-10-15T19:47:27.260130Z,-0.615132,1.0907440000000002,0.775147
2018-10-15T19:47:27.462130Z,-0.623844,-0.864318,0.623228
2018-10-15T19:47:27.645130Z,-0.07006799999999999,-1.1261370000000002,-0.9493280000000001
2018-10-15T19:47:27.865130Z,-0.116299,0.190916,-0.946133
2018-10-15T19:47:28.067130Z,0.032228,0.12378399999999999,1.325259
2018-10-15T19:47:28.259130Z,0.264585,-1.247156,-0.8456229999999999
2018-10-15T19:47:28.455130Z,-0.5558270000000001,-0.047931,-1.507603
2018-10-15T19:47:28.662130Z,-1.104367,0.740352,0.44154499999999997
2018-10-15T19:47:28.861130Z,-1.2973350000000001,-1.2409299999999999,-0.166759
2018-10-15T19:47:29.061130Z,-0.435192,-0.746256,-0.507179
2018-10-15T19:47:29.247130Z,-0.305502,0.40465500000000004,0.198524
2018-10-15T19:47:29.467130Z,0.517083,0.597063,1.00326
2018-10-15T19:47:29.662130Z,0.811275,-0.691084,-1.2937299999999998
2018-10-15T19:47:29.856130Z,0.534454,0.41986599999999996,-0.20453
2018-10-15T19:47:30.049130Z,0.262764,1.058663,0.902359
2018-10-15T19:47:30.246130Z,-0.39150799999999997,-0.377715,0.743129
2018-10-15T19:47:30.463130Z,0.327344,0.08355599999999999,-0.7428939999999999
2018-10-15T19:47:30.667130Z,0.272748,0.636189,1.10771
2018-10-15T19:47:30.848130Z,1.208356,0.211222,1.4119540000000002
2018-10-15T19:47:31.069130Z,1.467171,-1.058589,-0.318837
2018-10-15T19:47:31.260130Z,0.456845,0.780752,-0.320642
2018-10-15T19:47:31.464130Z,0.466988,0.731916,0.944649
2018-10-15T19:47:31.648130Z,0.164785,-0.861073,0.774633
2018-10-15T19:47:31.865130Z,0.798874,-0.7565069999999999,-0.9419059999999999
2018-10-15T19:47:32.063130Z,0.280823,0.541667,1.1540979999999998
2018-10-15T19:47:32.275130Z,0.82688,-0.6600550000000001,0.6474489999999999
2018-10-15T19:47:32.460130Z,0.8768309999999999,-0.724264,-1.0628520000000001
2018-10-15T19:47:32.669130Z,0.577246,0.16552,0.14751199999999998
2018-10-15T19:47:32.898130Z,-0.154316,-0.44493299999999997,0.9664299999999999
2018-10-15T19:47:33.126130Z,0.783668,-0.797467,-1.215367
2018-10-15T19:47:33.308130Z,0.599102,0.346513,-0.500682
2018-10-15T19:47:33.490130Z,0.616831,0.813157,0.44768
2018-10-15T19:47:33.689130Z,1.23489,-1.0204010000000001,-0.264426
2018-10-15T19:47:33.849130Z,0.677616,-0.32197,-1.260788
2018-10-15T19:47:34.103130Z,0.18352000000000002,0.770051,0.7013010000000001
2018-10-15T19:47:34.250130Z,-0.342577,0.47979700000000003,1.522307
2018-10-15T19:47:34.492130Z,0.097124,-0.979295,-0.46088900000000005
2018-10-15T19:47:34.692130Z,0.22567199999999998,0.23272800000000002,-0.44991499999999995
2018-10-15T19:47:34.892130Z,0.150774,0.665758,1.018516
2018-10-15T19:47:35.087130Z,0.754475,-0.734046,1.069806
2018-10-15T19:47:35.301130Z,1.464097,-0.8141619999999999,-0.303575
2018-10-15T19:47:35.487130Z,1.808774,0.047218,0.8297690000000001
2018-10-15T19:47:35.695130Z,0.7465930000000001,-0.046479,1.006031
2018-10-15T19:47:35.893130Z,0.448142,-1.710698,0.503069
2018-10-15T19:47:36.052130Z,0.187975,-0.314409,-0.23078400000000002
2018-10-15T19:47:36.294130Z,0.29096700000000003,0.192899,0.7607079999999999
2018-10-15T19:47:36.485130Z,1.247068,-0.152479,2.437468
2018-10-15T19:47:36.671130Z,1.081568,-2.813439,0.10728399999999999
2018-10-15T19:47:36.873130Z,0.945997,-0.406588,0.742
2018-10-15T19:47:37.067130Z,-0.371665,-0.579712,1.781251
2018-10-15T19:47:37.268130Z,-1.004653,-1.964056,0.18778599999999998
2018-10-15T19:47:37.467130Z,0.193147,-1.54892,-0.549392
2018-10-15T19:47:37.668130Z,0.362617,-0.068303,0.96215
2018-10-15T19:47:37.868130Z,0.196793,-0.8514280000000001,0.774416
2018-10-15T19:47:38.141130Z,0.7018840000000001,-0.822526,-0.788841
2018-10-15T19:47:38.263130Z,0.078217,-0.13693,-0.183231
2018-10-15T19:47:38.469130Z,-0.530105,-1.2704440000000001,0.558177
2018-10-15T19:47:38.653130Z,0.716058,-1.254298,-0.059399
2018-10-15T19:47:38.868130Z,-0.9740340000000001,-1.048682,0.34164
2018-10-15T19:47:39.072130Z,-1.039389,-0.006564,0.053536
2018-10-15T19:47:39.274130Z,0.916502,-1.059128,-0.030463
2018-10-15T19:47:39.455130Z,0.8574129999999999,0.057648000000000005,-0.255467
2018-10-15T19:47:39.733130Z,0.8046399999999999,0.512129,0.975211
2018-10-15T19:47:39.853130Z,-1.7503389999999999,-0.372921,1.095601
2018-10-15T19:47:40.057130Z,0.714909,-0.939525,-0.789177
2018-10-15T19:47:40.269130Z,0.173761,0.31458,0.6440130000000001
2018-10-15T19:47:40.472130Z,0.646878,0.044308,1.6742849999999998
2018-10-15T19:47:40.674130Z,0.758252,-1.4307530000000002,-0.035856
2018-10-15T19:47:40.871130Z,0.369886,0.08894500000000001,0.292478
2018-10-15T19:47:41.076130Z,-0.301669,0.196657,1.149199
2018-10-15T19:47:41.273130Z,-0.107499,-0.777505,-0.795229
2018-10-15T19:47:41.482130Z,0.20113499999999998,-0.9240459999999999,-0.244746
2018-10-15T19:47:41.656130Z,-0.132101,0.406994,0.911018
2018-10-15T19:47:41.872130Z,0.22078000000000003,-0.863975,-0.042262
2018-10-15T19:47:42.072130Z,0.334067,-0.46461499999999994,-0.675752
2018-10-15T19:47:42.272130Z,0.153648,-0.118618,0.328883
2018-10-15T19:47:42.457130Z,-1.7089299999999998,-0.724541,0.251393
2018-10-15T19:47:42.671130Z,-0.07169400000000001,-1.044951,-1.241984
2018-10-15T19:47:42.858130Z,-0.837676,0.21684299999999998,-0.222097
2018-10-15T19:47:43.058130Z,-1.42975,0.20364200000000002,0.757494
2018-10-15T19:47:43.274130Z,-0.738689,-1.051767,-0.40624299999999997
2018-10-15T19:47:43.546130Z,0.346157,-0.7156899999999999,-0.534667
2018-10-15T19:47:43.667130Z,0.8842629999999999,1.2883950000000002,-0.020224000000000002
2018-10-15T19:47:43.869130Z,-0.011042,0.43737600000000004,1.893466
2018-10-15T19:47:44.057130Z,0.275879,-1.014716,-0.506877
2018-10-15T19:47:44.273130Z,0.070733,0.009996,-0.17363199999999998
2018-10-15T19:47:44.554130Z,0.793667,0.5832229999999999,0.774071
2018-10-15T19:47:44.668130Z,-0.9777629999999999,-0.30645500000000003,-0.07232999999999999
2018-10-15T19:47:44.877130Z,0.8307,-0.316701,-0.63553
2018-10-15T19:47:45.057130Z,0.611618,1.097803,0.24764699999999998
2018-10-15T19:47:45.273130Z,-0.44574899999999995,0.074804,1.6576810000000002
2018-10-15T19:47:45.478130Z,0.268532,-1.7045560000000002,0.20191199999999998
2018-10-15T19:47:45.675130Z,0.107182,0.296117,0.24704600000000002
2018-10-15T19:47:45.874130Z,-0.12679300000000002,0.12871300000000002,0.34449
2018-10-15T19:47:46.059130Z,0.29779,-0.8200139999999999,0.26207600000000003
2018-10-15T19:47:46.282130Z,0.510545,-0.906375,-0.702728
2018-10-15T19:47:46.473130Z,-0.853241,0.12273599999999998,1.09633
2018-10-15T19:47:46.670130Z,-1.1783629999999998,-0.617408,-0.044832
2018-10-15T19:47:46.879130Z,-1.5192510000000001,-1.398508,-0.6979920000000001
2018-10-15T19:47:47.076130Z,-0.2909,-0.6824720000000001,0.22038600000000003
2018-10-15T19:47:47.273130Z,1.1008440000000002,0.013958000000000002,1.08751
2018-10-15T19:47:47.471130Z,1.729962,-0.364645,0.165711
2018-10-15T19:47:47.691130Z,1.216666,-0.229683,-1.168277
2018-10-15T19:47:47.874130Z,0.37014400000000003,0.9028790000000001,0.19747
2018-10-15T19:47:48.079130Z,0.276754,-1.077705,0.744304
2018-10-15T19:47:48.279130Z,0.631837,-0.887241,-1.056078
2018-10-15T19:47:48.465130Z,0.268687,0.45740200000000003,-0.395286
2018-10-15T19:47:48.677130Z,-0.010595,0.648497,1.218755
2018-10-15T19:47:48.879130Z,0.640076,-1.160714,-0.229796
2018-10-15T19:47:49.062130Z,0.40829,-0.4721,-1.089633
2018-10-15T19:47:49.289130Z,-0.04044,0.481505,-0.012731999999999999
2018-10-15T19:47:49.461130Z,-1.5033969999999999,0.632803,1.732851
2018-10-15T19:47:49.683130Z,-0.158157,-1.192972,-0.630844
2018-10-15T19:47:49.880130Z,-0.04628,0.26810100000000003,0.14543599999999998
2018-10-15T19:47:50.083130Z,0.421368,0.21441,1.269701
2018-10-15T19:47:50.286130Z,0.922451,-0.8518899999999999,0.804046
2018-10-15T19:47:50.479130Z,0.386998,0.186568,-0.331656
2018-10-15T19:47:50.684130Z,0.371448,0.42218,1.316972
2018-10-15T19:47:50.862130Z,0.115382,-0.771482,0.7737569999999999
2018-10-15T19:47:51.079130Z,-0.318395,-1.459171,-0.726509
2018-10-15T19:47:51.278130Z,0.384757,0.276964,0.44696400000000003
2018-10-15T19:47:51.464130Z,0.7856380000000001,0.102226,0.675185
2018-10-15T19:47:51.676130Z,0.49708100000000005,-0.746969,-0.001362
2018-10-15T19:47:51.877130Z,0.33109099999999997,-0.585835,-0.574774
2018-10-15T19:47:52.079130Z,0.428946,0.421587,1.078263
2018-10-15T19:47:52.284130Z,0.11585899999999999,-0.570574,1.034692
2018-10-15T19:47:52.479130Z,0.5794779999999999,-1.07641,-0.5569430000000001
2018-10-15T19:47:52.674130Z,0.954161,0.122358,-1.0801889999999998
2018-10-15T19:47:52.880130Z,1.277366,-0.545934,1.580338
2018-10-15T19:47:53.080130Z,1.321589,-0.852982,-1.131075
2018-10-15T19:47:53.279130Z,0.780111,-0.140249,-0.16911600000000002
2018-10-15T19:47:53.480130Z,0.755371,0.135773,1.042817
2018-10-15T19:47:53.754130Z,0.71965,-0.7399939999999999,-0.621784
2018-10-15T19:47:53.876130Z,0.9908799999999999,-0.19875299999999999,-0.204973
2018-10-15T19:47:54.080130Z,1.048195,-0.362944,1.093269
2018-10-15T19:47:54.281130Z,1.7220229999999999,-0.707912,0.8979159999999999
2018-10-15T19:47:54.482130Z,0.503416,0.013394,-0.6265189999999999
2018-10-15T19:47:54.683130Z,0.225778,0.806678,1.08647
2018-10-15T19:47:54.886130Z,0.817609,-0.6158,1.625599
2018-10-15T19:47:55.078130Z,0.8013779999999999,-1.702711,-0.32853499999999997
2018-10-15T19:47:55.277130Z,0.8263590000000001,-0.093361,0.409974
2018-10-15T19:47:55.483130Z,2.149089,-1.1696540000000002,2.009777
2018-10-15T19:47:55.675130Z,2.169125,-2.651136,0.92624
2018-10-15T19:47:55.882130Z,0.601386,-1.62026,-0.880143
2018-10-15T19:47:56.086130Z,-0.26758699999999996,0.11213,1.7238669999999998
2018-10-15T19:47:56.267130Z,0.79674,-1.519995,0.37243699999999996
2018-10-15T19:47:56.482130Z,0.5254800000000001,-1.0792030000000001,-0.490334
2018-10-15T19:47:56.668130Z,0.45849399999999996,0.014809000000000001,-0.09944800000000001
2018-10-15T19:47:56.886130Z,0.007506999999999999,-1.590843,0.36890300000000004
2018-10-15T19:47:57.108130Z,0.39655100000000004,-1.1774879999999999,-0.15078
2018-10-15T19:47:57.284130Z,0.022926,-0.31290500000000004,-0.587152
2018-10-15T19:47:57.483130Z,0.250228,0.122084,1.007221
2018-10-15T19:47:57.682130Z,-0.110974,-1.310071,-0.370424
2018-10-15T19:47:57.883130Z,-0.191847,-0.49545900000000004,-1.057439
2018-10-15T19:47:58.079130Z,-0.392387,0.344172,0.867331
2018-10-15T19:47:58.285130Z,0.216117,-0.042227999999999995,1.924584
2018-10-15T19:47:58.578130Z,-0.130045,-1.2178120000000001,-1.653831
2018-10-15T19:47:58.681130Z,-0.92135,0.005711,0.7368779999999999
2018-10-15T19:47:58.888130Z,-2.024803,-0.922783,1.5117479999999999
2018-10-15T19:47:59.069130Z,-1.234819,-1.2384899999999999,-0.178221
2018-10-15T19:47:59.284130Z,0.13857,0.321222,0.226475
2018-10-15T19:47:59.486130Z,0.045677999999999996,0.476463,0.27358499999999997
2018-10-15T19:47:59.682130Z,1.0431629999999998,-0.955601,1.305236
2018-10-15T19:47:59.890130Z,0.579962,-0.569433,-0.772896
2018-10-15T19:48:00.085130Z,0.590615,0.5476479999999999,0.21120500000000003
2018-10-15T19:48:00.270130Z,0.256081,-0.6364350000000001,0.62217
2018-10-15T19:48:00.490130Z,-0.128102,-1.250489,-0.15205
2018-10-15T19:48:00.685130Z,-0.20236600000000002,-0.6736880000000001,0.460153
2018-10-15T19:48:00.886130Z,0.1345,-0.14178,0.032605
2018-10-15T19:48:01.083130Z,0.122825,-0.5577409999999999,-0.12117699999999999
2018-10-15T19:48:01.270130Z,-0.47656800000000005,-0.49460600000000005,-0.356123
2018-10-15T19:48:01.471130Z,-0.868401,-0.283942,-0.223825
2018-10-15T19:48:01.692130Z,0.44347,-0.192045,0.490674
2018-10-15T19:48:01.871130Z,0.13142,-0.8106399999999999,0.98816
2018-10-15T19:48:02.121130Z,0.6375609999999999,-0.339606,-0.426717
2018-10-15T19:48:02.286130Z,-0.37943899999999997,-0.716204,0.01061
2018-10-15T19:48:02.523130Z,1.233273,-0.33769499999999997,0.9587959999999999
2018-10-15T19:48:02.687130Z,1.468241,-1.013121,0.031175
2018-10-15T19:48:02.884130Z,0.8259879999999999,-0.37143899999999996,-0.5755060000000001
2018-10-15T19:48:03.088130Z,-0.155667,-0.270467,0.337377
2018-10-15T19:48:03.286130Z,-0.220592,-0.9861040000000001,0.009004999999999999
2018-10-15T19:48:03.472130Z,0.210233,-0.311944,-0.5757329999999999
2018-10-15T19:48:03.711130Z,0.710326,0.374048,0.44380200000000003
2018-10-15T19:48:03.915130Z,0.7852140000000001,0.573045,0.760912
2018-10-15T19:48:04.114130Z,0.9824209999999999,-0.584857,-0.45335200000000003
2018-10-15T19:48:04.310130Z,0.7429100000000001,-0.055489,-0.290487
2018-10-15T19:48:04.516130Z,0.8570459999999999,0.43700900000000004,1.2870139999999999
2018-10-15T19:48:04.714130Z,0.42992700000000006,-0.6344609999999999,1.0546280000000001
2018-10-15T19:48:04.913130Z,1.2422090000000001,-0.5201359999999999,-0.660894
2018-10-15T19:48:05.111130Z,0.555367,0.42740600000000006,1.012262
2018-10-15T19:48:05.309130Z,1.014672,0.23906599999999997,0.6255649999999999
2018-10-15T19:48:05.472130Z,1.52972,-1.424553,0.302614
2018-10-15T19:48:05.736130Z,0.654369,0.944277,-0.100743
2018-10-15T19:48:05.890130Z,0.078152,0.634419,1.219543
2018-10-15T19:48:06.088130Z,0.638575,-1.2579790000000002,0.726658
2018-10-15T19:48:06.293130Z,0.528825,-0.839427,-0.752376
2018-10-15T19:48:06.494130Z,0.018207,0.598314,0.18929
2018-10-15T19:48:06.690130Z,0.041277,-0.091624,1.07217
2018-10-15T19:48:06.874130Z,0.104554,-1.0125629999999999,-0.180553
2018-10-15T19:48:07.075130Z,0.11315599999999999,-0.6784859999999999,-0.847551
2018-10-15T19:48:07.275130Z,-0.45799799999999996,0.694429,0.789489
2018-10-15T19:48:07.493130Z,-0.863339,-0.9403459999999999,0.656734
2018-10-15T19:48:07.695130Z,-0.154455,-0.756467,-0.9896450000000001
2018-10-15T19:48:07.876130Z,0.06963,0.009701999999999999,-0.28497
2018-10-15T19:48:08.075130Z,0.34019499999999997,-0.481771,1.023197
2018-10-15T19:48:08.289130Z,0.513915,-1.125264,-1.05251
2018-10-15T19:48:08.488130Z,0.019663999999999997,0.159206,-1.235487
2018-10-15T19:48:08.675130Z,0.5813520000000001,0.9665100000000001,1.094131
2018-10-15T19:48:08.893130Z,0.274152,-1.220486,-0.297962
2018-10-15T19:48:09.092130Z,0.435151,-0.279413,-0.9616
2018-10-15T19:48:09.297130Z,0.061225999999999996,0.47682299999999994,0.431385
2018-10-15T19:48:09.510130Z,-0.2135,0.636495,1.136662
2018-10-15T19:48:09.686130Z,0.407729,-0.471112,-0.7578060000000001
2018-10-15T19:48:09.896130Z,0.160019,0.192353,-0.089416
2018-10-15T19:48:10.092130Z,-0.138543,0.567905,0.885975
2018-10-15T19:48:10.276130Z,-0.6250020000000001,-0.632119,0.711966
2018-10-15T19:48:10.487130Z,0.034466000000000004,0.101937,-0.30225799999999997
2018-10-15T19:48:10.678130Z,-0.247888,0.43941099999999994,0.344403
2018-10-15T19:48:10.892130Z,0.167725,0.181023,0.9866860000000001
2018-10-15T19:48:11.077130Z,0.109851,-1.032347,0.001754
2018-10-15T19:48:11.289130Z,0.386369,0.200554,-0.49891800000000003
2018-10-15T19:48:11.493130Z,0.194975,0.589792,1.087718
2018-10-15T19:48:11.699130Z,-0.368319,-0.19548900000000002,0.540267
2018-10-15T19:48:11.900130Z,-0.527748,-1.141831,-1.1129120000000001
2018-10-15T19:48:12.095130Z,-0.14463199999999998,0.567713,0.185704
2018-10-15T19:48:12.300130Z,0.049942,0.157568,0.586313
2018-10-15T19:48:12.494130Z,0.805185,-0.905694,0.807181
2018-10-15T19:48:12.695130Z,0.438884,-0.479174,-0.515744
2018-10-15T19:48:12.892130Z,0.24912600000000001,0.6972229999999999,0.41389799999999993
2018-10-15T19:48:13.093130Z,-0.39903299999999997,-0.35481399999999996,0.727241
2018-10-15T19:48:13.289130Z,0.412046,-0.9570190000000001,-0.8294290000000001
2018-10-15T19:48:13.496130Z,0.895854,-0.173707,-0.30333899999999997
2018-10-15T19:48:13.696130Z,0.21515399999999998,0.405665,0.5248510000000001
2018-10-15T19:48:13.895130Z,0.45910100000000004,-1.039033,0.43545
2018-10-15T19:48:14.081130Z,-0.137655,-0.9031309999999999,-0.925161
2018-10-15T19:48:14.301130Z,0.30003,0.08301900000000001,-0.208715
2018-10-15T19:48:14.481130Z,-1.1228209999999998,-1.059607,1.0108709999999999
2018-10-15T19:48:14.680130Z,-0.7651899999999999,-0.9017569999999999,-0.767605
2018-10-15T19:48:14.900130Z,-0.611735,-0.391251,-0.450924
2018-10-15T19:48:15.101130Z,-0.574858,0.17691199999999999,-0.004202
2018-10-15T19:48:15.281130Z,0.42083100000000007,-0.9197379999999999,0.700708
2018-10-15T19:48:15.481130Z,0.148982,-0.636143,-0.274523
2018-10-15T19:48:15.697130Z,0.12056800000000001,-0.073255,-0.164466
2018-10-15T19:48:15.898130Z,0.24180700000000002,0.121348,0.35215
2018-10-15T19:48:16.099130Z,0.146607,-1.218244,-0.048816000000000005
2018-10-15T19:48:16.298130Z,-0.056454,-0.5251819999999999,0.742891
2018-10-15T19:48:16.496130Z,0.26213400000000003,-0.34283,0.417784
2018-10-15T19:48:16.702130Z,-0.18592899999999998,-0.46358999999999995,-0.12429000000000001
2018-10-15T19:48:16.899130Z,-0.12396800000000001,-0.190119,0.41808599999999996
2018-10-15T19:48:17.097130Z,-0.5668,0.08986799999999999,-0.090292
2018-10-15T19:48:17.282130Z,-0.8045680000000001,-0.33308000000000004,0.143842
2018-10-15T19:48:17.501130Z,-0.509373,-0.175859,-0.026139
2018-10-15T19:48:17.698130Z,-1.70935,-0.541287,0.521293
2018-10-15T19:48:17.883130Z,-0.945249,-1.266083,0.219707
2018-10-15T19:48:18.103130Z,0.17481300000000002,-0.709408,0.468645
2018-10-15T19:48:18.304130Z,0.670673,-0.9990540000000001,0.384336
2018-10-15T19:48:18.504130Z,1.608536,0.753637,-0.011539
2018-10-15T19:48:18.684130Z,0.9195989999999999,0.474438,0.90381
2018-10-15T19:48:18.900130Z,0.84503,0.099008,-0.283943
2018-10-15T19:48:19.153130Z,0.9780549999999999,-0.7018220000000001,-0.650349
2018-10-15T19:48:19.298130Z,0.943825,0.45981700000000003,1.062675
2018-10-15T19:48:19.534130Z,1.042959,-0.21318099999999998,0.564131
2018-10-15T19:48:19.729130Z,1.0202719999999998,-0.460633,-0.138099
2018-10-15T19:48:19.898130Z,1.174819,-0.094409,-0.500812
2018-10-15T19:48:20.085130Z,0.685833,-0.462775,0.9089079999999999
2018-10-15T19:48:20.341130Z,1.356911,-0.903214,-0.205614
2018-10-15T19:48:20.502130Z,2.02469,-0.668732,0.735388
2018-10-15T19:48:20.715130Z,2.011917,-0.725063,0.391962
2018-10-15T19:48:20.897130Z,1.265203,-0.230039,0.31632899999999997
2018-10-15T19:48:21.100130Z,0.7647550000000001,0.275054,0.185555
2018-10-15T19:48:21.305130Z,0.39097800000000005,0.191621,0.709414
2018-10-15T19:48:21.503130Z,-0.181059,-0.18703399999999998,-0.03625
2018-10-15T19:48:21.704130Z,0.510968,-0.149727,-0.078356
2018-10-15T19:48:21.903130Z,0.104098,0.34778200000000004,-0.007853
2018-10-15T19:48:22.087130Z,-1.2552530000000002,-0.236943,0.582955
2018-10-15T19:48:22.298130Z,-1.086571,-1.710832,0.9587979999999999
2018-10-15T19:48:22.494130Z,-0.030505,-0.856957,0.333968
2018-10-15T19:48:22.745130Z,0.48320100000000005,-0.184926,0.030574
2018-10-15T19:48:22.901130Z,-0.562782,-0.934614,0.12524200000000002
2018-10-15T19:48:23.132130Z,-0.18731199999999998,-0.786771,0.663856
2018-10-15T19:48:23.306130Z,0.213198,0.244375,0.20082
2018-10-15T19:48:23.503130Z,0.739701,0.369291,-0.062429
2018-10-15T19:48:23.707130Z,0.6421600000000001,0.384367,-0.005775
2018-10-15T19:48:23.898130Z,0.11531500000000001,0.918924,-0.450024
2018-10-15T19:48:24.100130Z,-0.144833,0.05479,0.163131
2018-10-15T19:48:24.307130Z,-0.303137,-0.67023,0.17354
2018-10-15T19:48:24.508130Z,0.187541,-0.307626,-0.492083
2018-10-15T19:48:24.709130Z,0.053698,0.32705100000000004,-0.007083
2018-10-15T19:48:24.903130Z,0.11791300000000002,-0.85451,0.46587700000000004
2018-10-15T19:48:25.105130Z,0.325094,-0.40473000000000003,-0.633205
2018-10-15T19:48:25.309130Z,0.095557,0.032498,-0.35028000000000004
2018-10-15T19:48:25.502130Z,0.06961200000000001,0.26650999999999997,0.898073
2018-10-15T19:48:25.704130Z,0.296589,-1.0622260000000001,-0.11617899999999999
2018-10-15T19:48:25.897130Z,0.298224,-0.294527,0.053149
2018-10-15T19:48:26.134130Z,-0.01119,-0.457765,0.112811
2018-10-15T19:48:26.296130Z,0.078261,-0.536519,0.22021999999999997
2018-10-15T19:48:26.498130Z,-0.190692,-0.116326,-0.15596
2018-10-15T19:48:26.710130Z,0.06796100000000001,0.423984,-0.090914
2018-10-15T19:48:26.911130Z,0.057090999999999996,0.642018,-0.139772
2018-10-15T19:48:27.107130Z,-0.006108,-0.082674,0.8248030000000001
2018-10-15T19:48:27.304130Z,-0.525138,-0.540267,-0.31359000000000004
2018-10-15T19:48:27.490130Z,-0.30496999999999996,0.138949,-0.35629099999999997
2018-10-15T19:48:27.690130Z,-0.209418,0.366359,0.155291
2018-10-15T19:48:27.905130Z,-0.16541,0.48639,0.362224
2018-10-15T19:48:28.094130Z,0.334052,-0.972987,-0.16986800000000002
2018-10-15T19:48:28.292130Z,0.297096,-0.14166700000000002,-0.527046
2018-10-15T19:48:28.513130Z,-0.017123,-0.00389,0.653158
2018-10-15T19:48:28.704130Z,-0.041217000000000004,-0.782223,0.9186139999999999
2018-10-15T19:48:28.910130Z,0.579956,-0.316229,0.149324
2018-10-15T19:48:29.106130Z,0.673447,-0.00205,0.24307399999999998
2018-10-15T19:48:29.310130Z,0.510501,-0.8380799999999999,0.385063
2018-10-15T19:48:29.492130Z,1.32466,-0.676283,0.060877
2018-10-15T19:48:29.713130Z,0.079839,-0.109884,-0.073406
2018-10-15T19:48:29.909130Z,-0.400134,-0.277598,0.667132
2018-10-15T19:48:30.114130Z,-0.169991,-1.0861889999999998,1.265323
2018-10-15T19:48:30.309130Z,-0.140062,-1.5545209999999998,-0.129004
2018-10-15T19:48:30.511130Z,0.148411,-0.44243299999999997,0.772304
2018-10-15T19:48:30.708130Z,-0.17896099999999998,-1.1661620000000001,1.045151
2018-10-15T19:48:30.908130Z,0.440151,-1.693314,0.327696
2018-10-15T19:48:31.107130Z,0.673423,-1.202222,0.357081
2018-10-15T19:48:31.314130Z,0.15171400000000002,-0.9395479999999999,0.27823400000000004
2018-10-15T19:48:31.493130Z,0.09231,-0.8142729999999999,0.318382
2018-10-15T19:48:31.694130Z,0.043106,-0.624165,0.368269
2018-10-15T19:48:31.895130Z,-0.5489,-0.741923,0.438853
2018-10-15T19:48:32.094130Z,-1.5944989999999999,-2.1262939999999997,0.363093
2018-10-15T19:48:32.313130Z,0.087784,-1.306546,1.207638
2018-10-15T19:48:32.510130Z,0.333811,-1.540302,0.46447700000000003
2018-10-15T19:48:32.711130Z,0.196927,-1.8976680000000001,0.672242
2018-10-15T19:48:32.910130Z,1.321258,-1.6665459999999999,0.897416
2018-10-15T19:48:33.140130Z,1.7986119999999999,-0.118176,0.221361
2018-10-15T19:48:33.336130Z,1.8919810000000001,0.955103,0.061797000000000005
2018-10-15T19:48:33.494130Z,2.264316,0.756784,0.127224
2018-10-15T19:48:33.737130Z,0.706168,0.39902600000000005,-0.344989
2018-10-15T19:48:33.896130Z,-0.140422,1.9294310000000001,0.140266
2018-10-15T19:48:34.096130Z,0.501718,-0.469583,1.578084
2018-10-15T19:48:34.294130Z,0.9265690000000001,-1.3322829999999999,-0.282671
2018-10-15T19:48:34.550130Z,0.694991,0.34671599999999997,0.06238
2018-10-15T19:48:34.734130Z,0.571681,-0.003633,0.752398
2018-10-15T19:48:34.896130Z,1.2404,-0.867059,0.615139
2018-10-15T19:48:35.136130Z,1.257258,-0.793896,-0.10046000000000001
2018-10-15T19:48:35.335130Z,0.75508,0.7474850000000001,0.371503
2018-10-15T19:48:35.537130Z,0.664719,0.6206470000000001,0.826735
2018-10-15T19:48:35.736130Z,0.127939,-0.8731549999999999,0.186029
2018-10-15T19:48:35.907130Z,0.051138,-0.372337,-1.0833270000000002
2018-10-15T19:48:36.112130Z,-0.09851900000000001,0.8379270000000001,0.6669189999999999
2018-10-15T19:48:36.316130Z,0.650825,-0.767897,1.266573
2018-10-15T19:48:36.516130Z,0.6456569999999999,-1.078584,-1.469203
2018-10-15T19:48:36.712130Z,-0.10195599999999999,0.063863,-0.446482
2018-10-15T19:48:36.898130Z,-0.306109,0.027362,1.132579
2018-10-15T19:48:37.096130Z,-0.231454,-1.087069,-0.919633
2018-10-15T19:48:37.312130Z,-0.152792,-0.628383,-0.16714400000000001
2018-10-15T19:48:37.515130Z,0.087523,0.344023,-0.361654
2018-10-15T19:48:37.697130Z,0.8231790000000001,-0.599974,0.581572
2018-10-15T19:48:37.913130Z,0.809497,-0.47834399999999994,-0.6780970000000001
2018-10-15T19:48:38.098130Z,0.061608,0.169103,-0.231339
2018-10-15T19:48:38.318130Z,-0.15783599999999998,0.62539,0.385766
2018-10-15T19:48:38.509130Z,0.186138,-1.150226,-0.06142
2018-10-15T19:48:38.713130Z,0.091017,-0.8995920000000001,-0.781658
2018-10-15T19:48:38.914130Z,-0.41502700000000003,0.151859,0.024782
2018-10-15T19:48:39.110130Z,-1.189814,0.105654,0.414199
2018-10-15T19:48:39.316130Z,-0.84983,-1.033911,0.168398
2018-10-15T19:48:39.514130Z,-0.595662,-0.626791,-0.13297799999999999
2018-10-15T19:48:39.726130Z,0.40418000000000004,0.255131,-0.47438800000000003
2018-10-15T19:48:39.910130Z,0.720988,0.613268,1.05409
2018-10-15T19:48:40.108130Z,0.592208,-0.619108,-0.543009
2018-10-15T19:48:40.316130Z,0.606704,-0.018709,-0.366817
2018-10-15T19:48:40.500130Z,0.684134,0.667022,0.659832
2018-10-15T19:48:40.717130Z,0.942162,0.362453,1.028294
2018-10-15T19:48:40.922130Z,1.0180040000000001,-0.7439100000000001,-0.8461629999999999
2018-10-15T19:48:41.099130Z,1.1019780000000001,0.237154,-0.05002
2018-10-15T19:48:41.312130Z,0.679234,0.889409,0.565555
2018-10-15T19:48:41.511130Z,0.393031,-0.038560000000000004,0.857065
2018-10-15T19:48:41.716130Z,0.503858,-0.38855500000000004,-0.7962130000000001
2018-10-15T19:48:41.921130Z,0.223598,0.9174959999999999,0.34378800000000004
2018-10-15T19:48:42.121130Z,0.225477,-0.027735000000000003,1.624914
2018-10-15T19:48:42.315130Z,0.689264,-0.955242,-0.113248
2018-10-15T19:48:42.513130Z,0.58495,0.387343,-0.46585699999999997
2018-10-15T19:48:42.711130Z,-0.039184,0.735002,1.1221299999999998
2018-10-15T19:48:42.916130Z,-0.10438199999999999,-0.976475,0.390884
2018-10-15T19:48:43.117130Z,0.672428,-0.5255029999999999,-0.735324
2018-10-15T19:48:43.317130Z,0.278296,0.6654439999999999,0.615211
2018-10-15T19:48:43.523130Z,0.991619,-0.10490799999999999,1.0215610000000002
2018-10-15T19:48:43.722130Z,0.9169209999999999,-0.906008,-0.680264
2018-10-15T19:48:43.922130Z,0.549667,-0.253204,-0.945943
2018-10-15T19:48:44.122130Z,-0.299689,0.077073,0.996029
2018-10-15T19:48:44.320130Z,-0.141145,-1.07198,-0.298439
2018-10-15T19:48:44.544130Z,0.452927,-0.37044099999999996,-1.28931
2018-10-15T19:48:44.720130Z,-0.46041000000000004,0.658012,0.024641
2018-10-15T19:48:44.922130Z,0.232569,-1.146197,-0.100923
2018-10-15T19:48:45.119130Z,0.165528,-0.381189,-0.96572
2018-10-15T19:48:45.317130Z,0.13181700000000002,0.549938,0.10286700000000001
2018-10-15T19:48:45.523130Z,0.11804500000000001,0.595989,1.132456
2018-10-15T19:48:45.725130Z,-0.20507199999999998,-0.973116,-0.62516
2018-10-15T19:48:45.923130Z,0.099173,-0.192922,-0.6247520000000001
2018-10-15T19:48:46.127130Z,-0.29125,0.492205,0.540403
2018-10-15T19:48:46.302130Z,0.172291,-0.49135,1.162166
2018-10-15T19:48:46.503130Z,-0.257893,-0.182825,-0.7442989999999999
2018-10-15T19:48:46.721130Z,-0.30580999999999997,0.6991350000000001,0.61438
2018-10-15T19:48:46.904130Z,-0.648147,0.254705,0.816375
2018-10-15T19:48:47.120130Z,-0.947292,-1.168698,-0.201951
2018-10-15T19:48:47.305130Z,0.427246,0.488025,0.021169999999999998
2018-10-15T19:48:47.524130Z,0.600668,0.525644,0.6751659999999999
2018-10-15T19:48:47.725130Z,0.162076,-0.9783940000000001,0.9373879999999999
2018-10-15T19:48:47.931130Z,0.83429,-0.798733,-0.5136689999999999
2018-10-15T19:48:48.122130Z,-0.8768799999999999,-0.13883399999999999,0.596956
2018-10-15T19:48:48.321130Z,-1.213335,-1.5207110000000001,1.078292
2018-10-15T19:48:48.522130Z,-0.333998,-1.8675419999999998,0.002758
2018-10-15T19:48:48.722130Z,-0.5271100000000001,-0.77668,-0.130832
2018-10-15T19:48:48.906130Z,0.6871470000000001,-0.10551500000000001,1.267665
2018-10-15T19:48:49.127130Z,1.430395,-1.1926940000000001,0.771692
2018-10-15T19:48:49.320130Z,1.195209,-0.945707,-0.549291
2018-10-15T19:48:49.526130Z,1.2504870000000001,-0.273648,0.242579
2018-10-15T19:48:49.727130Z,0.439601,-0.51422,1.607802
2018-10-15T19:48:49.971130Z,1.105265,-1.213733,-0.32111
2018-10-15T19:48:50.151130Z,0.8305879999999999,-0.289172,-0.5656329999999999
2018-10-15T19:48:50.327130Z,0.66233,0.059323,0.516698
2018-10-15T19:48:50.507130Z,0.60455,-0.8289270000000001,0.71585
2018-10-15T19:48:50.721130Z,0.9099459999999999,-0.578436,-0.532586
2018-10-15T19:48:50.927130Z,0.9837110000000001,0.278508,0.048991
2018-10-15T19:48:51.128130Z,0.66506,-0.276771,1.6427509999999999
2018-10-15T19:48:51.322130Z,1.372041,-1.206141,-0.241866
2018-10-15T19:48:51.521130Z,1.4575799999999999,-0.306179,0.620522
2018-10-15T19:48:51.725130Z,1.630079,-0.494976,1.6276469999999998
2018-10-15T19:48:51.922130Z,1.548745,-0.959465,0.243752
2018-10-15T19:48:52.126130Z,1.010542,0.490942,-0.07359500000000001
2018-10-15T19:48:52.323130Z,-0.279988,-0.008242,1.131602
2018-10-15T19:48:52.529130Z,-0.688729,-0.977993,1.4794450000000001
2018-10-15T19:48:52.778130Z,0.811699,-1.195498,-0.569623
2018-10-15T19:48:52.925130Z,-0.17688299999999998,-0.038767,0.35402100000000003
2018-10-15T19:48:53.120130Z,-0.120957,-0.030102999999999998,1.165262
2018-10-15T19:48:53.323130Z,-0.082078,-1.230847,0.318822
2018-10-15T19:48:53.522130Z,-0.036108999999999995,-0.7877430000000001,-0.7670279999999999
2018-10-15T19:48:53.724130Z,0.145879,0.308796,0.9552959999999999
2018-10-15T19:48:53.926130Z,-0.437487,-0.89884,1.116033
2018-10-15T19:48:54.143130Z,1.249204,-0.9466379999999999,-1.270937
2018-10-15T19:48:54.310130Z,0.136846,-0.657099,0.0030629999999999998
2018-10-15T19:48:54.512130Z,1.623701,-1.0717709999999998,1.649431
2018-10-15T19:48:54.727130Z,2.0643830000000003,-1.352991,0.585097
2018-10-15T19:48:54.910130Z,1.353507,-0.74515,-0.31651999999999997
2018-10-15T19:48:55.131130Z,0.010003,-0.32228,0.711172
2018-10-15T19:48:55.323130Z,0.245391,-1.6904720000000002,-0.434029
2018-10-15T19:48:55.530130Z,0.120921,-1.267692,0.204862
2018-10-15T19:48:55.711130Z,0.924292,-0.325573,0.43034300000000003
2018-10-15T19:48:55.911130Z,1.427027,-0.7785770000000001,1.522243
2018-10-15T19:48:56.110130Z,1.86641,-1.533875,0.134106
2018-10-15T19:48:56.324130Z,1.157997,-0.903119,0.6614939999999999
2018-10-15T19:48:56.532130Z,0.101884,-0.24047800000000003,1.0427170000000001
2018-10-15T19:48:56.731130Z,-0.35070300000000004,-0.8747940000000001,1.8647790000000002
2018-10-15T19:48:56.914130Z,0.102108,-1.139713,-0.392879
2018-10-15T19:48:57.127130Z,-0.675859,0.0889,0.228233
2018-10-15T19:48:57.329130Z,-0.8271709999999999,-0.373743,1.1390879999999999
2018-10-15T19:48:57.512130Z,-1.8957,-1.9445299999999999,0.612002
2018-10-15T19:48:57.731130Z,-0.8272280000000001,-1.5051350000000001,0.545378
2018-10-15T19:48:57.930130Z,-0.047649000000000004,-0.523726,0.314718
2018-10-15T19:48:58.135130Z,-0.9772190000000001,-0.673607,0.68783
2018-10-15T19:48:58.328130Z,0.14732699999999999,-1.552758,1.363298
2018-10-15T19:48:58.534130Z,0.020191,-0.091865,-0.24626199999999998
2018-10-15T19:48:58.733130Z,-0.087046,0.40689200000000003,0.726703
2018-10-15T19:48:58.927130Z,0.316104,-0.188199,0.79856
2018-10-15T19:48:59.124130Z,-0.43054899999999996,-0.554813,-1.4141860000000002
2018-10-15T19:48:59.330130Z,-1.055186,-0.097276,0.064462
2018-10-15T19:48:59.531130Z,-1.0417809999999998,-1.11467,1.0513649999999999
2018-10-15T19:48:59.730130Z,-0.636534,-1.364134,-0.036905
2018-10-15T19:48:59.930130Z,0.401359,-0.442772,-0.45042299999999996
2018-10-15T19:49:00.134130Z,0.589284,0.782224,0.735714
2018-10-15T19:49:00.334130Z,1.414556,-0.7115199999999999,0.991891
2018-10-15T19:49:00.550130Z,0.942974,-1.342766,-0.637836
2018-10-15T19:49:00.727130Z,0.6829310000000001,0.338814,-0.821702
2018-10-15T19:49:00.925130Z,1.248349,0.30133699999999997,1.093925
2018-10-15T19:49:01.127130Z,1.1003180000000001,-0.979873,0.9849399999999999
2018-10-15T19:49:01.330130Z,1.513947,-0.194379,-0.857815
2018-10-15T19:49:01.535130Z,0.367294,0.06678200000000001,0.042614
2018-10-15T19:49:01.731130Z,0.42809300000000006,-0.194903,1.487227
2018-10-15T19:49:01.924130Z,0.598372,-1.2488299999999999,-0.7070350000000001
2018-10-15T19:49:02.125130Z,0.022473,-0.498859,-0.912292
2018-10-15T19:49:02.326130Z,-0.5340729999999999,1.171768,-0.642112
2018-10-15T19:49:02.536130Z,-2.690433,-2.512117,0.11627799999999999
2018-10-15T19:49:02.732130Z,-0.776158,-1.803048,0.551063
2018-10-15T19:49:02.934130Z,0.438968,-0.109215,0.46511800000000003
2018-10-15T19:49:03.116130Z,1.173978,0.171236,0.871923
2018-10-15T19:49:03.344130Z,1.6639709999999999,-0.579865,0.101474
2018-10-15T19:49:03.553130Z,1.8152689999999998,-0.213583,-0.24797600000000003
2018-10-15T19:49:03.754130Z,0.914543,0.693164,0.9392370000000001
2018-10-15T19:49:03.955130Z,2.3600470000000002,-0.032585,1.862422
2018-10-15T19:49:04.117130Z,0.9813360000000001,-0.966982,0.39797
2018-10-15T19:49:04.354130Z,1.0999,-0.251506,0.049308
2018-10-15T19:49:04.517130Z,-0.159101,0.170949,0.47798500000000005
2018-10-15T19:49:04.718130Z,-0.48777299999999996,-1.351645,1.378047
2018-10-15T19:49:04.918130Z,0.108366,-0.053330999999999996,-0.20086800000000002
2018-10-15T19:49:05.119130Z,-0.07911699999999999,0.47090200000000004,0.695285
2018-10-15T19:49:05.329130Z,-0.6730649999999999,-0.560359,0.8551040000000001
2018-10-15T19:49:05.572130Z,0.52771,-0.9047360000000001,-0.550618
2018-10-15T19:49:05.732130Z,-0.8861540000000001,0.346954,0.309194
2018-10-15T19:49:05.934130Z,-0.5811149999999999,-0.39969699999999997,1.031425
2018-10-15T19:49:06.119130Z,-1.502428,-1.2724600000000001,-0.023149
2018-10-15T19:49:06.323130Z,-1.017211,-0.595133,-0.9952469999999999
2018-10-15T19:49:06.534130Z,0.729893,0.247579,0.706477
2018-10-15T19:49:06.747130Z,0.6160439999999999,-0.015165999999999999,0.952393
2018-10-15T19:49:06.939130Z,0.369888,-1.263033,0.46982299999999994
2018-10-15T19:49:07.141130Z,0.500095,-0.848658,-0.302917
2018-10-15T19:49:07.343130Z,0.462204,0.641061,0.5658449999999999
2018-10-15T19:49:07.543130Z,0.551384,-0.152997,1.187842
2018-10-15T19:49:07.731130Z,1.0731700000000002,-1.103065,-0.020191
