Datetime,accx,accy,accz
2018-10-04T17:41:13.479718Z,0.0,0.0,0.0
2018-10-04T17:41:13.716718Z,-0.022518,0.45098299999999997,0.332098
2018-10-04T17:41:13.980718Z,-0.422184,-1.311116,0.9337549999999999
2018-10-04T17:41:14.159718Z,-0.331449,-1.418826,-0.48432
2018-10-04T17:41:14.355718Z,-0.271791,-0.5612199999999999,-0.163936
2018-10-04T17:41:14.556718Z,-0.8842540000000001,1.021217,0.812855
2018-10-04T17:41:14.757718Z,-0.859612,-0.994511,1.2738690000000001
2018-10-04T17:41:14.980718Z,-2.749165,-1.9423150000000002,0.007542
2018-10-04T17:41:15.158718Z,-1.9872290000000001,-1.7686130000000002,0.630988
2018-10-04T17:41:15.358718Z,-0.780507,-3.2766509999999998,4.335647
2018-10-04T17:41:15.559718Z,-0.111115,-5.178571,3.856392
2018-10-04T17:41:15.759718Z,0.369027,-4.127948,2.270984
2018-10-04T17:41:15.960718Z,-0.349088,-2.729837,2.4344040000000002
2018-10-04T17:41:16.160718Z,1.300283,-1.219891,1.826972
2018-10-04T17:41:16.360718Z,2.625248,-1.9320950000000001,1.138076
2018-10-04T17:41:16.558718Z,1.624054,-0.600742,0.098807
2018-10-04T17:41:16.758718Z,1.091691,1.129903,1.4544270000000001
2018-10-04T17:41:16.961718Z,0.23960399999999998,-1.713945,0.586268
2018-10-04T17:41:17.159718Z,1.014122,-0.8895290000000001,-0.735088
2018-10-04T17:41:17.360718Z,0.507549,0.479178,1.16689
2018-10-04T17:41:17.559718Z,0.368135,-0.408077,1.637997
2018-10-04T17:41:17.760718Z,-0.560336,-0.972915,-0.48075100000000004
2018-10-04T17:41:17.961718Z,-0.8230149999999999,0.103574,0.629019
2018-10-04T17:41:18.162718Z,-0.613314,-0.623501,1.9139599999999999
2018-10-04T17:41:18.424718Z,-0.523209,-1.051353,-0.152362
2018-10-04T17:41:18.580718Z,0.44793599999999995,-0.726349,0.331338
2018-10-04T17:41:18.760718Z,0.8091079999999999,-0.18665199999999998,0.7592869999999999
2018-10-04T17:41:18.958718Z,1.0389760000000001,-0.39353499999999997,-0.325191
2018-10-04T17:41:19.164718Z,0.828277,-0.175751,-0.8298030000000001
2018-10-04T17:41:19.367718Z,0.788216,0.3468,2.036769
2018-10-04T17:41:19.560718Z,0.48593000000000003,-1.237698,-0.156541
2018-10-04T17:41:19.762718Z,0.787011,-0.327545,-0.992919
2018-10-04T17:41:20.039718Z,0.760181,0.33661199999999997,0.7119840000000001
2018-10-04T17:41:20.160718Z,0.688893,-1.5037129999999999,0.7116100000000001
2018-10-04T17:41:20.363718Z,0.360991,-1.171509,-0.825276
2018-10-04T17:41:20.572718Z,-0.425511,-0.024241,-0.677558
2018-10-04T17:41:20.780718Z,-0.29474,1.166881,1.849088
2018-10-04T17:41:20.963718Z,-0.352777,-1.162279,-0.9877040000000001
2018-10-04T17:41:21.161718Z,-0.26102600000000004,0.213944,-0.062069000000000006
2018-10-04T17:41:21.363718Z,-0.33187,0.365819,1.648809
2018-10-04T17:41:21.583718Z,0.356028,-1.035939,0.551523
2018-10-04T17:41:21.766718Z,0.45772700000000005,0.287553,-0.045957
2018-10-04T17:41:21.962718Z,-0.18775,0.254473,1.883301
2018-10-04T17:41:22.161718Z,-0.148481,-0.977427,0.34052899999999997
2018-10-04T17:41:22.361718Z,0.628633,-0.813909,-1.5533860000000002
2018-10-04T17:41:22.562718Z,0.11754,0.074938,2.1285540000000003
2018-10-04T17:41:22.764718Z,0.437249,-1.012659,-0.380646
2018-10-04T17:41:23.002718Z,0.646884,-0.679462,-1.232014
2018-10-04T17:41:23.161718Z,0.734128,0.136353,0.291135
2018-10-04T17:41:23.363718Z,1.87473,-1.8906459999999998,0.571752
2018-10-04T17:41:23.561718Z,1.3177969999999999,-0.810052,-0.5113810000000001
2018-10-04T17:41:23.763718Z,0.784556,-0.114175,0.17258800000000002
2018-10-04T17:41:23.964718Z,-0.102592,-0.5292399999999999,1.7980919999999998
2018-10-04T17:41:24.162718Z,0.365673,-0.827636,-0.9070959999999999
2018-10-04T17:41:24.365718Z,-0.599292,0.078562,1.089587
2018-10-04T17:41:24.565718Z,-0.534968,-0.37541399999999997,1.8107659999999999
2018-10-04T17:41:24.764718Z,0.5041180000000001,-1.269641,-0.46618000000000004
2018-10-04T17:41:24.965718Z,-0.043077,-0.01089,1.2977940000000001
2018-10-04T17:41:25.164718Z,0.692788,-0.6017600000000001,1.2973940000000002
2018-10-04T17:41:25.364718Z,1.076916,-1.384938,-0.42548199999999997
2018-10-04T17:41:25.590718Z,0.668654,-0.623147,-1.038599
2018-10-04T17:41:25.765718Z,-0.11564300000000001,-0.689445,1.189481
2018-10-04T17:41:25.964718Z,-0.102612,-1.396293,-0.6193270000000001
2018-10-04T17:41:26.164718Z,-0.23999099999999998,-0.177118,-0.783756
2018-10-04T17:41:26.365718Z,0.077831,0.399629,1.15841
2018-10-04T17:41:26.565718Z,0.653091,-1.479243,-0.613004
2018-10-04T17:41:26.818718Z,0.309628,-0.5756220000000001,-1.164497
2018-10-04T17:41:26.979718Z,-0.017542,0.47183800000000004,1.228041
2018-10-04T17:41:27.164718Z,-0.463294,-0.791521,1.862987
2018-10-04T17:41:27.382718Z,0.004657,-0.255563,-1.252111
2018-10-04T17:41:27.565718Z,-0.20773000000000003,0.6757920000000001,0.574553
2018-10-04T17:41:27.767718Z,0.435036,0.253338,2.0149310000000002
2018-10-04T17:41:27.967718Z,0.701952,-1.5432549999999998,-0.407448
2018-10-04T17:41:28.166718Z,0.191653,0.506764,-0.12304100000000001
2018-10-04T17:41:28.367718Z,-0.374396,0.31906100000000004,2.032161
2018-10-04T17:41:28.567718Z,-0.180763,-1.2753379999999999,0.048654
2018-10-04T17:41:28.784718Z,0.018300999999999998,-0.7967310000000001,-1.267325
2018-10-04T17:41:28.972718Z,0.282915,0.091155,1.205907
2018-10-04T17:41:29.187718Z,0.503579,-1.11871,0.72987
2018-10-04T17:41:29.367718Z,0.171062,-0.638087,-1.322511
2018-10-04T17:41:29.569718Z,0.21071900000000002,0.040398,0.291041
2018-10-04T17:41:29.768718Z,0.326959,-1.099014,0.339967
2018-10-04T17:41:29.982718Z,0.963933,-0.771328,-0.9117350000000001
2018-10-04T17:41:30.170718Z,1.615477,-0.631095,0.8194889999999999
2018-10-04T17:41:30.368718Z,1.787943,-1.3220809999999998,1.28011
2018-10-04T17:41:30.568718Z,1.252348,-1.234632,-0.150899
2018-10-04T17:41:30.766718Z,0.367582,-0.364131,0.624165
2018-10-04T17:41:30.969718Z,-0.852376,-0.8547399999999999,1.479919
2018-10-04T17:41:31.168718Z,-0.640904,-1.356171,-0.315726
2018-10-04T17:41:31.369718Z,-0.322892,0.061332000000000005,0.7347859999999999
2018-10-04T17:41:31.570718Z,-0.07283400000000001,-0.223725,0.977842
2018-10-04T17:41:31.772718Z,0.6418149999999999,-1.3668930000000001,0.510171
2018-10-04T17:41:32.025718Z,0.136017,-1.049513,-0.78686
2018-10-04T17:41:32.186718Z,-0.377785,-0.328522,1.2212040000000002
2018-10-04T17:41:32.370718Z,0.10654200000000001,-1.528913,0.834291
2018-10-04T17:41:32.570718Z,0.466344,-1.295975,-0.7928109999999999
2018-10-04T17:41:32.831718Z,0.516278,-0.502704,-0.126834
2018-10-04T17:41:32.969718Z,2.133991,-1.636807,1.646737
2018-10-04T17:41:33.170718Z,2.763459,-1.204518,-0.027596
2018-10-04T17:41:33.368718Z,0.5465939999999999,-1.7706549999999999,0.228384
2018-10-04T17:41:33.569718Z,1.071364,-0.479441,0.774343
2018-10-04T17:41:33.772718Z,-0.700271,-1.793222,1.0957780000000001
2018-10-04T17:41:33.969718Z,-0.013025,-1.447575,-0.26621999999999996
2018-10-04T17:41:34.169718Z,-0.554333,-0.424829,-0.06514099999999999
2018-10-04T17:41:34.370718Z,-1.162533,-0.434292,1.06569
2018-10-04T17:41:34.571718Z,0.559998,-2.070041,0.8747860000000001
2018-10-04T17:41:34.772718Z,0.269687,-1.390487,0.72912
2018-10-04T17:41:34.972718Z,0.356043,-0.944067,1.021112
2018-10-04T17:41:35.173718Z,0.7124090000000001,-0.6600229999999999,0.45146800000000004
2018-10-04T17:41:35.373718Z,-0.005340999999999999,-0.180225,0.378101
2018-10-04T17:41:35.571718Z,0.231881,-0.5304810000000001,0.464197
2018-10-04T17:41:35.772718Z,-0.229429,-0.11429600000000001,0.213914
2018-10-04T17:41:35.971718Z,0.6482439999999999,-0.167731,0.19730999999999999
2018-10-04T17:41:36.172718Z,0.292975,-0.005107,0.29691300000000004
2018-10-04T17:41:36.372718Z,0.374722,-0.192052,0.240108
2018-10-04T17:41:36.572718Z,0.631653,-0.349446,-0.13234400000000002
2018-10-04T17:41:36.773718Z,1.4171610000000001,0.12269300000000001,0.21984499999999998
2018-10-04T17:41:36.972718Z,0.312262,-0.147678,-0.25440300000000005
2018-10-04T17:41:37.172718Z,0.33581700000000003,-0.016412,-0.087242
2018-10-04T17:41:37.373718Z,-0.09732,0.008945999999999999,0.105577
2018-10-04T17:41:37.574718Z,0.091895,-0.140261,0.158116
2018-10-04T17:41:37.776718Z,0.304816,0.032286,-0.18066300000000002
2018-10-04T17:41:37.979718Z,0.5252640000000001,-0.246902,0.082294
2018-10-04T17:41:38.191718Z,0.54106,-0.057449,-0.045824000000000004
2018-10-04T17:41:38.374718Z,0.5476489999999999,0.049211000000000005,-0.251875
2018-10-04T17:41:38.585718Z,0.107056,0.058482000000000006,-0.178539
2018-10-04T17:41:38.775718Z,0.065724,0.189153,-0.07595
2018-10-04T17:41:38.976718Z,0.852618,-0.05923200000000001,0.253576
2018-10-04T17:41:39.179718Z,0.19461199999999998,0.016635,-0.042744
2018-10-04T17:41:39.375718Z,-0.08188,0.025923,-0.076241
2018-10-04T17:41:39.575718Z,0.11451300000000002,0.002914,0.149096
2018-10-04T17:41:39.776718Z,0.196326,0.098498,0.110703
2018-10-04T17:41:39.976718Z,-0.19496,0.142746,0.210157
2018-10-04T17:41:40.179718Z,0.106376,-0.029188,-0.19578099999999998
2018-10-04T17:41:40.380718Z,-0.44996,0.139651,-0.557818
2018-10-04T17:41:40.580718Z,0.10348299999999999,0.608427,-0.798474
2018-10-04T17:41:40.776718Z,-0.387704,0.47171199999999996,0.343463
2018-10-04T17:41:40.978718Z,0.34922600000000004,0.327443,0.028946
2018-10-04T17:41:41.178718Z,-0.30951,0.656698,-0.5042449999999999
2018-10-04T17:41:41.382718Z,0.791035,0.740617,-1.017465
2018-10-04T17:41:41.578718Z,0.400481,1.0278129999999999,1.764836
2018-10-04T17:41:41.778718Z,-0.24341,-0.836725,0.019105
2018-10-04T17:41:41.993718Z,-0.543459,-0.6392359999999999,-1.408911
2018-10-04T17:41:42.178718Z,0.463186,0.788533,-0.533676
2018-10-04T17:41:42.405718Z,-0.5923189999999999,1.527133,0.611475
2018-10-04T17:41:42.579718Z,-1.293141,-1.5802610000000001,-1.030697
2018-10-04T17:41:42.777718Z,-1.27948,-1.394433,0.058499
2018-10-04T17:41:42.978718Z,0.15366,-0.046176,0.087738
2018-10-04T17:41:43.178718Z,0.8839870000000001,0.821349,-0.41794499999999996
2018-10-04T17:41:43.380718Z,-0.001172,-0.667315,0.76262
2018-10-04T17:41:43.579718Z,0.329,0.024931000000000002,-0.343273
2018-10-04T17:41:43.778718Z,1.739063,0.29112899999999997,-0.34142
2018-10-04T17:41:43.977718Z,1.520576,0.6159279999999999,1.561313
2018-10-04T17:41:44.178718Z,3.798781,-1.8970939999999998,0.0035020000000000003
2018-10-04T17:41:44.379718Z,2.35377,-1.0268950000000001,0.261461
2018-10-04T17:41:44.579718Z,1.382398,-0.076836,0.561758
2018-10-04T17:41:44.780718Z,0.32492600000000005,0.23460100000000003,1.1479700000000002
2018-10-04T17:41:44.981718Z,-0.299501,-1.075653,-0.526379
2018-10-04T17:41:45.181718Z,0.078774,-0.38421,0.06402200000000001
2018-10-04T17:41:45.382718Z,0.036724,0.420862,-0.728517
2018-10-04T17:41:45.579718Z,-0.5667810000000001,0.747917,1.351161
2018-10-04T17:41:45.780718Z,0.584542,-0.940377,-0.947418
2018-10-04T17:41:45.979718Z,0.27877199999999996,-0.031862,-0.6654680000000001
2018-10-04T17:41:46.180718Z,0.074036,0.78562,1.1072170000000001
2018-10-04T17:41:46.382718Z,0.20002799999999998,-0.05259400000000001,1.172756
2018-10-04T17:41:46.581718Z,-0.20304,-1.247635,-0.10143200000000001
2018-10-04T17:41:46.822718Z,0.261681,-0.41280600000000006,0.22801100000000002
2018-10-04T17:41:47.044718Z,0.767143,-0.921249,1.879916
2018-10-04T17:41:47.182718Z,-0.46740299999999996,-1.0418459999999998,0.108109
2018-10-04T17:41:47.401718Z,0.062526,-0.013487,0.179151
2018-10-04T17:41:47.581718Z,0.943053,0.559668,0.183187
2018-10-04T17:41:47.782718Z,0.908515,-0.370298,1.433259
2018-10-04T17:41:47.981718Z,1.2354049999999999,-1.64503,0.608121
2018-10-04T17:41:48.182718Z,0.149751,-0.147601,0.12144100000000001
2018-10-04T17:41:48.383718Z,0.402149,0.6835859999999999,0.8341639999999999
2018-10-04T17:41:48.584718Z,-0.0346,-1.159477,1.425822
2018-10-04T17:41:48.783718Z,0.631955,-1.3445209999999999,-0.7519979999999999
2018-10-04T17:41:48.997718Z,-0.481059,-0.048791,-0.6182949999999999
2018-10-04T17:41:49.184718Z,-1.251792,-0.160241,1.031051
2018-10-04T17:41:49.395718Z,-1.824065,-1.2727540000000002,0.07726799999999999
2018-10-04T17:41:49.584718Z,-1.733675,-1.205012,-0.6015020000000001
2018-10-04T17:41:49.783718Z,0.120726,0.59682,-0.509289
2018-10-04T17:41:49.982718Z,-0.531503,0.49348100000000006,0.590117
2018-10-04T17:41:50.183718Z,1.326437,-0.108671,0.45210500000000003
2018-10-04T17:41:50.385718Z,0.28127199999999997,-0.37848200000000004,-0.39724
2018-10-04T17:41:50.585718Z,0.291101,1.084598,0.609733
2018-10-04T17:41:50.784718Z,-0.675059,-0.633024,1.318875
2018-10-04T17:41:51.097718Z,0.21212399999999998,-0.754714,-1.1196139999999999
2018-10-04T17:41:51.184718Z,-0.382332,0.129307,-1.4267299999999998
2018-10-04T17:41:51.385718Z,-0.986477,-0.6605260000000001,1.016363
2018-10-04T17:41:51.585718Z,-1.0199690000000001,-0.9070290000000001,-0.37049
2018-10-04T17:41:51.785718Z,-0.7736390000000001,-0.542976,-0.42482299999999995
2018-10-04T17:41:52.005718Z,0.488475,-0.295074,0.505047
2018-10-04T17:41:52.186718Z,1.082228,0.377048,1.687197
2018-10-04T17:41:52.386718Z,1.152468,-1.1121,-1.2016069999999999
2018-10-04T17:41:52.689718Z,1.291183,-0.259875,-0.607671
2018-10-04T17:41:52.784718Z,0.625689,0.6701729999999999,0.537992
2018-10-04T17:41:52.986718Z,1.7347810000000001,-0.706433,0.8560459999999999
2018-10-04T17:41:53.186718Z,1.2025629999999998,-0.40224,-1.197653
2018-10-04T17:41:53.386718Z,0.730823,0.257077,-0.34089200000000003
2018-10-04T17:41:53.587718Z,0.9165270000000001,0.8784379999999999,0.745837
2018-10-04T17:41:53.786718Z,0.9477059999999999,-0.9275549999999999,-0.334073
2018-10-04T17:41:53.987718Z,1.041728,-0.229976,-0.46501400000000004
2018-10-04T17:41:54.188718Z,1.4325290000000002,-0.164657,0.903351
2018-10-04T17:41:54.388718Z,1.901013,-0.08379600000000001,0.999024
2018-10-04T17:41:54.609718Z,0.640841,-1.206057,0.179554
2018-10-04T17:41:54.787718Z,0.283867,-0.335271,0.583001
2018-10-04T17:41:54.987718Z,-0.027262,0.206369,0.36739299999999997
2018-10-04T17:41:55.187718Z,0.083484,-0.770567,0.722949
2018-10-04T17:41:55.388718Z,-0.005629,-0.673608,0.29985100000000003
2018-10-04T17:41:55.588718Z,-0.128547,-0.216842,-0.146251
2018-10-04T17:41:55.788718Z,-1.07266,0.23105100000000003,-0.28139200000000003
2018-10-04T17:41:55.988718Z,0.242419,-0.14821199999999998,0.663485
2018-10-04T17:41:56.189718Z,0.674974,-1.767037,1.6502
2018-10-04T17:41:56.405718Z,0.785375,-1.624718,0.092155
2018-10-04T17:41:56.589718Z,1.6709450000000001,-1.114791,0.253564
2018-10-04T17:41:56.788718Z,0.9394239999999999,-0.191423,0.18358
2018-10-04T17:41:56.990718Z,-0.30613,0.787473,-0.126088
2018-10-04T17:41:57.190718Z,-0.66114,-0.29242199999999996,1.21579
2018-10-04T17:41:57.430718Z,-0.08493200000000001,-1.712007,-0.308357
2018-10-04T17:41:57.589718Z,-0.965025,-1.717067,0.411908
2018-10-04T17:41:57.789718Z,-0.8596030000000001,-0.749495,0.051460000000000006
2018-10-04T17:41:58.003718Z,-0.850925,-0.44998999999999995,0.055898
2018-10-04T17:41:58.208718Z,-0.439238,-0.177288,0.127663
2018-10-04T17:41:58.391718Z,-0.184864,-0.138001,-0.021206
2018-10-04T17:41:58.591718Z,0.090847,0.481346,-0.44350600000000007
2018-10-04T17:41:58.791718Z,0.092956,1.0049569999999999,-1.026263
2018-10-04T17:41:58.992718Z,0.178731,0.8878520000000001,0.588645
2018-10-04T17:41:59.191718Z,0.106027,-1.1704620000000001,1.0073450000000002
2018-10-04T17:41:59.403718Z,0.318498,0.233105,-1.526349
2018-10-04T17:41:59.594718Z,0.683106,0.707994,0.173452
2018-10-04T17:41:59.806718Z,0.461292,0.6493140000000001,1.2910780000000002
2018-10-04T17:41:59.991718Z,0.17086400000000002,-1.378469,1.257888
2018-10-04T17:42:00.192718Z,0.42618999999999996,-0.43633299999999997,-0.149074
2018-10-04T17:42:00.392718Z,0.29838400000000004,-0.392086,-0.25138299999999997
2018-10-04T17:42:00.627718Z,0.21825799999999998,0.43165699999999996,-0.522537
2018-10-04T17:42:00.793718Z,-0.8836639999999999,-0.057995000000000005,0.958672
2018-10-04T17:42:00.997718Z,-0.07733999999999999,-0.173465,-1.071191
2018-10-04T17:42:01.206718Z,-0.496098,0.34368000000000004,-0.097174
2018-10-04T17:42:01.393718Z,-0.021522,0.160477,0.594662
2018-10-04T17:42:01.594718Z,-0.221822,0.091615,0.982353
2018-10-04T17:42:01.811718Z,-0.10246400000000001,-0.190063,-0.34446
2018-10-04T17:42:01.992718Z,0.086014,0.168286,-0.383637
2018-10-04T17:42:02.192718Z,-0.097174,0.777749,0.392965
2018-10-04T17:42:02.393718Z,0.728809,-0.8429459999999999,0.677962
2018-10-04T17:42:02.619718Z,0.038849,-0.44181899999999996,-0.591667
2018-10-04T17:42:02.794718Z,-0.048183,0.7465470000000001,0.156359
2018-10-04T17:42:02.994718Z,0.17538099999999998,-0.003104,0.845514
2018-10-04T17:42:03.194718Z,-0.582112,-0.677181,0.383326
2018-10-04T17:42:03.394718Z,-0.158689,-0.229219,-0.8247530000000001
2018-10-04T17:42:03.594718Z,-1.286216,0.365356,0.8693190000000001
2018-10-04T17:42:03.794718Z,-1.183341,-0.45949300000000004,0.08907999999999999
2018-10-04T17:42:03.995718Z,-1.137732,-1.389237,0.324521
2018-10-04T17:42:04.196718Z,-0.368209,-1.159956,0.40321399999999996
2018-10-04T17:42:04.395718Z,1.223149,-0.020999,0.08290800000000001
2018-10-04T17:42:04.596718Z,1.611361,1.0857780000000001,0.048645
2018-10-04T17:42:04.796718Z,0.679079,0.545222,1.057496
2018-10-04T17:42:04.997718Z,0.8290569999999999,-0.637142,-1.086964
2018-10-04T17:42:05.195718Z,1.2224780000000002,0.198942,-0.291788
2018-10-04T17:42:05.395718Z,1.24794,0.710072,-0.187655
2018-10-04T17:42:05.596718Z,1.475228,0.26154499999999997,0.9805020000000001
2018-10-04T17:42:05.796718Z,2.064437,-1.309549,-0.156401
2018-10-04T17:42:05.997718Z,1.555421,-0.440299,-0.26821100000000003
2018-10-04T17:42:06.197718Z,0.42123599999999994,-0.480649,0.42899499999999996
2018-10-04T17:42:06.395718Z,-0.483196,0.823583,-0.039439
2018-10-04T17:42:06.597718Z,0.051321000000000006,-1.286084,0.30691199999999996
2018-10-04T17:42:06.796718Z,0.050533999999999996,-0.7418319999999999,-0.189256
2018-10-04T17:42:06.998718Z,-0.642774,0.145367,0.136731
2018-10-04T17:42:07.197718Z,0.136623,-0.122688,1.231817
2018-10-04T17:42:07.396718Z,0.151868,-1.310065,-0.6456109999999999
2018-10-04T17:42:07.597718Z,0.086882,-0.409865,-0.776237
2018-10-04T17:42:07.796718Z,0.053194000000000005,0.46332799999999996,0.272161
2018-10-04T17:42:07.996718Z,-0.053186000000000004,0.434091,0.9960709999999999
2018-10-04T17:42:08.198718Z,-0.458081,-1.084107,-0.756292
2018-10-04T17:42:08.397718Z,-0.21578200000000003,0.36051700000000003,-0.484288
2018-10-04T17:42:08.600718Z,-0.207407,0.844566,0.764677
2018-10-04T17:42:08.798718Z,-0.13731400000000002,-0.6896680000000001,1.598168
2018-10-04T17:42:09.000718Z,0.113784,-0.518316,-0.5495800000000001
2018-10-04T17:42:09.200718Z,-0.077653,0.794682,0.118442
2018-10-04T17:42:09.400718Z,0.183301,0.111329,1.396952
2018-10-04T17:42:09.600718Z,0.26984600000000003,-1.481113,0.547222
2018-10-04T17:42:09.799718Z,0.16152,-0.05680399999999999,-0.45831099999999997
2018-10-04T17:42:09.999718Z,0.126551,0.612807,0.6284689999999999
2018-10-04T17:42:10.199718Z,-0.19200799999999998,0.081501,0.571134
2018-10-04T17:42:10.399718Z,1.01959,-1.486899,-0.5471020000000001
2018-10-04T17:42:10.604718Z,0.31974400000000003,0.07296799999999999,-0.162253
2018-10-04T17:42:10.813718Z,0.21408600000000003,0.817974,1.102488
2018-10-04T17:42:11.000718Z,-0.298417,-0.35539,1.032059
2018-10-04T17:42:11.201718Z,0.5794699999999999,-1.987913,-0.382129
2018-10-04T17:42:11.462718Z,0.6442479999999999,-0.098676,-0.137883
2018-10-04T17:42:11.600718Z,1.166856,0.1825,1.144997
2018-10-04T17:42:11.801718Z,1.427748,-1.577366,0.794231
2018-10-04T17:42:12.000718Z,1.2796,-1.670785,-0.065398
2018-10-04T17:42:12.200718Z,-0.100793,0.296116,0.399063
2018-10-04T17:42:12.400718Z,0.17524,-0.40531500000000004,1.345947
2018-10-04T17:42:12.602718Z,-0.32764699999999997,-1.683961,-0.132428
2018-10-04T17:42:12.833718Z,-0.676994,-1.428474,-0.331036
2018-10-04T17:42:13.003718Z,0.004481000000000001,-0.490001,1.082784
2018-10-04T17:42:13.202718Z,-0.147865,-1.008075,0.625128
2018-10-04T17:42:13.419718Z,-0.064956,-1.139299,-0.7221310000000001
2018-10-04T17:42:13.612718Z,-0.507985,-0.578026,-0.502164
2018-10-04T17:42:13.803718Z,-1.282139,-1.587367,0.669903
2018-10-04T17:42:14.044718Z,-1.6170069999999999,-1.931266,-0.197246
2018-10-04T17:42:14.201718Z,-0.862189,-0.684312,-0.138663
2018-10-04T17:42:14.403718Z,-0.33061799999999997,0.120701,0.408857
2018-10-04T17:42:14.603718Z,0.9061520000000001,-0.6115,0.508886
2018-10-04T17:42:14.855718Z,0.9684860000000001,-0.620049,-0.8180930000000001
2018-10-04T17:42:15.002718Z,0.127262,-0.128081,-0.15012799999999998
2018-10-04T17:42:15.247718Z,0.445068,0.9413239999999999,-0.45045
2018-10-04T17:42:15.403718Z,1.264238,-0.32655700000000004,1.301283
2018-10-04T17:42:15.603718Z,1.193423,-0.633264,-0.812053
2018-10-04T17:42:15.804718Z,1.2092200000000002,0.65804,-0.6065550000000001
2018-10-04T17:42:16.005718Z,0.610904,0.739545,0.8493850000000001
2018-10-04T17:42:16.206718Z,1.003649,-0.9780549999999999,-0.619444
2018-10-04T17:42:16.416718Z,0.288073,-0.24421199999999998,-1.524507
2018-10-04T17:42:16.604718Z,0.038464,0.988332,0.855397
2018-10-04T17:42:16.805718Z,-0.589404,0.044126,1.037731
2018-10-04T17:42:17.005718Z,0.350492,-0.352519,-1.123765
2018-10-04T17:42:17.204718Z,0.437725,0.519049,-0.471157
2018-10-04T17:42:17.405718Z,-0.20011500000000002,0.16158699999999998,1.541643
2018-10-04T17:42:17.605718Z,1.204474,-0.5798760000000001,0.556746
2018-10-04T17:42:17.806718Z,0.350015,-0.00951,-0.222483
2018-10-04T17:42:18.006718Z,-0.25817199999999996,0.527067,1.1533879999999999
2018-10-04T17:42:18.205718Z,0.13917000000000002,-1.212844,0.985759
2018-10-04T17:42:18.405718Z,-0.028655,-1.037915,-1.3426069999999999
2018-10-04T17:42:18.606718Z,-0.085882,0.221735,0.756497
2018-10-04T17:42:18.824718Z,0.341,-0.39612600000000003,1.13849
2018-10-04T17:42:19.008718Z,0.721204,-1.216909,-0.457262
2018-10-04T17:42:19.206718Z,0.37132800000000005,-0.655302,-0.502379
2018-10-04T17:42:19.409718Z,0.5405479999999999,0.45748199999999994,1.2098389999999999
2018-10-04T17:42:19.607718Z,-0.5545770000000001,-1.7589119999999998,1.25911
2018-10-04T17:42:19.808718Z,0.023857,-1.402618,-0.025398
2018-10-04T17:42:20.007718Z,0.38526900000000003,-0.163826,-0.34921599999999997
2018-10-04T17:42:20.209718Z,-0.144821,0.085573,0.9742280000000001
2018-10-04T17:42:20.408718Z,0.30344899999999997,-1.4864110000000001,0.792521
2018-10-04T17:42:20.609718Z,0.39765100000000003,-1.557461,-0.14388900000000002
2018-10-04T17:42:20.842718Z,0.10781900000000001,-0.258369,-1.054873
2018-10-04T17:42:21.008718Z,0.310631,0.292464,0.617594
2018-10-04T17:42:21.208718Z,-0.213792,-1.184408,0.92895
2018-10-04T17:42:21.408718Z,-0.398945,-0.8269280000000001,-0.5759310000000001
2018-10-04T17:42:21.609718Z,-0.22058699999999998,-0.472566,-0.123944
2018-10-04T17:42:21.828718Z,0.495918,-0.15679,0.804485
2018-10-04T17:42:22.009718Z,0.702217,-1.4006299999999998,0.400928
2018-10-04T17:42:22.227718Z,0.752779,-0.571136,-0.186112
2018-10-04T17:42:22.413718Z,0.46604799999999996,-0.126108,-0.590264
2018-10-04T17:42:22.610718Z,0.614895,-0.741149,1.588616
2018-10-04T17:42:22.810718Z,0.346926,-1.577102,0.198258
2018-10-04T17:42:23.009718Z,0.033242,-0.070738,-0.689713
2018-10-04T17:42:23.221718Z,0.395342,-0.41031899999999993,0.674519
2018-10-04T17:42:23.410718Z,0.446425,-1.200697,1.388824
2018-10-04T17:42:23.627718Z,1.116981,-0.8411,-1.17432
2018-10-04T17:42:23.811718Z,1.283796,-0.070372,0.310529
2018-10-04T17:42:24.011718Z,-0.6756449999999999,-0.847007,1.230399
2018-10-04T17:42:24.251718Z,0.179846,-1.410151,-0.831993
2018-10-04T17:42:24.427718Z,-0.011606,-0.49946499999999994,0.28027199999999997
2018-10-04T17:42:24.610718Z,-0.46093199999999995,0.205619,0.35465599999999997
2018-10-04T17:42:24.810718Z,-0.05474299999999999,-0.071276,0.948298
2018-10-04T17:42:25.011718Z,0.620038,-0.9890209999999999,-0.29070300000000004
2018-10-04T17:42:25.211718Z,0.458754,-0.24112399999999998,-0.270397
2018-10-04T17:42:25.412718Z,0.054697,0.095511,0.5822
2018-10-04T17:42:25.612718Z,-0.015286000000000001,0.12025899999999999,1.29862
2018-10-04T17:42:25.813718Z,-0.091781,-1.409371,-0.291006
2018-10-04T17:42:26.012718Z,0.41529799999999994,-0.28461,-0.443061
2018-10-04T17:42:26.211718Z,0.856773,0.547361,0.677419
2018-10-04T17:42:26.412718Z,1.520306,-0.567005,1.545399
2018-10-04T17:42:26.612718Z,1.560446,-1.6474659999999999,0.518656
2018-10-04T17:42:26.812718Z,1.394493,-0.673938,-0.094886
2018-10-04T17:42:27.014718Z,0.843852,0.29186999999999996,0.47982299999999994
2018-10-04T17:42:27.215718Z,0.10996700000000001,-0.389822,1.556252
2018-10-04T17:42:27.414718Z,0.464585,-1.517021,-0.147398
2018-10-04T17:42:27.626718Z,0.445539,-0.460761,-0.083057
2018-10-04T17:42:27.834718Z,0.08416699999999999,0.126977,0.868973
2018-10-04T17:42:28.014718Z,0.073242,-0.8857450000000001,1.3792
2018-10-04T17:42:28.214718Z,-0.055463,-1.031543,-0.7530899999999999
2018-10-04T17:42:28.414718Z,-0.008181,-0.11932899999999999,0.024884
2018-10-04T17:42:28.614718Z,0.043814,0.45464,1.068229
2018-10-04T17:42:28.816718Z,0.5352640000000001,-0.997374,1.456382
2018-10-04T17:42:29.016718Z,0.261956,-1.0844,-0.538849
2018-10-04T17:42:29.216718Z,0.328067,0.002179,0.750534
2018-10-04T17:42:29.416718Z,0.522108,0.083089,0.844625
2018-10-04T17:42:29.614718Z,1.237362,-1.5812329999999999,0.5378890000000001
2018-10-04T17:42:29.814718Z,0.180774,-0.419353,-0.314602
2018-10-04T17:42:30.016718Z,-0.0048530000000000005,0.483515,0.61898
2018-10-04T17:42:30.232718Z,0.083027,-0.151863,1.061276
2018-10-04T17:42:30.416718Z,-0.533193,-1.307876,-0.206465
2018-10-04T17:42:30.617718Z,-0.048217,-0.124154,-0.130774
2018-10-04T17:42:30.816718Z,0.197773,0.242269,0.703384
2018-10-04T17:42:31.017718Z,0.403287,-0.578523,0.5795170000000001
2018-10-04T17:42:31.216718Z,0.330404,-1.2874139999999998,-0.000595
2018-10-04T17:42:31.415718Z,-0.212657,0.35731799999999997,0.040872000000000006
2018-10-04T17:42:31.617718Z,0.317969,-0.24163800000000002,0.875343
2018-10-04T17:42:31.817718Z,0.7777850000000001,-1.2364469999999999,-0.09231900000000001
2018-10-04T17:42:32.017718Z,0.559063,-0.603008,-0.410883
2018-10-04T17:42:32.218718Z,0.11779500000000001,0.596585,0.6096600000000001
2018-10-04T17:42:32.418718Z,0.660593,-0.12171199999999999,0.901582
2018-10-04T17:42:32.619718Z,0.640895,-1.4505549999999998,-0.34528200000000003
2018-10-04T17:42:32.818718Z,0.002483,-0.797944,-0.862869
2018-10-04T17:42:33.019718Z,0.404758,0.259272,1.059112
2018-10-04T17:42:33.217718Z,0.586013,-0.8246469999999999,0.677705
2018-10-04T17:42:33.417718Z,0.963674,-1.126148,-0.699511
2018-10-04T17:42:33.618718Z,1.1657799999999998,-0.698696,0.08596000000000001
2018-10-04T17:42:33.818718Z,0.827932,-0.264403,0.5084390000000001
2018-10-04T17:42:34.019718Z,1.281045,-1.617465,1.323515
2018-10-04T17:42:34.220718Z,1.144887,-1.2807870000000001,-0.297827
2018-10-04T17:42:34.419718Z,0.394138,-0.5062939999999999,-0.19253299999999998
2018-10-04T17:42:34.620718Z,-0.061162,-0.06312100000000001,1.766038
2018-10-04T17:42:34.819718Z,-0.07356900000000001,-1.962162,-0.070963
2018-10-04T17:42:35.021718Z,-0.542502,-1.517434,-0.170311
2018-10-04T17:42:35.219718Z,-0.037252999999999994,-0.238119,-0.704518
2018-10-04T17:42:35.419718Z,0.183205,0.057708,0.774332
2018-10-04T17:42:35.619718Z,0.26268400000000003,-1.7252490000000003,-0.166675
2018-10-04T17:42:35.820718Z,-0.328102,-0.924968,-0.7478560000000001
2018-10-04T17:42:36.020718Z,-0.32210700000000003,0.39819899999999997,0.485965
2018-10-04T17:42:36.222718Z,0.068985,-1.681571,0.8271059999999999
2018-10-04T17:42:36.422718Z,0.14319,-1.241139,-0.693656
2018-10-04T17:42:36.622718Z,0.28667800000000004,-0.5624899999999999,-0.49756999999999996
2018-10-04T17:42:36.820718Z,-0.475152,0.760065,0.9178299999999999
2018-10-04T17:42:37.032718Z,-1.5334299999999998,-1.54267,0.767409
2018-10-04T17:42:37.220718Z,-2.400329,-1.502716,-0.086596
2018-10-04T17:42:37.434718Z,-2.082471,-2.1474,1.419543
2018-10-04T17:42:37.621718Z,-0.982131,-1.952634,0.7867810000000001
2018-10-04T17:42:37.822718Z,0.682196,-0.25358,0.563338
2018-10-04T17:42:38.022718Z,1.166793,0.640139,1.10635
2018-10-04T17:42:38.223718Z,2.328261,-0.356675,0.120197
2018-10-04T17:42:38.423718Z,1.355702,-0.716201,-0.766932
2018-10-04T17:42:38.623718Z,1.154747,0.727635,0.981684
2018-10-04T17:42:38.823718Z,0.606061,-0.469875,1.103193
2018-10-04T17:42:39.023718Z,0.586074,-1.213054,-0.80919
2018-10-04T17:42:39.238718Z,0.393625,-0.111549,-0.250243
2018-10-04T17:42:39.438718Z,-0.130156,-0.09050599999999999,0.376371
2018-10-04T17:42:39.623718Z,-0.291626,-1.631073,1.263195
2018-10-04T17:42:39.823718Z,-0.640732,-0.9630549999999999,-0.475171
2018-10-04T17:42:40.096718Z,0.699619,-0.20043,-0.00449
2018-10-04T17:42:40.234718Z,0.386381,-0.631566,0.954501
2018-10-04T17:42:40.463718Z,-0.18523699999999999,-1.234189,-0.000478
2018-10-04T17:42:40.642718Z,0.130328,-0.32086,0.018872
2018-10-04T17:42:40.824718Z,0.5566720000000001,0.054611,0.453115
2018-10-04T17:42:41.024718Z,0.804998,-0.580358,0.48457100000000003
2018-10-04T17:42:41.225718Z,1.216817,-1.5318459999999998,-0.660573
2018-10-04T17:42:41.425718Z,0.8189420000000001,0.051533,-0.8783479999999999
2018-10-04T17:42:41.626718Z,0.252261,1.0855629999999998,1.0943200000000002
2018-10-04T17:42:41.825718Z,0.994223,-1.368983,0.42339099999999996
2018-10-04T17:42:42.048718Z,1.225496,-1.159318,-0.833734
2018-10-04T17:42:42.281718Z,0.767196,-0.152284,-0.629366
2018-10-04T17:42:42.424718Z,1.192502,1.229012,0.6750470000000001
2018-10-04T17:42:42.625718Z,1.937711,-0.9627690000000001,-0.120729
2018-10-04T17:42:42.825718Z,0.81682,-0.983029,-0.065495
2018-10-04T17:42:43.024718Z,0.636877,0.562966,-0.734622
2018-10-04T17:42:43.226718Z,0.548041,0.839675,1.104644
2018-10-04T17:42:43.426718Z,0.100865,-1.5368549999999999,-0.089422
2018-10-04T17:42:43.627718Z,0.03698,-0.746475,-0.15158
2018-10-04T17:42:43.826718Z,0.210234,0.551255,0.101491
2018-10-04T17:42:44.046718Z,-0.13716,0.587755,0.533355
2018-10-04T17:42:44.227718Z,-0.101985,-1.384231,-0.039001
2018-10-04T17:42:44.427718Z,-0.8827799999999999,-0.506786,-0.297971
2018-10-04T17:42:44.626718Z,-1.024146,0.15343800000000002,0.379971
2018-10-04T17:42:44.828718Z,-0.447729,-0.09017,0.919529
2018-10-04T17:42:45.029718Z,-0.337636,-0.8633569999999999,-0.33418200000000003
2018-10-04T17:42:45.227718Z,-0.181446,0.376958,-0.24353000000000002
2018-10-04T17:42:45.428718Z,-0.276123,0.436889,0.729243
2018-10-04T17:42:45.628718Z,0.193719,-0.058117999999999996,1.007088
2018-10-04T17:42:45.829718Z,0.44255200000000006,-0.21012399999999998,-0.797451
2018-10-04T17:42:46.027718Z,0.180577,0.927211,0.188904
2018-10-04T17:42:46.229718Z,-0.355064,0.800883,0.8726889999999999
2018-10-04T17:42:46.429718Z,0.669607,-1.2052969999999998,0.687041
2018-10-04T17:42:46.627718Z,-0.161001,0.18403599999999998,0.008855
2018-10-04T17:42:46.867718Z,-0.033787,0.9249809999999999,0.86106
2018-10-04T17:42:47.029718Z,-0.05343099999999999,-0.37593499999999996,0.796619
2018-10-04T17:42:47.229718Z,0.271426,-1.011104,-0.756306
2018-10-04T17:42:47.430718Z,-0.042416,0.925464,0.40945
2018-10-04T17:42:47.630718Z,0.23594,0.22985,0.5277649999999999
2018-10-04T17:42:47.846718Z,0.621901,-0.965082,1.12205
2018-10-04T17:42:48.030718Z,0.57997,-0.8545879999999999,-0.771649
2018-10-04T17:42:48.231718Z,0.724094,0.944691,0.424469
2018-10-04T17:42:48.459718Z,0.838096,0.735833,0.255306
2018-10-04T17:42:48.630718Z,1.392477,-0.8544809999999999,0.464366
2018-10-04T17:42:48.830718Z,0.566476,-0.511987,-1.295301
2018-10-04T17:42:49.030718Z,0.189948,1.020377,0.810526
2018-10-04T17:42:49.246718Z,-0.346188,-0.340804,0.569896
2018-10-04T17:42:49.432718Z,0.131172,-0.719388,-1.010376
2018-10-04T17:42:49.633718Z,0.10026499999999999,-0.338012,-0.315184
2018-10-04T17:42:49.831718Z,-0.019984000000000002,-0.129384,1.769577
2018-10-04T17:42:50.032718Z,1.092141,-0.872858,-1.027965
2018-10-04T17:42:50.269718Z,0.7413850000000001,-0.534958,-0.8126359999999999
2018-10-04T17:42:50.445718Z,0.546009,0.818074,-0.35696700000000003
2018-10-04T17:42:50.631718Z,0.494126,-0.328316,0.536231
2018-10-04T17:42:50.831718Z,0.809739,-0.910644,-0.47684099999999996
2018-10-04T17:42:51.055718Z,0.7850779999999999,-0.20540799999999998,-0.898523
2018-10-04T17:42:51.232718Z,0.6969489999999999,0.9321200000000001,-0.370523
2018-10-04T17:42:51.434718Z,0.726344,-0.171678,2.067286
2018-10-04T17:42:51.633718Z,1.7244439999999999,-1.379073,-0.723012
2018-10-04T17:42:51.866718Z,0.953044,-0.698839,-0.989085
2018-10-04T17:42:52.033718Z,-0.129075,0.31249899999999997,-0.30218
2018-10-04T17:42:52.234718Z,-0.053329999999999995,-1.351081,1.032546
2018-10-04T17:42:52.433718Z,0.15953,-1.296219,-0.240579
2018-10-04T17:42:52.633718Z,0.023125,-0.766954,-0.465075
2018-10-04T17:42:52.834718Z,0.367615,0.400913,1.1109149999999999
2018-10-04T17:42:53.035718Z,0.095158,-1.947793,0.410329
2018-10-04T17:42:53.233718Z,0.401868,-1.250027,-0.7168359999999999
2018-10-04T17:42:53.436718Z,0.240142,-0.41536000000000006,0.260336
2018-10-04T17:42:53.646718Z,0.481087,0.237882,1.441271
2018-10-04T17:42:53.834718Z,1.0564879999999999,-2.230962,0.341127
2018-10-04T17:42:54.034718Z,1.161146,-1.521652,0.359507
2018-10-04T17:42:54.234718Z,0.450092,-0.68358,0.505624
2018-10-04T17:42:54.436718Z,0.268959,-0.194056,1.895931
2018-10-04T17:42:54.636718Z,1.406519,-2.050236,-0.018977
2018-10-04T17:42:54.838718Z,0.8596870000000001,-0.859339,0.13351
2018-10-04T17:42:55.036718Z,0.583959,-0.369256,0.868001
2018-10-04T17:42:55.236718Z,-0.25299699999999997,-0.637088,1.7824939999999998
2018-10-04T17:42:55.435718Z,-0.746216,-1.579888,-0.47498900000000005
2018-10-04T17:42:55.635718Z,-0.6251979999999999,-0.78022,0.10808800000000002
2018-10-04T17:42:55.836718Z,-0.907375,-0.552763,0.6756340000000001
2018-10-04T17:42:56.050718Z,-1.9978049999999998,-0.975607,1.2491079999999999
2018-10-04T17:42:56.236718Z,-1.494682,-1.5609469999999999,0.034415
2018-10-04T17:42:56.437718Z,-0.332097,-0.869316,0.347717
2018-10-04T17:42:56.638718Z,0.5060899999999999,0.325789,0.527886
2018-10-04T17:42:56.837718Z,1.050427,0.34963299999999997,0.810688
2018-10-04T17:42:57.038718Z,0.379397,-0.731164,-0.593726
2018-10-04T17:42:57.238718Z,0.31969699999999995,0.038004,-0.090555
2018-10-04T17:42:57.439718Z,0.450115,0.727788,0.111195
2018-10-04T17:42:57.638718Z,0.079184,0.556279,1.006837
2018-10-04T17:42:57.838718Z,0.321517,-0.372193,-1.168031
2018-10-04T17:42:58.039718Z,0.29987800000000003,0.19558399999999998,0.41318599999999994
2018-10-04T17:42:58.238718Z,0.39329200000000003,0.437881,0.8099689999999999
2018-10-04T17:42:58.439718Z,0.618306,-0.7626189999999999,0.597379
2018-10-04T17:42:58.647718Z,0.548818,0.235415,-0.257802
2018-10-04T17:42:58.838718Z,0.517334,0.6679069999999999,0.776083
2018-10-04T17:42:59.052718Z,1.319304,-0.284094,0.6775100000000001
2018-10-04T17:42:59.240718Z,2.1085979999999998,-0.650304,-0.705534
2018-10-04T17:42:59.439718Z,0.088813,0.23857899999999999,0.685938
2018-10-04T17:42:59.640718Z,-0.202898,0.444583,0.8109609999999999
2018-10-04T17:42:59.839718Z,-0.353182,-1.474898,0.09678300000000001
2018-10-04T17:43:00.040718Z,0.032088,-0.8874209999999999,-0.370746
2018-10-04T17:43:00.241718Z,0.599644,-0.085234,0.863241
2018-10-04T17:43:00.528718Z,0.455338,-0.789467,-0.002579
2018-10-04T17:43:00.639718Z,0.123026,-0.41840299999999997,-0.4351
2018-10-04T17:43:00.840718Z,0.508707,0.593332,-0.7353029999999999
2018-10-04T17:43:01.040718Z,-0.693195,-0.733219,0.957052
2018-10-04T17:43:01.241718Z,-0.289531,-0.914328,-0.5225609999999999
2018-10-04T17:43:01.441718Z,0.022255,0.329452,-1.02884
2018-10-04T17:43:01.642718Z,-0.71078,0.399897,0.747184
2018-10-04T17:43:01.841718Z,0.214669,-1.1378629999999998,0.142833
2018-10-04T17:43:02.040718Z,0.251807,-0.734975,-1.13649
2018-10-04T17:43:02.240718Z,0.6058020000000001,0.702032,-0.45911499999999994
2018-10-04T17:43:02.442718Z,-0.365018,0.7125279999999999,1.211849
2018-10-04T17:43:02.654718Z,-0.192225,-0.714188,-0.569334
2018-10-04T17:43:02.841718Z,0.009963,0.22207399999999997,-0.852448
2018-10-04T17:43:03.041718Z,0.19379000000000002,0.640494,0.716206
2018-10-04T17:43:03.242718Z,0.361811,0.341181,0.9752850000000001
2018-10-04T17:43:03.444718Z,0.179743,-0.19856,-1.387857
2018-10-04T17:43:03.643718Z,-0.150122,0.44093699999999997,0.383058
2018-10-04T17:43:03.843718Z,-0.13126400000000002,0.03373,1.6908159999999999
2018-10-04T17:43:04.092718Z,-0.024624,-0.789324,0.44335600000000003
2018-10-04T17:43:04.242718Z,0.07315,-0.002023,-0.492147
2018-10-04T17:43:04.443718Z,-0.433655,0.607362,0.29636
2018-10-04T17:43:04.642718Z,-0.42516499999999996,0.043476999999999995,0.848777
2018-10-04T17:43:04.859718Z,1.006656,-0.859821,-0.30938499999999997
2018-10-04T17:43:05.045718Z,0.20644400000000002,0.459433,-0.309264
2018-10-04T17:43:05.244718Z,0.146602,0.661453,1.247608
2018-10-04T17:43:05.444718Z,-0.087479,-0.47358900000000004,1.159889
2018-10-04T17:43:05.709718Z,0.078124,-1.221463,-1.02296
2018-10-04T17:43:05.843718Z,-0.179411,0.813707,0.081572
2018-10-04T17:43:06.047718Z,0.2879,0.354152,0.8428190000000001
2018-10-04T17:43:06.243718Z,0.867927,-1.206316,0.23215
2018-10-04T17:43:06.445718Z,0.273412,-0.439651,-1.309644
2018-10-04T17:43:06.645718Z,0.33581500000000003,1.183439,0.80292
2018-10-04T17:43:06.845718Z,-0.033589,-0.3771,1.6003319999999999
2018-10-04T17:43:07.046718Z,-0.5807770000000001,-0.725928,-0.050602
2018-10-04T17:43:07.246718Z,0.781941,-1.5333629999999998,0.025476
2018-10-04T17:43:07.445718Z,0.16380899999999998,-0.176336,0.027906
2018-10-04T17:43:07.644718Z,-0.35183000000000003,-0.8704120000000001,1.01207
2018-10-04T17:43:07.845718Z,-1.200116,-1.422649,-0.559852
2018-10-04T17:43:08.046718Z,-0.68498,-0.14372000000000001,-0.528072
2018-10-04T17:43:08.260718Z,-0.7400770000000001,0.393859,0.775814
2018-10-04T17:43:08.447718Z,-0.653162,-0.615192,1.10671
2018-10-04T17:43:08.647718Z,-0.123947,-0.957673,-0.547805
2018-10-04T17:43:08.895718Z,0.30411,-0.272468,-0.6391140000000001
2018-10-04T17:43:09.046718Z,2.508664,-0.418537,2.188104
2018-10-04T17:43:09.258718Z,2.556788,-1.460941,0.407535
2018-10-04T17:43:09.450718Z,1.067197,-1.363892,-0.069512
2018-10-04T17:43:09.647718Z,0.262678,-0.563004,0.626671
2018-10-04T17:43:09.847718Z,-0.847282,-1.352722,1.033145
2018-10-04T17:43:10.049718Z,-1.060685,-1.0336670000000001,-0.095242
2018-10-04T17:43:10.314718Z,-1.027664,-0.7983359999999999,-0.7732060000000001
2018-10-04T17:43:10.447718Z,-1.863621,-0.123304,0.732611
2018-10-04T17:43:10.667718Z,-3.023182,-2.9100669999999997,1.472258
2018-10-04T17:43:10.859718Z,-2.501072,-3.072868,0.669324
2018-10-04T17:43:11.048718Z,0.343885,-1.6055780000000002,0.448536
2018-10-04T17:43:11.267718Z,1.2847870000000001,0.41995600000000005,0.89239
2018-10-04T17:43:11.449718Z,0.827548,-0.311128,0.13966199999999998
2018-10-04T17:43:11.649718Z,0.91924,-0.46927700000000006,-0.9667399999999999
2018-10-04T17:43:11.850718Z,1.05905,0.749815,-0.14721099999999998
2018-10-04T17:43:12.050718Z,1.087819,0.998713,0.9260719999999999
2018-10-04T17:43:12.249718Z,0.743739,-0.342448,-0.815611
2018-10-04T17:43:12.449718Z,0.350163,0.494267,-0.713232
2018-10-04T17:43:12.649718Z,0.087197,0.279473,0.9270790000000001
2018-10-04T17:43:12.865718Z,0.229456,-0.122589,0.8991309999999999
2018-10-04T17:43:13.050718Z,-0.355057,-0.281396,-0.464772
2018-10-04T17:43:13.251718Z,-0.7769739999999999,-0.09550499999999999,0.730648
2018-10-04T17:43:13.451718Z,-0.28649600000000003,-0.404798,0.873626
2018-10-04T17:43:13.651718Z,0.526742,-0.642304,-0.012276
2018-10-04T17:43:13.850718Z,0.890516,0.705477,0.191669
2018-10-04T17:43:14.052718Z,1.146822,0.38085,1.090825
2018-10-04T17:43:14.269718Z,1.413725,-0.7096560000000001,0.117849
2018-10-04T17:43:14.450718Z,1.8322330000000002,-0.515339,-0.12081099999999999
2018-10-04T17:43:14.651718Z,2.799232,-0.549487,1.530684
2018-10-04T17:43:14.850718Z,3.6568110000000003,-1.36934,0.316714
2018-10-04T17:43:15.051718Z,1.6740560000000002,-1.3891850000000001,-0.022056
2018-10-04T17:43:15.250718Z,0.49463999999999997,-0.9882709999999999,0.145995
2018-10-04T17:43:15.452718Z,-0.38204699999999997,-0.304675,1.566611
2018-10-04T17:43:15.691718Z,-0.091277,-1.8361759999999998,-0.614611
2018-10-04T17:43:15.876718Z,0.958101,-0.5298689999999999,-1.118123
2018-10-04T17:43:16.051718Z,0.720725,0.258286,0.80425
2018-10-04T17:43:16.251718Z,1.67553,-1.7419959999999999,0.781032
2018-10-04T17:43:16.452718Z,0.931797,-1.57686,-0.44877799999999995
2018-10-04T17:43:16.652718Z,0.718463,0.05879500000000001,0.41141300000000003
2018-10-04T17:43:16.892718Z,-0.132082,0.09796,1.66888
2018-10-04T17:43:17.053718Z,0.161347,-0.9128569999999999,-1.159913
2018-10-04T17:43:17.293718Z,0.279341,0.014715,0.079064
2018-10-04T17:43:17.455718Z,0.44431499999999996,-0.051552999999999995,1.671227
2018-10-04T17:43:17.755718Z,1.214157,-1.6373209999999998,1.539101
2018-10-04T17:43:17.917718Z,0.502789,-0.547359,-0.033769
2018-10-04T17:43:18.106718Z,0.253641,0.41579499999999997,1.226745
2018-10-04T17:43:18.264718Z,-0.8301930000000001,-1.25415,1.209506
2018-10-04T17:43:18.454718Z,-0.327346,-1.29067,-1.187557
2018-10-04T17:43:18.654718Z,-0.38452800000000004,0.522566,0.8232010000000001
2018-10-04T17:43:18.854718Z,0.548478,-1.205567,1.8522009999999998
2018-10-04T17:43:19.054718Z,0.842016,-1.164147,-1.598173
2018-10-04T17:43:19.254718Z,-0.152137,-0.589503,-0.32419000000000003
2018-10-04T17:43:19.456718Z,-0.62756,-0.9654010000000001,1.076774
2018-10-04T17:43:19.667718Z,-0.198451,-1.3401530000000001,-1.432034
2018-10-04T17:43:19.859718Z,-0.386284,-0.491171,-0.188495
2018-10-04T17:43:20.055718Z,-0.197599,0.8673270000000001,0.8971459999999999
2018-10-04T17:43:20.257718Z,0.46065,-1.506353,-0.433054
2018-10-04T17:43:20.458718Z,-0.087049,-0.416551,-0.528293
2018-10-04T17:43:20.678718Z,0.24027300000000001,0.499738,0.11288800000000002
2018-10-04T17:43:20.856718Z,0.13580599999999998,0.04185,1.6812029999999998
2018-10-04T17:43:21.056718Z,0.507994,-0.36302,-0.9038459999999999
2018-10-04T17:43:21.255718Z,0.048171,-0.140451,0.7919470000000001
2018-10-04T17:43:21.456718Z,-0.223649,0.43673999999999996,0.833283
2018-10-04T17:43:21.658718Z,0.858369,-1.233424,0.6721739999999999
2018-10-04T17:43:21.857718Z,0.257278,-0.169518,0.41430600000000006
2018-10-04T17:43:22.058718Z,-0.15379,0.35778000000000004,1.360316
2018-10-04T17:43:22.346718Z,0.078153,-1.1271200000000001,0.8240040000000001
2018-10-04T17:43:22.456718Z,0.9249649999999999,-1.20116,-0.8145479999999999
2018-10-04T17:43:22.659718Z,2.233794,-0.710091,1.3095510000000001
2018-10-04T17:43:22.859718Z,2.230496,-1.7256040000000001,1.133068
2018-10-04T17:43:23.057718Z,1.5124540000000002,-1.4778129999999998,-0.081825
2018-10-04T17:43:23.260718Z,0.355108,-1.0408540000000002,0.42431599999999997
2018-10-04T17:43:23.460718Z,-0.695191,-1.238014,-0.029639999999999996
2018-10-04T17:43:23.660718Z,-0.434508,-0.876052,-0.5680810000000001
2018-10-04T17:43:23.885718Z,-0.718704,-0.393307,0.090429
2018-10-04T17:43:24.059718Z,-2.15517,-0.702036,1.161226
2018-10-04T17:43:24.258718Z,-2.025313,-1.949873,-0.095509
2018-10-04T17:43:24.458718Z,-1.607229,-1.9142,0.16738
2018-10-04T17:43:24.659718Z,0.087505,-0.584824,0.22974699999999998
2018-10-04T17:43:24.860718Z,0.37605900000000003,0.43388999999999994,1.179816
2018-10-04T17:43:25.060718Z,-0.085648,-0.816821,-0.5307189999999999
2018-10-04T17:43:25.260718Z,0.14013299999999998,0.23529,-0.042622
2018-10-04T17:43:25.461718Z,0.611162,0.385835,0.9923200000000001
2018-10-04T17:43:25.668718Z,1.0048030000000001,-0.9806299999999999,0.8337110000000001
2018-10-04T17:43:25.864718Z,1.2794780000000001,0.23197600000000002,-0.201156
2018-10-04T17:43:26.059718Z,1.105315,0.306846,0.473941
2018-10-04T17:43:26.260718Z,1.538604,-0.741492,1.325432
2018-10-04T17:43:26.460718Z,2.357746,-1.536137,0.265264
2018-10-04T17:43:26.679718Z,-0.48206400000000005,-0.40527199999999997,0.031991000000000006
2018-10-04T17:43:26.862718Z,-0.622728,-0.47829399999999994,0.773931
2018-10-04T17:43:27.062718Z,0.20085899999999998,-1.8454549999999998,0.444633
2018-10-04T17:43:27.262718Z,-0.215229,-0.324293,-0.012536
2018-10-04T17:43:27.463718Z,-0.582603,-0.46587,0.5982529999999999
2018-10-04T17:43:27.663718Z,-0.463171,-1.016289,0.5493560000000001
2018-10-04T17:43:27.862718Z,0.010973,-1.816468,0.355759
2018-10-04T17:43:28.061718Z,-0.48252,-1.19813,-0.685038
2018-10-04T17:43:28.261718Z,0.584395,-1.043669,0.755318
2018-10-04T17:43:28.479718Z,1.123791,-0.35181999999999997,0.057442999999999994
2018-10-04T17:43:28.663718Z,1.165327,-0.5364979999999999,0.493359
2018-10-04T17:43:28.863718Z,0.3686,-0.224802,0.058702
2018-10-04T17:43:29.064718Z,0.9201030000000001,0.541771,-0.06789099999999999
2018-10-04T17:43:29.264718Z,0.549455,0.284846,0.5635760000000001
2018-10-04T17:43:29.465718Z,0.353937,-1.797007,0.9369069999999999
2018-10-04T17:43:29.664718Z,0.790226,-1.7918169999999998,-0.148445
2018-10-04T17:43:29.865718Z,-0.133262,0.208842,-0.169746
2018-10-04T17:43:30.082718Z,-0.528247,-1.2207569999999999,2.4950810000000003
2018-10-04T17:43:30.263718Z,-1.109764,-1.9579369999999998,0.37359899999999996
2018-10-04T17:43:30.463718Z,-0.58682,-1.07493,-2.076468
2018-10-04T17:43:30.664718Z,-1.873661,-0.796824,1.473221
2018-10-04T17:43:30.864718Z,-1.675288,-2.103958,0.12400699999999999
2018-10-04T17:43:31.085718Z,-0.393536,-0.911488,-0.736629
2018-10-04T17:43:31.265718Z,-0.684321,-0.391034,1.188324
2018-10-04T17:43:31.465718Z,0.7211609999999999,-0.9785879999999999,-0.45182799999999995
2018-10-04T17:43:31.665718Z,0.472242,-0.004693,-1.071901
2018-10-04T17:43:31.865718Z,0.37193200000000004,0.811426,0.9975200000000001
2018-10-04T17:43:32.067718Z,-0.30750700000000003,-0.01851,0.8583930000000001
2018-10-04T17:43:32.287718Z,0.334592,0.051042000000000004,-0.579018
2018-10-04T17:43:32.466718Z,0.087607,0.80296,0.5848
2018-10-04T17:43:32.665718Z,1.0527090000000001,-0.122867,1.125197
2018-10-04T17:43:32.865718Z,1.327893,-1.315834,-0.732781
2018-10-04T17:43:33.065718Z,0.317794,0.436778,1.297169
2018-10-04T17:43:33.267718Z,0.542098,-0.20975700000000003,1.038192
2018-10-04T17:43:33.541718Z,0.579862,-1.263751,-1.082173
2018-10-04T17:43:33.665718Z,-0.328104,0.221538,-0.9692350000000001
2018-10-04T17:43:33.905718Z,0.6151770000000001,-0.9370709999999999,1.015023
2018-10-04T17:43:34.066718Z,0.683326,-0.64988,-1.282222
2018-10-04T17:43:34.267718Z,0.089662,0.155221,-0.667728
2018-10-04T17:43:34.468718Z,-0.196487,1.8706369999999999,0.5675979999999999
2018-10-04T17:43:34.667718Z,-0.342982,-1.5701379999999998,-0.358877
2018-10-04T17:43:34.867718Z,-0.127254,-0.470473,-1.55765
2018-10-04T17:43:35.067718Z,0.045792,1.5145959999999998,0.187986
2018-10-04T17:43:35.267718Z,-1.270976,0.021832,1.4381190000000001
2018-10-04T17:43:35.468718Z,-0.42410200000000003,-0.7558560000000001,-1.404536
2018-10-04T17:43:35.668718Z,0.363431,1.049213,-0.289403
2018-10-04T17:43:35.868718Z,-0.313474,0.326746,2.292438
2018-10-04T17:43:36.069718Z,0.153317,-1.1104559999999999,0.262373
2018-10-04T17:43:36.369718Z,0.252998,0.208445,-0.770514
2018-10-04T17:43:36.468718Z,-0.31937600000000005,0.867317,1.288474
2018-10-04T17:43:36.718718Z,-0.003421,-0.94215,0.9769479999999999
2018-10-04T17:43:36.869718Z,-0.050157,-0.8257479999999999,-1.495503
2018-10-04T17:43:37.070718Z,-0.375658,0.92929,1.464923
2018-10-04T17:43:37.269718Z,-0.274301,-0.806297,0.750868
2018-10-04T17:43:37.470718Z,0.60855,-0.648884,-1.6770599999999998
2018-10-04T17:43:37.685718Z,0.07854900000000001,-0.114202,-0.398831
2018-10-04T17:43:37.886718Z,1.308283,-1.517973,0.930567
2018-10-04T17:43:38.083718Z,0.286932,-0.60193,-1.8527220000000002
2018-10-04T17:43:38.269718Z,-0.197551,0.740003,-0.7861600000000001
2018-10-04T17:43:38.470718Z,0.47761499999999996,0.910343,1.819025
2018-10-04T17:43:38.671718Z,0.44550500000000004,-0.8444440000000001,-1.38295
2018-10-04T17:43:38.871718Z,0.535098,0.429129,0.082886
2018-10-04T17:43:39.072718Z,0.447238,0.55128,1.057228
2018-10-04T17:43:39.335718Z,0.13433,-0.8945110000000001,0.964715
2018-10-04T17:43:39.487718Z,-0.067558,0.006014,-0.185968
2018-10-04T17:43:39.689718Z,-0.329393,0.939126,0.400518
2018-10-04T17:43:39.873718Z,-1.023242,0.052404,1.047754
2018-10-04T17:43:40.072718Z,-0.305698,-1.002553,-0.557631
2018-10-04T17:43:40.271718Z,-0.558068,0.616147,-0.7993239999999999
2018-10-04T17:43:40.471718Z,-0.142843,1.2710299999999999,2.275815
2018-10-04T17:43:40.691718Z,1.109002,-0.902418,0.567124
2018-10-04T17:43:40.872718Z,-0.605371,-0.849756,-1.759785
2018-10-04T17:43:41.073718Z,-0.911767,0.9511950000000001,0.700303
2018-10-04T17:43:41.290718Z,-1.0439530000000001,-0.064135,1.021627
2018-10-04T17:43:41.473718Z,-1.179552,-0.986643,-1.3624049999999999
2018-10-04T17:43:41.673718Z,-0.392629,0.155826,-0.7515890000000001
2018-10-04T17:43:41.873718Z,0.662456,-0.062987,0.419933
2018-10-04T17:43:42.073718Z,0.558391,-0.422363,-0.9293030000000001
2018-10-04T17:43:42.291718Z,0.5353,0.480249,-0.9370139999999999
2018-10-04T17:43:42.475718Z,0.40466399999999997,1.168975,0.511249
2018-10-04T17:43:42.675718Z,0.140435,-1.189545,-0.388585
2018-10-04T17:43:42.891718Z,0.7431369999999999,-0.189388,-1.1088930000000001
2018-10-04T17:43:43.074718Z,0.9929379999999999,0.711799,0.513062
2018-10-04T17:43:43.274718Z,1.575995,0.370908,1.9186729999999999
2018-10-04T17:43:43.504718Z,2.2182880000000003,-1.326443,-0.065565
2018-10-04T17:43:43.674718Z,1.478175,-0.228785,0.295543
2018-10-04T17:43:43.875718Z,0.945184,-1.001064,2.0732720000000002
2018-10-04T17:43:44.074718Z,0.455769,-1.7465099999999998,0.290779
2018-10-04T17:43:44.276718Z,-0.7605390000000001,0.9153690000000001,0.443039
2018-10-04T17:43:44.475718Z,-0.268523,-0.058961,2.692732
2018-10-04T17:43:44.676718Z,0.661187,-2.095392,0.8496290000000001
2018-10-04T17:43:44.920718Z,0.619984,-1.544022,-1.703175
2018-10-04T17:43:45.122718Z,-0.470944,0.313768,0.9742059999999999
2018-10-04T17:43:45.274718Z,-1.152193,-1.931184,0.773932
2018-10-04T17:43:45.476718Z,-0.136256,-1.479098,-1.274106
2018-10-04T17:43:45.675718Z,0.017124,-0.082263,0.999172
2018-10-04T17:43:45.875718Z,1.297536,-1.589475,-0.839843
2018-10-04T17:43:46.099718Z,0.744658,-0.496305,-0.796647
2018-10-04T17:43:46.275718Z,-1.100378,0.492724,1.825927
2018-10-04T17:43:46.477718Z,-0.907228,-1.6054979999999999,0.8641030000000001
2018-10-04T17:43:46.676718Z,-0.07584199999999999,0.636054,0.6377
2018-10-04T17:43:46.877718Z,-0.21616,0.280939,1.0064030000000002
2018-10-04T17:43:47.078718Z,0.931316,-1.7789669999999997,0.108116
2018-10-04T17:43:47.292718Z,0.822917,-0.8398200000000001,-1.618968
2018-10-04T17:43:47.476718Z,-0.354137,-0.468275,2.137491
2018-10-04T17:43:47.677718Z,0.172474,-1.352708,-0.770212
2018-10-04T17:43:47.878718Z,0.565052,-0.710482,-1.072078
2018-10-04T17:43:48.078718Z,0.22240100000000002,1.029076,0.715741
2018-10-04T17:43:48.280718Z,1.295053,-1.8497150000000002,1.485075
2018-10-04T17:43:48.480718Z,1.811664,-0.925583,-0.253882
2018-10-04T17:43:48.680718Z,2.101969,-0.652864,0.750919
2018-10-04T17:43:48.887718Z,-0.069496,1.563615,1.244586
2018-10-04T17:43:49.091718Z,0.991416,-2.54999,0.025568
2018-10-04T17:43:49.279718Z,0.378013,-0.67479,0.13606600000000002
2018-10-04T17:43:49.479718Z,-0.444518,-0.369267,1.785236
2018-10-04T17:43:49.680718Z,0.7184020000000001,-1.390816,1.6481310000000002
2018-10-04T17:43:49.937718Z,-0.200551,0.236621,0.302618
2018-10-04T17:43:50.079718Z,-0.95563,0.242982,1.7997779999999999
2018-10-04T17:43:50.294718Z,-0.850305,-1.010098,-0.125223
2018-10-04T17:43:50.479718Z,-0.5439609999999999,-0.7573489999999999,-1.400549
2018-10-04T17:43:50.694718Z,-0.15177100000000002,-0.21662800000000001,2.184545
2018-10-04T17:43:50.880718Z,0.633307,-1.312355,0.45748
2018-10-04T17:43:51.080718Z,0.594743,-0.687282,-1.096169
2018-10-04T17:43:51.281718Z,0.06681000000000001,-0.18414,0.185592
2018-10-04T17:43:51.503718Z,0.454539,-1.152116,-1.2349809999999999
2018-10-04T17:43:51.681718Z,-0.28723200000000004,-0.45685200000000004,0.031443
2018-10-04T17:43:51.880718Z,-0.014516,0.44424600000000003,1.542178
2018-10-04T17:43:52.080718Z,0.7129880000000001,-0.664738,0.8932180000000001
2018-10-04T17:43:52.282718Z,0.5856520000000001,0.227607,-0.293432
2018-10-04T17:43:52.483718Z,0.127957,0.700743,1.1617600000000001
2018-10-04T17:43:52.699718Z,0.008265,-1.245059,0.29933899999999997
2018-10-04T17:43:52.882718Z,0.14779,-0.689033,-1.1927889999999999
2018-10-04T17:43:53.083718Z,-0.13816199999999998,-0.232842,2.166548
2018-10-04T17:43:53.282718Z,0.39061,-0.774679,-0.1931
2018-10-04T17:43:53.482718Z,0.056008,-0.517072,-1.087481
2018-10-04T17:43:53.682718Z,0.214106,0.120519,1.3501610000000002
2018-10-04T17:43:53.881718Z,0.154816,-0.903445,-0.269911
2018-10-04T17:43:54.082718Z,0.580588,0.10157200000000001,-0.25792
2018-10-04T17:43:54.284718Z,1.4426700000000001,0.29882800000000004,1.410092
2018-10-04T17:43:54.482718Z,2.535534,-1.745522,0.260403
2018-10-04T17:43:54.684718Z,0.059188,0.707821,1.7254909999999999
2018-10-04T17:43:54.884718Z,-0.396284,-0.85003,1.185664
2018-10-04T17:43:55.084718Z,0.293557,-1.040435,-0.631303
2018-10-04T17:43:55.284718Z,0.014966,-0.34469099999999997,-0.525841
2018-10-04T17:43:55.484718Z,0.449137,-0.871886,0.736278
