Datetime,accx,accy,accz
2018-10-16T21:40:46.677373Z,0.0,0.0,0.0
2018-10-16T21:40:46.875373Z,0.000851,-0.049011,0.064685
2018-10-16T21:40:47.079373Z,-0.227413,0.5517380000000001,-0.20901399999999998
2018-10-16T21:40:47.278373Z,-0.075023,0.322705,0.5485270000000001
2018-10-16T21:40:47.476373Z,-0.160616,-0.162679,0.382652
2018-10-16T21:40:47.677373Z,0.087082,-1.269319,-0.300214
2018-10-16T21:40:47.878373Z,0.11644700000000001,-0.220177,-1.099849
2018-10-16T21:40:48.080373Z,-0.41385,0.941025,0.749251
2018-10-16T21:40:48.288373Z,-0.147825,-0.162108,0.83139
2018-10-16T21:40:48.494373Z,0.225268,-1.052619,-0.364667
2018-10-16T21:40:48.688373Z,-1.046282,-0.311195,-1.457533
2018-10-16T21:40:48.877373Z,-0.5021260000000001,0.953958,1.438312
2018-10-16T21:40:49.079373Z,-0.134823,-0.6541319999999999,0.81348
2018-10-16T21:40:49.278373Z,0.382784,-0.944782,-0.999347
2018-10-16T21:40:49.496373Z,0.065375,0.828866,-0.191702
2018-10-16T21:40:49.678373Z,0.088049,0.564369,0.969404
2018-10-16T21:40:49.877373Z,0.125329,-0.725378,-0.6277
2018-10-16T21:40:50.149373Z,0.20968499999999998,-0.085116,-0.557251
2018-10-16T21:40:50.279373Z,0.5145890000000001,1.142009,0.48021400000000003
2018-10-16T21:40:50.478373Z,-0.425253,-0.208538,0.46813299999999997
2018-10-16T21:40:50.678373Z,0.41958599999999996,-0.744675,-0.71067
2018-10-16T21:40:50.879373Z,-0.29631599999999997,0.01707,-0.404221
2018-10-16T21:40:51.081373Z,0.860758,0.726985,1.311201
2018-10-16T21:40:51.279373Z,0.518053,-0.5803689999999999,-0.45311599999999996
2018-10-16T21:40:51.480373Z,0.19411,0.17613499999999999,-0.52527
2018-10-16T21:40:51.679373Z,0.08428300000000001,0.11608199999999999,0.8737280000000001
2018-10-16T21:40:51.879373Z,-0.019356,-0.48845,-0.333246
2018-10-16T21:40:52.081373Z,-0.051979,-0.258286,-0.445884
2018-10-16T21:40:52.280373Z,-0.358073,0.42479799999999995,0.752707
2018-10-16T21:40:52.480373Z,1.148755,-0.452205,0.5834050000000001
2018-10-16T21:40:52.680373Z,0.548481,-0.172198,-1.432294
2018-10-16T21:40:52.881373Z,0.057816,0.632841,0.314729
2018-10-16T21:40:53.082373Z,-0.41016899999999995,0.089753,1.053421
2018-10-16T21:40:53.281373Z,0.07897699999999999,-0.6733399999999999,-1.076174
2018-10-16T21:40:53.481373Z,0.042437,0.026769,0.130133
2018-10-16T21:40:53.706373Z,-0.07019,0.470893,0.8615229999999999
2018-10-16T21:40:53.881373Z,0.037651,-1.356331,0.027679000000000002
2018-10-16T21:40:54.083373Z,0.18119200000000002,-0.056821,-1.1170280000000001
2018-10-16T21:40:54.281373Z,0.29146500000000003,1.285524,0.956161
2018-10-16T21:40:54.481373Z,0.315033,-0.910324,0.40166
2018-10-16T21:40:54.682373Z,0.9500149999999999,-0.21339699999999998,-1.197608
2018-10-16T21:40:54.883373Z,-0.393088,0.6645300000000001,0.41131
2018-10-16T21:40:55.102373Z,0.301683,-0.163712,0.402929
2018-10-16T21:40:55.282373Z,-0.786237,-0.675937,-1.075458
2018-10-16T21:40:55.482373Z,-0.019045,0.7091970000000001,0.120924
2018-10-16T21:40:55.681373Z,-0.34666399999999997,0.194443,1.183332
2018-10-16T21:40:55.882373Z,-0.5360560000000001,-0.542905,-1.317172
2018-10-16T21:40:56.084373Z,0.221338,0.375735,-0.054322
2018-10-16T21:40:56.307373Z,-0.337412,0.333465,0.6360399999999999
2018-10-16T21:40:56.484373Z,-0.552477,-0.527656,-0.57534
2018-10-16T21:40:56.682373Z,-0.373658,0.194854,-0.367769
2018-10-16T21:40:56.881373Z,-1.438607,0.368663,1.0082360000000001
2018-10-16T21:40:57.093373Z,-1.135105,-0.997195,-0.47453100000000004
2018-10-16T21:40:57.281373Z,-0.862799,-1.0985200000000002,-0.370338
2018-10-16T21:40:57.482373Z,-0.49501999999999996,-1.312542,-0.194222
2018-10-16T21:40:57.681373Z,0.0,0.0,0.0
2018-10-16T21:40:57.882373Z,-0.61893,0.454654,-0.977461
2018-10-16T21:40:58.080373Z,0.11696600000000001,1.371349,0.9646040000000001
2018-10-16T21:40:58.281373Z,-0.342264,-0.199012,0.72996
2018-10-16T21:40:58.482373Z,-0.003426,-0.440038,-0.775991
2018-10-16T21:40:58.682373Z,0.028557,1.238194,0.21207600000000001
2018-10-16T21:40:58.896373Z,0.6006060000000001,0.741567,1.384934
2018-10-16T21:40:59.081373Z,0.505844,-1.0407540000000002,-0.8169850000000001
2018-10-16T21:40:59.336373Z,-0.19330799999999998,0.05339,-0.672802
2018-10-16T21:40:59.482373Z,-0.119152,0.9172790000000001,1.6456669999999998
2018-10-16T21:40:59.682373Z,0.23508400000000002,-0.8754940000000001,0.590108
2018-10-16T21:40:59.882373Z,0.33821100000000004,-0.923374,-0.783385
2018-10-16T21:41:00.082373Z,-0.040856,0.189617,0.300694
2018-10-16T21:41:00.284373Z,-0.31547600000000003,0.016092,0.256825
2018-10-16T21:41:00.501373Z,-0.929723,-0.6452260000000001,-0.386024
2018-10-16T21:41:00.682373Z,-0.757071,0.023867,-0.280469
2018-10-16T21:41:01.008373Z,-0.263488,-0.577592,0.964464
2018-10-16T21:41:01.205373Z,0.063419,0.065178,-0.26921300000000004
2018-10-16T21:41:01.406373Z,0.46248199999999995,0.506474,0.796898
2018-10-16T21:41:01.606373Z,1.507259,-0.438503,0.006855
2018-10-16T21:41:01.806373Z,1.808993,-0.28263699999999997,-0.374163
2018-10-16T21:41:02.006373Z,1.5918219999999998,0.495835,-0.081848
2018-10-16T21:41:02.222373Z,1.5825420000000001,-0.028004,0.70881
2018-10-16T21:41:02.407373Z,2.521684,-0.798042,0.6365689999999999
2018-10-16T21:41:02.607373Z,1.727915,-0.79819,0.259577
2018-10-16T21:41:02.809373Z,0.351377,-0.543048,0.6398189999999999
2018-10-16T21:41:03.011373Z,0.5018279999999999,-0.566398,0.524014
2018-10-16T21:41:03.211373Z,0.7642220000000001,-0.12005899999999999,-0.122931
2018-10-16T21:41:03.409373Z,0.07158300000000001,0.358222,0.591328
2018-10-16T21:41:03.609373Z,-0.595695,-0.7139979999999999,0.356267
2018-10-16T21:41:03.810373Z,-0.885906,-1.032441,-0.342275
2018-10-16T21:41:04.011373Z,-0.298735,0.124973,-0.051126
2018-10-16T21:41:04.219373Z,0.17441199999999998,-0.543582,1.60711
2018-10-16T21:41:04.427373Z,0.379212,-0.973952,-0.650281
2018-10-16T21:41:04.608373Z,0.086923,-0.078692,-0.259475
2018-10-16T21:41:04.808373Z,-0.790334,-0.222201,1.4959049999999998
2018-10-16T21:41:05.008373Z,-0.75376,-1.808874,-0.019808000000000003
2018-10-16T21:41:05.210373Z,-0.29793400000000003,-0.902802,0.285089
2018-10-16T21:41:05.410373Z,-0.673299,-0.667667,0.89633
2018-10-16T21:41:05.609373Z,-0.380296,-0.735151,0.307285
2018-10-16T21:41:05.809373Z,-0.638333,-0.156524,-0.29849699999999996
2018-10-16T21:41:05.886373Z,-0.5134569999999999,0.16024000000000002,-0.4286
2018-10-16T21:41:06.087373Z,-0.591009,-0.06016799999999999,0.24678899999999998
2018-10-16T21:41:06.288373Z,-0.365442,-0.281225,0.523388
2018-10-16T21:41:06.487373Z,-0.27254,-0.311246,-0.188683
2018-10-16T21:41:06.687373Z,0.372411,0.5373760000000001,-0.315046
2018-10-16T21:41:06.899373Z,0.585613,0.756107,0.67802
2018-10-16T21:41:07.088373Z,1.010625,-0.20130399999999998,0.130114
2018-10-16T21:41:07.287373Z,0.384454,-0.248781,-1.2654610000000002
2018-10-16T21:41:07.490373Z,0.49460299999999996,0.8876299999999999,0.624398
2018-10-16T21:41:07.707373Z,0.17219,-0.282333,1.307143
2018-10-16T21:41:07.911373Z,0.22373,-0.928924,-0.8188380000000001
2018-10-16T21:41:08.088373Z,0.644976,-0.20651999999999998,0.382968
2018-10-16T21:41:08.288373Z,0.266525,-0.43799,0.9875879999999999
2018-10-16T21:41:08.489373Z,0.38509099999999996,-1.462344,0.14819300000000002
2018-10-16T21:41:08.689373Z,-0.173851,0.245878,-0.955901
2018-10-16T21:41:08.889373Z,0.9580549999999999,0.409999,-0.082247
2018-10-16T21:41:09.089373Z,0.594526,1.451535,0.6080439999999999
2018-10-16T21:41:09.453373Z,0.455481,-0.047435000000000005,-0.669345
2018-10-16T21:41:09.652373Z,0.35444000000000003,1.08533,0.72115
2018-10-16T21:41:09.851373Z,0.42934700000000003,-0.140145,0.802361
2018-10-16T21:41:10.098373Z,0.37876,-0.9401280000000001,-0.863513
2018-10-16T21:41:10.250373Z,0.031939999999999996,0.176315,-0.45624
2018-10-16T21:41:10.452373Z,-0.964873,0.080889,0.666877
2018-10-16T21:41:10.652373Z,-1.293384,-1.133679,0.6394380000000001
2018-10-16T21:41:10.851373Z,-0.9479190000000001,-1.592957,-0.209525
2018-10-16T21:41:10.915373Z,-0.761422,-1.637302,-0.137154
2018-10-16T21:41:11.091373Z,0.28125500000000003,-0.5196850000000001,0.64545
2018-10-16T21:41:11.299373Z,0.82547,0.163833,1.1534799999999998
2018-10-16T21:41:11.490373Z,1.259147,-1.08004,-0.319965
2018-10-16T21:41:11.736373Z,1.020018,-0.083694,-1.000887
2018-10-16T21:41:11.891373Z,0.967091,1.0029379999999999,0.9692129999999999
2018-10-16T21:41:12.101373Z,0.7288319999999999,-0.48789899999999997,0.9495030000000001
2018-10-16T21:41:12.301373Z,1.159633,-1.423049,-0.610467
2018-10-16T21:41:12.544373Z,1.241811,0.5433100000000001,-0.016221
2018-10-16T21:41:12.722373Z,1.576858,0.08133,1.2751569999999999
2018-10-16T21:41:12.892373Z,2.225739,-1.0768209999999998,0.034376
2018-10-16T21:41:13.091373Z,1.824686,-0.6491319999999999,0.335188
2018-10-16T21:41:13.308373Z,0.8288139999999999,-0.81128,1.427927
2018-10-16T21:41:13.492373Z,0.130981,-1.218925,0.338606
2018-10-16T21:41:13.692373Z,0.389706,0.158931,-0.404504
2018-10-16T21:41:13.893373Z,-0.245579,0.068624,0.55561
2018-10-16T21:41:14.093373Z,0.102107,0.034149,0.345665
2018-10-16T21:41:14.293373Z,0.051507000000000004,-1.019479,-0.118627
2018-10-16T21:41:14.535373Z,0.18906099999999998,0.004786,-0.412516
2018-10-16T21:41:14.736373Z,-0.729151,-0.128864,1.033315
2018-10-16T21:41:14.934373Z,-0.53786,-0.21021199999999998,0.268719
2018-10-16T21:41:15.135373Z,-0.644143,-0.760537,-0.45038900000000004
2018-10-16T21:41:15.334373Z,0.085509,-0.426695,0.276343
2018-10-16T21:41:15.558373Z,1.335173,0.6011029999999999,0.781142
2018-10-16T21:41:15.735373Z,1.049604,-0.964909,0.44397700000000007
2018-10-16T21:41:15.935373Z,1.103893,-1.649386,-0.318388
2018-10-16T21:41:16.135373Z,1.43782,-0.106577,-0.004333
2018-10-16T21:41:16.335373Z,1.152915,0.8624219999999999,0.476867
2018-10-16T21:41:16.537373Z,0.055941,-0.23431,0.7558779999999999
2018-10-16T21:41:16.746373Z,-0.399332,-1.121738,-0.092053
2018-10-16T21:41:16.936373Z,-0.377725,-0.614692,-0.21394899999999997
2018-10-16T21:41:17.136373Z,-0.240635,-0.27816199999999996,0.550921
2018-10-16T21:41:17.336373Z,0.24494499999999997,-0.6439090000000001,1.231144
2018-10-16T21:41:17.536373Z,0.188773,-1.120809,-0.9031629999999999
2018-10-16T21:41:17.737373Z,0.079277,-0.412041,-0.129849
2018-10-16T21:41:17.961373Z,-0.6953600000000001,0.05779600000000001,1.363306
2018-10-16T21:41:18.138373Z,-0.573137,-1.230076,-0.28658
2018-10-16T21:41:18.337373Z,0.023003,-0.6382899999999999,-0.640397
2018-10-16T21:41:18.538373Z,0.08367999999999999,0.338442,1.2813379999999999
2018-10-16T21:41:18.737373Z,0.34936,-0.9293020000000001,0.563082
2018-10-16T21:41:18.939373Z,0.277888,-0.782795,-1.032437
2018-10-16T21:41:19.139373Z,-0.014931,0.059257000000000004,0.338163
2018-10-16T21:41:19.338373Z,0.033233,-0.360746,1.317369
2018-10-16T21:41:19.548373Z,-0.514583,-1.280809,-0.7186359999999999
2018-10-16T21:41:19.753373Z,-0.643087,-0.445543,-0.230373
2018-10-16T21:41:19.939373Z,-0.840498,0.010364,0.952016
2018-10-16T21:41:20.139373Z,-0.6786300000000001,-0.9017639999999999,0.083495
2018-10-16T21:41:20.339373Z,-0.627518,-0.311231,-0.35978899999999997
2018-10-16T21:41:20.539373Z,0.7251310000000001,0.33719499999999997,0.413642
2018-10-16T21:41:20.759373Z,0.686842,0.821551,0.506761
2018-10-16T21:41:20.940373Z,-0.019487,-0.170718,-0.069483
2018-10-16T21:41:21.138373Z,-0.574548,-0.582542,-0.669724
2018-10-16T21:41:21.352373Z,0.23570700000000003,0.481188,-0.06328099999999999
2018-10-16T21:41:21.539373Z,0.027093,-0.24278899999999998,1.4359469999999999
2018-10-16T21:41:21.739373Z,-0.413322,-1.3956389999999999,-0.43765
2018-10-16T21:41:21.940373Z,-0.37811999999999996,-0.784814,-0.300823
2018-10-16T21:41:22.141373Z,-0.37578,0.017756,0.389782
2018-10-16T21:41:22.341373Z,-0.045295,-1.026889,0.671714
2018-10-16T21:41:22.540373Z,0.276633,-0.6394449999999999,-0.171718
2018-10-16T21:41:22.742373Z,0.46483,0.07070900000000001,0.36765
2018-10-16T21:41:22.941373Z,0.38609099999999996,1.087153,0.3611
2018-10-16T21:41:23.139373Z,1.3155299999999999,-3.454364,2.607357
2018-10-16T21:41:23.340373Z,1.7136630000000002,0.310487,-2.4314169999999997
2018-10-16T21:41:23.542373Z,-0.34145,-1.139205,0.848841
2018-10-16T21:41:23.741373Z,0.188608,0.600176,-0.409792
2018-10-16T21:41:23.942373Z,0.7033119999999999,-0.35583899999999996,-0.809337
2018-10-16T21:41:24.142373Z,1.48888,0.6996939999999999,0.6844359999999999
2018-10-16T21:41:24.342373Z,1.285023,-0.680561,0.824737
2018-10-16T21:41:24.542373Z,0.75437,-0.208707,-0.8978010000000001
2018-10-16T21:41:24.743373Z,1.1235950000000001,0.565842,-0.003189
2018-10-16T21:41:24.941373Z,0.5151100000000001,0.186999,0.674077
2018-10-16T21:41:25.151373Z,0.397656,-0.125139,-0.643155
2018-10-16T21:41:25.342373Z,0.179279,0.194414,-0.136397
2018-10-16T21:41:25.541373Z,0.853992,-0.791518,1.6621419999999998
2018-10-16T21:41:25.741373Z,1.414467,-0.765948,-0.193772
2018-10-16T21:41:25.943373Z,1.130908,0.074374,-0.823959
2018-10-16T21:41:26.143373Z,0.8675379999999999,0.8788799999999999,0.6331680000000001
2018-10-16T21:41:26.343373Z,0.133674,-0.246842,0.692611
2018-10-16T21:41:26.584373Z,0.309679,-0.39410300000000004,-0.369027
2018-10-16T21:41:26.779373Z,0.13742200000000002,-0.12202,-0.263153
2018-10-16T21:41:26.943373Z,-0.443223,0.505727,-0.127951
2018-10-16T21:41:27.143373Z,-1.569388,-0.16253599999999999,1.386333
2018-10-16T21:41:27.343373Z,-1.558843,-1.149355,-0.39566
2018-10-16T21:41:27.582373Z,-1.52939,-0.32181,-0.49724300000000005
2018-10-16T21:41:27.744373Z,-0.671458,0.256517,0.016111
2018-10-16T21:41:27.946373Z,0.440503,-0.376392,1.166693
2018-10-16T21:41:28.145373Z,0.561127,-1.318401,0.167976
2018-10-16T21:41:28.345373Z,1.135047,0.093925,-0.850369
2018-10-16T21:41:28.545373Z,1.018735,0.369732,0.8542850000000001
2018-10-16T21:41:28.756373Z,1.316008,0.021438,1.165131
2018-10-16T21:41:28.945373Z,1.364059,-1.150441,-0.145988
2018-10-16T21:41:29.160373Z,1.345659,-0.18437699999999999,-0.632798
2018-10-16T21:41:29.345373Z,0.7119449999999999,0.87182,0.192459
2018-10-16T21:41:29.546373Z,0.076738,-0.11231300000000001,0.525663
2018-10-16T21:41:29.746373Z,-0.086457,-0.9841340000000001,0.22577600000000003
2018-10-16T21:41:29.947373Z,0.313684,-0.548573,-0.49905900000000003
2018-10-16T21:41:30.163373Z,0.30598000000000003,-0.05563,0.329369
2018-10-16T21:41:30.345373Z,0.677507,-0.371754,1.116689
2018-10-16T21:41:30.561373Z,1.469323,-2.029995,-0.11462699999999999
2018-10-16T21:41:30.759373Z,1.1242370000000002,-1.502952,-0.31149699999999997
2018-10-16T21:41:30.946373Z,0.662004,-0.023589,0.718362
2018-10-16T21:41:31.147373Z,0.080295,-0.401783,1.2360799999999998
2018-10-16T21:41:31.345373Z,0.21152100000000001,-2.097702,-0.33979299999999996
2018-10-16T21:41:31.558373Z,-0.289638,-1.27445,-0.5203800000000001
2018-10-16T21:41:31.746373Z,0.147028,0.286575,0.5816060000000001
2018-10-16T21:41:31.947373Z,0.040079000000000004,-0.672999,1.028713
2018-10-16T21:41:32.147373Z,0.602371,-1.428688,-0.882386
2018-10-16T21:41:32.367373Z,-0.189116,-0.380716,-0.169567
2018-10-16T21:41:32.548373Z,-0.147859,0.09702000000000001,1.304913
2018-10-16T21:41:32.746373Z,0.02405,-1.196969,0.550036
2018-10-16T21:41:32.946373Z,0.06784,-0.8959030000000001,-1.29627
2018-10-16T21:41:33.147373Z,-0.0042,0.034769,-0.24589299999999997
2018-10-16T21:41:33.347373Z,-0.190277,0.316648,1.273731
2018-10-16T21:41:33.548373Z,0.44723,-1.1071469999999999,0.197805
2018-10-16T21:41:33.749373Z,0.024725999999999998,-0.815291,-0.904244
2018-10-16T21:41:33.948373Z,-0.66437,-0.200466,0.492918
2018-10-16T21:41:34.150373Z,-0.097308,-0.257023,1.2926879999999998
2018-10-16T21:41:34.348373Z,-0.146927,-0.895849,-0.42706400000000005
2018-10-16T21:41:34.570373Z,-0.34621599999999997,-0.436395,-0.776266
2018-10-16T21:41:34.748373Z,-1.069795,-0.013000999999999999,0.516756
2018-10-16T21:41:34.949373Z,-0.536357,-1.060106,0.396958
2018-10-16T21:41:35.166373Z,-0.785493,-0.857764,-0.43358
2018-10-16T21:41:35.349373Z,0.705709,-0.082636,0.24862199999999998
2018-10-16T21:41:35.548373Z,0.31042600000000004,-1.625508,1.123268
2018-10-16T21:41:35.750373Z,0.959764,0.245193,-0.9974379999999999
2018-10-16T21:41:35.950373Z,0.604378,0.811184,-0.143511
2018-10-16T21:41:36.150373Z,0.724352,0.704886,0.603861
2018-10-16T21:41:36.350373Z,0.718429,-0.758315,0.42565200000000003
2018-10-16T21:41:36.562373Z,0.452834,0.001352,-0.760468
2018-10-16T21:41:36.765373Z,0.366699,0.339672,-0.141495
2018-10-16T21:41:36.951373Z,-1.0368680000000001,-0.30186199999999996,0.5035430000000001
2018-10-16T21:41:37.149373Z,-1.536922,-0.815858,-0.088532
2018-10-16T21:41:37.351373Z,-1.140587,-0.639907,-0.44216300000000003
2018-10-16T21:41:37.551373Z,0.144612,0.06614,0.158631
2018-10-16T21:41:37.760373Z,1.131082,1.016602,0.584048
2018-10-16T21:41:37.965373Z,0.943275,-0.697248,0.51543
2018-10-16T21:41:38.150373Z,0.334567,-0.600978,-0.745945
2018-10-16T21:41:38.350373Z,1.03777,0.32645599999999997,0.21482800000000002
2018-10-16T21:41:38.551373Z,0.587094,-0.351902,1.321189
2018-10-16T21:41:38.751373Z,1.999956,-0.497276,-0.563293
2018-10-16T21:41:38.951373Z,1.78108,-0.02246,-0.233585
2018-10-16T21:41:39.152373Z,1.5514139999999998,-0.194878,1.177193
2018-10-16T21:41:39.351373Z,1.903087,-1.13576,0.057766
2018-10-16T21:41:39.553373Z,1.484893,-0.484005,-0.24562199999999998
2018-10-16T21:41:39.751373Z,-0.226352,-0.414929,0.7823289999999999
2018-10-16T21:41:40.029373Z,-0.386154,-0.286394,0.381324
2018-10-16T21:41:40.151373Z,-0.9493360000000001,-0.606278,-0.67275
2018-10-16T21:41:40.388373Z,-1.681346,-0.514124,0.722901
2018-10-16T21:41:40.552373Z,-2.1039209999999997,-0.8435290000000001,0.7256739999999999
2018-10-16T21:41:40.752373Z,-2.131756,-1.129384,-0.512021
2018-10-16T21:41:40.953373Z,-0.731355,-1.050929,0.140623
2018-10-16T21:41:41.153373Z,1.062022,-0.042955,0.896858
2018-10-16T21:41:41.417373Z,1.546167,-0.725143,0.29159
2018-10-16T21:41:41.553373Z,1.742193,0.42846899999999993,-0.8581409999999999
2018-10-16T21:41:41.769373Z,1.493925,0.32009499999999996,0.588019
2018-10-16T21:41:41.952373Z,1.8663349999999999,-0.63464,1.55019
2018-10-16T21:41:42.154373Z,1.986491,-1.2228709999999998,-0.5786819999999999
2018-10-16T21:41:42.372373Z,0.792463,-0.648257,-0.136294
2018-10-16T21:41:42.555373Z,0.335333,0.23057199999999997,0.736595
2018-10-16T21:41:42.753373Z,0.639123,-1.358919,0.22612600000000002
2018-10-16T21:41:42.953373Z,0.7908270000000001,-0.590852,-0.758976
2018-10-16T21:41:43.154373Z,0.045545999999999996,-0.511061,0.922955
2018-10-16T21:41:43.354373Z,1.8273130000000002,-1.3769879999999999,1.3624450000000001
2018-10-16T21:41:43.552373Z,1.297251,-1.748364,-0.995936
2018-10-16T21:41:43.754373Z,0.399948,-1.2709290000000002,0.164885
2018-10-16T21:41:43.955373Z,-0.683612,-0.40117600000000003,1.334878
2018-10-16T21:41:44.167373Z,0.285406,-1.9457939999999998,0.030039999999999997
2018-10-16T21:41:44.356373Z,0.344482,-0.315291,-1.0625360000000001
2018-10-16T21:41:44.574373Z,-0.07035599999999999,-0.256623,1.353301
2018-10-16T21:41:44.755373Z,0.775848,-0.8574280000000001,0.336444
2018-10-16T21:41:44.955373Z,0.069967,-0.816529,-0.882177
2018-10-16T21:41:45.155373Z,0.503102,-0.39426500000000003,0.587032
2018-10-16T21:41:45.355373Z,0.199458,-0.9032290000000001,1.408132
2018-10-16T21:41:45.555373Z,0.128222,-1.30912,-0.811625
2018-10-16T21:41:45.757373Z,-0.704496,-0.402463,-0.70777
2018-10-16T21:41:45.957373Z,-0.849167,-0.072382,0.9163040000000001
2018-10-16T21:41:46.156373Z,-0.48410600000000004,-1.311397,0.5459350000000001
2018-10-16T21:41:46.355373Z,-1.228494,-0.714695,-1.087173
2018-10-16T21:41:46.556373Z,-0.8730049999999999,-0.341015,0.34375300000000003
2018-10-16T21:41:46.757373Z,-0.157021,0.014271,0.577254
2018-10-16T21:41:46.957373Z,-0.519419,-0.558905,0.10383900000000001
2018-10-16T21:41:47.158373Z,-0.45728100000000005,-0.765141,-0.463743
2018-10-16T21:41:47.375373Z,-0.30983499999999997,0.304704,0.425645
2018-10-16T21:41:47.605373Z,-0.586512,-0.476488,0.5653739999999999
2018-10-16T21:41:47.757373Z,-0.622106,-0.91671,-0.737654
2018-10-16T21:41:47.957373Z,-0.589576,-0.473646,0.054060000000000004
2018-10-16T21:41:48.157373Z,0.10798800000000001,-0.9847040000000001,1.060674
2018-10-16T21:41:48.358373Z,0.39147600000000005,-1.177886,0.181781
2018-10-16T21:41:48.559373Z,0.328625,-0.43924799999999997,-0.48282200000000003
2018-10-16T21:41:48.777373Z,0.818627,0.498829,0.521269
2018-10-16T21:41:48.976373Z,1.440995,0.096264,0.723074
2018-10-16T21:41:49.158373Z,1.011946,-0.738042,-0.665196
2018-10-16T21:41:49.396373Z,1.076643,-0.22199000000000002,-0.332357
2018-10-16T21:41:49.559373Z,1.896049,0.547063,1.182075
2018-10-16T21:41:49.758373Z,2.04277,-1.434132,1.099718
2018-10-16T21:41:49.958373Z,1.8024919999999998,-0.674279,-0.6298739999999999
2018-10-16T21:41:50.158373Z,0.6611779999999999,-0.428904,0.525512
2018-10-16T21:41:50.359373Z,0.628758,-1.030349,1.1620469999999998
2018-10-16T21:41:50.566373Z,0.519934,-0.44233900000000004,-1.153174
2018-10-16T21:41:50.759373Z,-0.8784569999999999,-0.658512,0.6025510000000001
2018-10-16T21:41:50.959373Z,-1.123268,0.132428,0.823126
2018-10-16T21:41:51.158373Z,-1.403137,-0.593762,-0.306583
2018-10-16T21:41:51.359373Z,-1.228304,-0.045717,-0.791492
2018-10-16T21:41:51.561373Z,-0.418509,1.347618,0.653254
2018-10-16T21:41:51.760373Z,0.36490300000000003,-0.43746199999999996,0.249489
2018-10-16T21:41:51.960373Z,0.40513499999999997,-0.560947,-1.6223809999999999
2018-10-16T21:41:52.160373Z,0.527443,1.243264,1.876816
2018-10-16T21:41:52.372373Z,0.5801890000000001,-1.0118260000000001,-0.155172
2018-10-16T21:41:52.560373Z,0.576785,-0.026742000000000002,-0.9127709999999999
2018-10-16T21:41:52.761373Z,1.285134,1.3955870000000001,0.7431369999999999
2018-10-16T21:41:52.960373Z,0.8114060000000001,-1.1012950000000001,-0.604793
2018-10-16T21:41:53.162373Z,-0.245243,-0.053609000000000004,1.055085
2018-10-16T21:41:53.362373Z,0.12330799999999999,-0.345679,0.492159
2018-10-16T21:41:53.635373Z,0.630132,-0.511714,-1.90845
2018-10-16T21:41:53.760373Z,0.8287959999999999,0.600528,1.7090040000000002
2018-10-16T21:41:53.961373Z,0.44618800000000003,-1.6104,0.37752399999999997
2018-10-16T21:41:54.241373Z,0.07735399999999999,-0.957026,-0.983499
2018-10-16T21:41:54.455373Z,-0.309517,1.011711,1.167343
2018-10-16T21:41:54.570373Z,-0.590183,-0.82888,-0.652565
2018-10-16T21:41:54.763373Z,-0.103804,0.11067300000000001,-0.5476
2018-10-16T21:41:54.977373Z,0.487494,-0.244056,2.2581830000000003
2018-10-16T21:41:55.162373Z,1.6294389999999999,-1.3083850000000001,-0.679541
2018-10-16T21:41:55.366373Z,0.142484,0.36041100000000004,-1.725252
2018-10-16T21:41:55.564373Z,-1.6199620000000001,0.862563,1.510566
2018-10-16T21:41:55.778373Z,-1.313417,-0.8388760000000001,-0.98369
2018-10-16T21:41:55.964373Z,-0.807086,-0.45446400000000003,0.083591
2018-10-16T21:41:56.164373Z,-0.664552,-0.127722,1.224749
2018-10-16T21:41:56.364373Z,-0.32242,-0.719545,-1.341467
2018-10-16T21:41:56.564373Z,0.8308059999999999,0.35275,0.885444
2018-10-16T21:41:56.763373Z,0.418864,-0.21800100000000003,0.8271149999999999
2018-10-16T21:41:56.979373Z,1.357315,-0.652888,-0.9057280000000001
2018-10-16T21:41:57.164373Z,0.654379,0.7231489999999999,0.312906
2018-10-16T21:41:57.364373Z,1.089035,-0.807337,1.911516
2018-10-16T21:41:57.565373Z,1.083012,-0.779428,-1.07284
2018-10-16T21:41:57.852373Z,0.537714,0.567399,1.289662
2018-10-16T21:41:57.963373Z,-0.420246,-0.9046,-0.06691699999999999
2018-10-16T21:41:58.165373Z,1.118242,-0.531694,-0.970899
2018-10-16T21:41:58.365373Z,0.8576959999999999,0.47699899999999995,2.084302
2018-10-16T21:41:58.564373Z,1.416217,-0.873024,-0.8665010000000001
2018-10-16T21:41:58.764373Z,0.7106180000000001,0.181266,-0.326954
2018-10-16T21:41:58.963373Z,-0.43563199999999996,0.789272,0.9260729999999999
2018-10-16T21:41:59.165373Z,0.06149299999999999,-0.9768100000000001,-0.8385520000000001
2018-10-16T21:41:59.366373Z,0.397901,0.399303,-0.26387
2018-10-16T21:41:59.566373Z,0.137562,0.151049,1.7483970000000002
2018-10-16T21:41:59.766373Z,2.090266,-1.134884,0.05558099999999999
2018-10-16T21:41:59.966373Z,0.51174,0.161655,-1.658944
2018-10-16T21:42:00.166373Z,-2.8955830000000002,-0.126029,1.350686
2018-10-16T21:42:00.365373Z,-1.834086,-0.267504,-0.118443
2018-10-16T21:42:00.565373Z,-0.6149180000000001,-0.396204,-0.324416
2018-10-16T21:42:00.766373Z,-0.426858,-0.179355,0.544188
2018-10-16T21:42:00.967373Z,1.032952,-0.671086,0.933638
2018-10-16T21:42:01.214373Z,2.355221,-0.09359400000000001,-0.588802
2018-10-16T21:42:01.368373Z,1.389699,0.720206,1.393259
2018-10-16T21:42:01.565373Z,1.36558,-0.376429,1.148795
2018-10-16T21:42:01.769373Z,1.858691,-0.650604,-0.47305699999999995
2018-10-16T21:42:01.966373Z,0.692768,0.8342940000000001,0.44812399999999997
2018-10-16T21:42:02.166373Z,1.685296,-0.785931,0.802669
2018-10-16T21:42:02.367373Z,1.068953,-0.9103120000000001,-0.25943099999999997
2018-10-16T21:42:02.674373Z,0.409182,0.27676799999999996,1.425446
2018-10-16T21:42:02.769373Z,-1.288668,-0.833427,-0.292416
2018-10-16T21:42:02.968373Z,-0.430253,-0.46168000000000003,-1.317077
2018-10-16T21:42:03.167373Z,-0.38159699999999996,1.401214,0.278704
2018-10-16T21:42:03.368373Z,0.044095,-0.250422,0.8781049999999999
2018-10-16T21:42:03.568373Z,0.721861,-0.956975,-1.130466
2018-10-16T21:42:03.768373Z,0.534129,0.8739020000000001,1.036757
2018-10-16T21:42:03.967373Z,-0.7084090000000001,0.042469,-0.063775
2018-10-16T21:42:04.184373Z,0.019058000000000002,-0.30207399999999995,-1.711873
2018-10-16T21:42:04.369373Z,-0.186395,0.699786,0.946909
2018-10-16T21:42:04.583373Z,0.104143,-0.7999609999999999,1.266116
2018-10-16T21:42:04.769373Z,-0.19567,-0.897847,-1.923711
2018-10-16T21:42:04.969373Z,0.285159,1.258176,1.4446620000000001
2018-10-16T21:42:05.174373Z,-0.88949,-0.860801,-0.11124300000000001
2018-10-16T21:42:05.369373Z,-0.271542,-0.325286,-1.575006
2018-10-16T21:42:05.586373Z,0.657471,0.9830770000000001,1.829834
2018-10-16T21:42:05.785373Z,1.440733,-0.9678370000000001,0.108188
2018-10-16T21:42:05.983373Z,0.444399,-0.054645000000000006,-1.1732870000000002
2018-10-16T21:42:06.169373Z,-1.0568030000000002,0.812983,1.7232619999999998
2018-10-16T21:42:06.382373Z,0.30737,-0.645706,-1.0991309999999999
2018-10-16T21:42:06.570373Z,-0.157631,0.146295,-1.191211
2018-10-16T21:42:06.770373Z,-0.758575,0.29598,2.2850770000000002
2018-10-16T21:42:06.982373Z,0.717232,-0.985175,-0.59814
2018-10-16T21:42:07.189373Z,0.331705,0.024554,-1.042833
2018-10-16T21:42:07.463373Z,-0.46115600000000007,0.27321,2.279073
2018-10-16T21:42:07.570373Z,-0.7985770000000001,-0.606082,-1.7750130000000002
2018-10-16T21:42:07.770373Z,-0.053831,0.254529,-0.36827600000000005
2018-10-16T21:42:07.970373Z,0.160199,0.134161,1.9592169999999998
2018-10-16T21:42:08.171373Z,1.464948,-1.070846,-0.8637440000000001
2018-10-16T21:42:08.372373Z,0.47484899999999997,0.469632,-0.23232399999999997
2018-10-16T21:42:08.594373Z,-0.8786129999999999,0.593122,0.549379
2018-10-16T21:42:08.771373Z,-0.9749110000000001,-1.0444069999999999,-0.939232
2018-10-16T21:42:08.971373Z,0.097872,0.6110329999999999,-0.552042
2018-10-16T21:42:09.171373Z,-0.231504,0.558497,1.7932689999999998
2018-10-16T21:42:09.372373Z,0.893234,-1.241578,-0.674929
2018-10-16T21:42:09.588373Z,-0.113356,0.199897,-1.38045
2018-10-16T21:42:09.772373Z,-2.200746,1.007221,0.5182979999999999
2018-10-16T21:42:09.972373Z,-1.014148,-0.604288,-0.650698
2018-10-16T21:42:10.171373Z,-0.8435940000000001,0.224369,-1.073167
2018-10-16T21:42:10.372373Z,0.039484,1.022632,1.4071069999999999
2018-10-16T21:42:10.573373Z,0.313258,-0.704675,-0.0017579999999999998
2018-10-16T21:42:10.823373Z,0.6251359999999999,-0.501105,-0.9377409999999999
2018-10-16T21:42:10.973373Z,-0.161179,1.2157799999999999,0.820642
2018-10-16T21:42:11.173373Z,-0.95095,-0.575976,-0.18495899999999998
2018-10-16T21:42:11.372373Z,-0.037170999999999996,-0.23946900000000002,-1.08463
2018-10-16T21:42:11.573373Z,0.21779899999999996,0.936845,1.260315
2018-10-16T21:42:11.775373Z,1.6678810000000002,-0.828413,0.6047819999999999
2018-10-16T21:42:11.992373Z,1.1304319999999999,-0.26295999999999997,-1.324489
2018-10-16T21:42:12.237373Z,0.6918380000000001,0.13636500000000001,2.528803
2018-10-16T21:42:12.373373Z,0.28832399999999997,-0.420178,-0.344736
2018-10-16T21:42:12.608373Z,0.8420059999999999,-0.264981,-1.308722
2018-10-16T21:42:12.775373Z,0.127109,0.69317,1.063342
2018-10-16T21:42:12.975373Z,0.794596,-0.6362909999999999,0.7432270000000001
2018-10-16T21:42:13.173373Z,0.201236,-0.259479,-1.450605
2018-10-16T21:42:13.373373Z,0.315268,0.938467,1.090381
2018-10-16T21:42:13.574373Z,0.716392,-0.777517,0.948254
2018-10-16T21:42:13.774373Z,0.691844,-0.780918,-1.050977
2018-10-16T21:42:13.975373Z,0.409445,0.95242,0.593541
2018-10-16T21:42:14.175373Z,1.421067,-0.031013,1.0807129999999998
2018-10-16T21:42:14.375373Z,1.317212,0.424457,-1.39334
2018-10-16T21:42:14.576373Z,0.5488069999999999,0.584908,0.6970390000000001
2018-10-16T21:42:14.777373Z,0.11164500000000001,-0.056573000000000005,1.291735
2018-10-16T21:42:15.004373Z,0.701979,-1.115843,-0.82436
2018-10-16T21:42:15.175373Z,0.8925690000000001,-0.126334,-0.032698000000000005
2018-10-16T21:42:15.378373Z,0.716905,-0.047083,1.839621
2018-10-16T21:42:15.576373Z,0.730246,-1.1599059999999999,0.15123
2018-10-16T21:42:15.776373Z,1.147793,-0.711766,-0.46838100000000005
2018-10-16T21:42:15.978373Z,0.5766560000000001,-0.42439499999999997,1.323559
2018-10-16T21:42:16.177373Z,1.051523,-2.0213490000000003,1.085804
2018-10-16T21:42:16.377373Z,0.762572,-0.934997,-0.52669
2018-10-16T21:42:16.577373Z,-0.12709600000000001,0.34576999999999997,0.042469
2018-10-16T21:42:16.777373Z,0.643035,-0.893267,2.104118
2018-10-16T21:42:16.977373Z,1.4733969999999998,-1.5204879999999998,-0.442375
2018-10-16T21:42:17.177373Z,0.401356,-0.228973,0.170731
2018-10-16T21:42:17.389373Z,-0.269148,-0.490982,1.6270209999999998
2018-10-16T21:42:17.582373Z,0.156826,-1.13873,-1.000769
2018-10-16T21:42:17.778373Z,-1.658671,-0.557005,-0.035108
2018-10-16T21:42:17.977373Z,-2.269402,-1.305647,1.2283030000000001
2018-10-16T21:42:18.177373Z,-2.241632,-1.585603,-0.031543
2018-10-16T21:42:18.379373Z,-0.6681779999999999,-1.089633,0.353621
2018-10-16T21:42:18.580373Z,0.755476,-0.524014,1.518292
2018-10-16T21:42:18.798373Z,-0.307655,-1.603316,-0.666639
2018-10-16T21:42:18.979373Z,-0.190249,0.235869,-0.063922
2018-10-16T21:42:19.179373Z,0.676521,0.977565,0.9448340000000001
2018-10-16T21:42:19.378373Z,1.148988,-0.7238479999999999,-0.10881500000000001
2018-10-16T21:42:19.579373Z,1.087509,0.178272,-0.7940729999999999
2018-10-16T21:42:19.778373Z,0.23182600000000003,0.453135,1.701418
2018-10-16T21:42:19.979373Z,0.378631,-0.945247,-0.688241
2018-10-16T21:42:20.179373Z,1.261854,0.406149,-0.742404
2018-10-16T21:42:20.379373Z,0.270904,-0.114326,2.209101
2018-10-16T21:42:20.580373Z,1.76215,-0.9503729999999999,-0.266377
2018-10-16T21:42:20.780373Z,0.45683900000000005,-0.535229,-0.41731999999999997
2018-10-16T21:42:20.979373Z,0.9405969999999999,-0.114753,2.24595
2018-10-16T21:42:21.180373Z,0.849132,-0.939793,-0.8822200000000001
2018-10-16T21:42:21.381373Z,0.44526499999999997,0.13944,-0.19266
2018-10-16T21:42:21.581373Z,-0.5120359999999999,-0.830952,2.151712
2018-10-16T21:42:21.781373Z,0.9814,-1.421348,-1.1892530000000001
2018-10-16T21:42:21.993373Z,0.721919,-0.094065,0.786296
2018-10-16T21:42:22.180373Z,0.185328,-0.735436,2.134359
2018-10-16T21:42:22.383373Z,-0.363108,-1.390882,-1.5137200000000002
2018-10-16T21:42:22.581373Z,-0.41861400000000004,0.09550499999999999,0.052270000000000004
2018-10-16T21:42:22.781373Z,-0.129133,-0.270547,1.6595830000000003
2018-10-16T21:42:22.982373Z,1.0012510000000001,-1.555992,-0.140045
2018-10-16T21:42:23.182373Z,0.547215,-0.45675299999999996,-0.228312
2018-10-16T21:42:23.382373Z,-0.027096,-0.023103,1.893318
2018-10-16T21:42:23.662373Z,0.425533,-1.411964,-0.313243
2018-10-16T21:42:23.781373Z,0.10731800000000001,0.048999,-0.7950699999999999
2018-10-16T21:42:23.988373Z,0.264002,0.266374,2.0487990000000003
2018-10-16T21:42:24.181373Z,1.6049360000000001,-1.978694,0.333229
2018-10-16T21:42:24.421373Z,0.8556229999999999,-0.692523,-0.17544300000000002
2018-10-16T21:42:24.583373Z,-0.326946,-0.369761,2.095719
2018-10-16T21:42:24.825373Z,0.680685,-1.846269,0.5217609999999999
2018-10-16T21:42:24.982373Z,0.290364,-0.5323720000000001,-0.928235
2018-10-16T21:42:25.182373Z,0.523416,-0.11553599999999999,1.737786
2018-10-16T21:42:25.382373Z,1.026504,-1.554238,0.88207
2018-10-16T21:42:25.583373Z,0.445275,-0.7826380000000001,-0.643321
2018-10-16T21:42:25.783373Z,-0.276884,0.08423,2.247777
2018-10-16T21:42:25.982373Z,-0.10353399999999999,-1.502767,0.26938
2018-10-16T21:42:26.183373Z,-0.277211,-1.3832149999999999,-0.990526
2018-10-16T21:42:26.384373Z,1.288743,0.711703,1.787361
2018-10-16T21:42:26.584373Z,1.848791,-0.918702,0.662395
2018-10-16T21:42:26.784373Z,1.920671,-0.879533,-0.024746
2018-10-16T21:42:26.986373Z,1.062871,-0.757289,1.298555
2018-10-16T21:42:27.185373Z,0.995706,-1.539809,1.636688
2018-10-16T21:42:27.394373Z,1.2837049999999999,-1.107492,-0.745085
2018-10-16T21:42:27.585373Z,-0.106752,0.9215780000000001,0.43053
2018-10-16T21:42:27.785373Z,0.25118,-0.5647939999999999,1.369316
2018-10-16T21:42:27.985373Z,0.192074,-1.003305,-1.2833219999999999
2018-10-16T21:42:28.185373Z,-0.0032,-0.243654,0.7758430000000001
2018-10-16T21:42:28.386373Z,-1.2991110000000001,-0.384465,0.9927440000000001
2018-10-16T21:42:28.586373Z,-0.193425,-0.8889670000000001,-0.9037719999999999
2018-10-16T21:42:28.786373Z,-0.17482899999999998,-0.175797,1.010435
2018-10-16T21:42:29.000373Z,0.114878,-0.58491,0.8391959999999999
2018-10-16T21:42:29.186373Z,0.481984,-0.976354,-0.913243
2018-10-16T21:42:29.386373Z,-0.391583,0.563076,-0.578557
2018-10-16T21:42:29.585373Z,0.05954500000000001,0.22950900000000002,1.556606
2018-10-16T21:42:29.786373Z,0.22600399999999998,-1.307979,0.039288
2018-10-16T21:42:29.987373Z,0.305068,-0.5884159999999999,-0.512907
2018-10-16T21:42:30.209373Z,0.470912,0.67111,1.232883
2018-10-16T21:42:30.387373Z,1.1450200000000001,-1.034124,0.197643
2018-10-16T21:42:30.587373Z,1.299612,-0.278031,-0.87844
2018-10-16T21:42:30.786373Z,-0.635423,1.097542,1.568184
2018-10-16T21:42:30.987373Z,-0.082211,-2.082262,0.245392
2018-10-16T21:42:31.244373Z,0.9198620000000001,-0.879274,-0.9617399999999999
2018-10-16T21:42:31.387373Z,1.289582,0.460588,1.440521
2018-10-16T21:42:31.588373Z,2.254491,-1.6802700000000002,1.2433450000000001
2018-10-16T21:42:31.800373Z,2.4699709999999997,-1.637573,-0.419258
2018-10-16T21:42:31.988373Z,0.946042,-0.776817,1.304772
2018-10-16T21:42:32.189373Z,0.512596,-1.8819,0.624041
2018-10-16T21:42:32.389373Z,0.8171390000000001,-0.7953180000000001,-0.371158
2018-10-16T21:42:32.587373Z,0.041763,0.016399,1.3721889999999999
2018-10-16T21:42:32.798373Z,0.089541,-0.805524,-0.098945
2018-10-16T21:42:33.005373Z,-0.34070300000000003,-0.729421,-0.72255
2018-10-16T21:42:33.188373Z,-0.7250260000000001,0.006517,1.20141
2018-10-16T21:42:33.389373Z,-0.974245,-1.632013,0.664402
2018-10-16T21:42:33.590373Z,-0.23912399999999998,-0.9623149999999999,-1.003213
2018-10-16T21:42:33.847373Z,-0.38495799999999997,0.252616,1.228071
2018-10-16T21:42:34.002373Z,-1.167081,-1.0748540000000002,0.255268
2018-10-16T21:42:34.197373Z,-1.4556639999999998,-0.820586,-1.3780370000000002
2018-10-16T21:42:34.389373Z,-1.7422419999999998,-0.366623,1.148676
2018-10-16T21:42:34.589373Z,-1.182509,-1.372192,0.19605799999999998
2018-10-16T21:42:34.790373Z,-0.158451,-0.29396500000000003,-0.299216
2018-10-16T21:42:34.990373Z,0.244011,0.548585,0.9613510000000001
2018-10-16T21:42:35.190373Z,0.313504,-1.101557,0.3707
2018-10-16T21:42:35.390373Z,0.190451,-0.898515,-0.826306
2018-10-16T21:42:35.602373Z,-0.198157,0.658261,-0.15298399999999998
2018-10-16T21:42:35.789373Z,-1.731269,0.059699,0.892418
2018-10-16T21:42:35.990373Z,-0.65525,-1.665141,-0.455958
2018-10-16T21:42:36.190373Z,0.133943,0.130233,0.490066
2018-10-16T21:42:36.390373Z,-0.48668100000000003,-1.091375,0.7857109999999999
2018-10-16T21:42:36.592373Z,0.305392,-0.769694,-0.9116120000000001
2018-10-16T21:42:36.791373Z,0.725586,0.39055300000000004,0.48363100000000003
2018-10-16T21:42:36.992373Z,-0.419969,-0.35595,0.982463
2018-10-16T21:42:37.192373Z,0.09148400000000001,-1.586586,-0.268886
2018-10-16T21:42:37.392373Z,-0.010126000000000001,-0.190952,0.328364
2018-10-16T21:42:37.620373Z,0.641335,-0.21128400000000003,0.9854799999999999
2018-10-16T21:42:37.792373Z,0.179449,-1.1354549999999999,-0.63095
2018-10-16T21:42:38.010373Z,0.943523,-0.130412,0.359674
2018-10-16T21:42:38.191373Z,0.212405,-0.039743,1.1102
2018-10-16T21:42:38.392373Z,0.336127,-1.223411,-0.44780299999999995
2018-10-16T21:42:38.593373Z,0.788502,0.073952,-0.197433
2018-10-16T21:42:38.793373Z,0.6664899999999999,0.00823,1.5223309999999999
2018-10-16T21:42:38.993373Z,0.66083,-1.218874,-0.228609
2018-10-16T21:42:39.193373Z,1.0634700000000001,-0.217016,-0.234675
2018-10-16T21:42:39.405373Z,0.9933860000000001,0.305794,0.8503629999999999
2018-10-16T21:42:39.593373Z,1.053791,-0.535239,0.06477100000000001
2018-10-16T21:42:39.793373Z,1.1160510000000001,-0.267793,0.133527
2018-10-16T21:42:39.992373Z,1.842989,-0.43757799999999997,1.4264
2018-10-16T21:42:40.193373Z,2.0148330000000003,-1.593725,0.09122899999999999
2018-10-16T21:42:40.393373Z,0.374181,0.49815200000000004,-0.438395
2018-10-16T21:42:40.594373Z,0.34637199999999996,-0.331931,1.7445279999999999
2018-10-16T21:42:40.805373Z,-0.817818,-1.291521,-0.596654
2018-10-16T21:42:40.996373Z,-1.156542,-0.476775,-0.005509
2018-10-16T21:42:41.208373Z,-2.402657,-0.523454,1.116388
2018-10-16T21:42:41.394373Z,-1.276117,-0.732726,-0.414517
2018-10-16T21:42:41.596373Z,0.510258,0.6228130000000001,-0.593592
2018-10-16T21:42:41.812373Z,0.635877,0.42888100000000007,1.396435
2018-10-16T21:42:42.012373Z,1.4621680000000001,-0.27999,-0.499362
2018-10-16T21:42:42.195373Z,0.141426,0.143102,-0.51189
2018-10-16T21:42:42.396373Z,0.9639340000000001,-0.21101599999999998,1.665757
2018-10-16T21:42:42.691373Z,1.366106,-1.585465,-0.116541
2018-10-16T21:42:42.794373Z,0.049259,0.221138,-1.067691
2018-10-16T21:42:42.996373Z,-1.757818,-0.047871,1.646981
2018-10-16T21:42:43.195373Z,-2.942666,-1.939845,-0.188102
2018-10-16T21:42:43.396373Z,-0.811094,-1.324665,0.330061
2018-10-16T21:42:43.613373Z,0.265914,0.175746,0.7616109999999999
2018-10-16T21:42:43.796373Z,0.581911,-0.824801,-0.25953000000000004
2018-10-16T21:42:44.028373Z,0.8735930000000001,-0.087224,-1.3514190000000001
2018-10-16T21:42:44.208373Z,0.716294,0.893975,2.0834639999999998
2018-10-16T21:42:44.483373Z,0.518782,-1.191811,0.384633
2018-10-16T21:42:44.596373Z,1.5884790000000002,-0.40015500000000004,-0.9141040000000001
2018-10-16T21:42:44.803373Z,1.986705,0.099486,2.269432
2018-10-16T21:42:44.996373Z,3.119785,-0.682739,0.159271
2018-10-16T21:42:45.197373Z,1.7233450000000001,-0.425174,-0.165322
2018-10-16T21:42:45.396373Z,0.402256,-0.33822800000000003,1.7405560000000002
2018-10-16T21:42:45.596373Z,-0.003232,-1.121486,-0.309176
2018-10-16T21:42:45.804373Z,0.390592,-0.11033599999999999,0.019851
2018-10-16T21:42:45.996373Z,-0.11371600000000001,-0.23290999999999998,1.277177
2018-10-16T21:42:46.196373Z,0.257352,-1.024869,-0.822101
2018-10-16T21:42:46.397373Z,-1.498432,-0.34219299999999997,-1.031018
2018-10-16T21:42:46.597373Z,-2.557029,0.43976400000000004,0.695651
2018-10-16T21:42:46.816373Z,-1.7325720000000002,-0.873476,0.868064
2018-10-16T21:42:46.997373Z,-0.663135,-0.44680600000000004,-0.944276
2018-10-16T21:42:47.197373Z,-0.038831,-0.178454,0.809746
2018-10-16T21:42:47.397373Z,1.0294780000000001,-0.084704,0.334162
2018-10-16T21:42:47.597373Z,1.0353459999999999,-0.614263,-0.22184299999999998
2018-10-16T21:42:47.808373Z,1.830439,0.6217,-0.681592
2018-10-16T21:42:47.999373Z,1.388679,-0.09478400000000001,3.350802
2018-10-16T21:42:48.198373Z,2.371636,-2.3111080000000004,1.474668
2018-10-16T21:42:48.398373Z,1.9477419999999999,-1.879423,0.741269
2018-10-16T21:42:48.599373Z,-0.070989,-0.624112,-0.367769
2018-10-16T21:42:48.800373Z,-1.052876,7.4e-05,0.983094
2018-10-16T21:42:48.998373Z,0.6102449999999999,-0.863101,0.550814
2018-10-16T21:42:49.200373Z,-0.719987,-0.614105,-1.376719
2018-10-16T21:42:49.401373Z,-1.816491,0.634854,1.841848
2018-10-16T21:42:49.599373Z,-1.44951,-1.253368,-0.960368
2018-10-16T21:42:49.799373Z,-0.28674,-0.9808620000000001,-0.041986
2018-10-16T21:42:50.000373Z,0.6445420000000001,-0.570787,1.9903990000000003
2018-10-16T21:42:50.266373Z,1.290809,-2.171528,0.9117129999999999
2018-10-16T21:42:50.399373Z,0.700993,-0.370111,-1.203825
2018-10-16T21:42:50.630373Z,-0.005696,0.22815100000000002,1.41002
2018-10-16T21:42:50.801373Z,-0.661784,-1.604733,1.0799
2018-10-16T21:42:51.060373Z,0.313738,-1.861372,0.454662
2018-10-16T21:42:51.214373Z,-0.327524,-0.6659149999999999,0.31367
2018-10-16T21:42:51.413373Z,-0.011959000000000001,-0.425993,0.259973
2018-10-16T21:42:51.602373Z,0.751941,-0.21307199999999998,0.036301
2018-10-16T21:42:51.801373Z,0.289636,0.500885,0.28678899999999996
2018-10-16T21:42:52.020373Z,0.08452799999999999,-0.455516,0.087271
2018-10-16T21:42:52.202373Z,1.224227,-1.1813799999999999,0.644996
2018-10-16T21:42:52.420373Z,0.902503,-0.760171,0.12390699999999999
2018-10-16T21:42:52.603373Z,-0.217858,-0.957866,0.6177060000000001
2018-10-16T21:42:52.803373Z,-1.254289,-0.7998609999999999,1.0650549999999999
2018-10-16T21:42:53.013373Z,-0.786489,-1.418986,-0.354618
2018-10-16T21:42:53.202373Z,-1.0019959999999999,-0.10326300000000001,-0.548499
2018-10-16T21:42:53.431373Z,-2.623927,-0.581774,1.356956
2018-10-16T21:42:53.603373Z,-1.962679,-1.442825,0.10558900000000002
2018-10-16T21:42:53.803373Z,-1.113094,-1.084191,0.073099
2018-10-16T21:42:54.004373Z,0.457058,-0.151996,0.2091
2018-10-16T21:42:54.204373Z,0.641564,0.143705,0.5734020000000001
2018-10-16T21:42:54.404373Z,0.16911900000000002,-0.527091,0.348231
2018-10-16T21:42:54.604373Z,0.032357,-0.130227,-0.352143
2018-10-16T21:42:54.804373Z,0.531404,0.32574899999999996,-0.42672299999999996
2018-10-16T21:42:55.003373Z,0.516713,0.8438629999999999,0.918781
2018-10-16T21:42:55.204373Z,1.178536,-0.707922,0.278339
2018-10-16T21:42:55.404373Z,1.0966360000000002,-0.53875,-0.430871
2018-10-16T21:42:55.603373Z,0.363796,0.612809,1.041779
2018-10-16T21:42:55.803373Z,0.10994100000000001,-0.7203109999999999,-0.12073699999999998
2018-10-16T21:42:56.003373Z,1.4571690000000002,-0.586543,-0.13319
2018-10-16T21:42:56.202373Z,1.505851,-0.543565,1.104069
2018-10-16T21:42:56.405373Z,1.990994,-1.63109,1.259937
2018-10-16T21:42:56.606373Z,1.429924,-1.265695,0.812543
2018-10-16T21:42:56.807373Z,-0.203756,-0.8818020000000001,0.5741729999999999
2018-10-16T21:42:57.006373Z,-0.41309799999999997,-0.8774290000000001,0.050922
2018-10-16T21:42:57.206373Z,-0.333509,-0.55984,0.24864
2018-10-16T21:42:57.407373Z,-0.794756,-0.219454,0.45969799999999994
2018-10-16T21:42:57.619373Z,-1.0196180000000001,-1.154724,1.015831
2018-10-16T21:42:57.806373Z,-1.6761599999999999,-1.311995,-0.704168
2018-10-16T21:42:58.013373Z,-2.7151680000000002,-2.0829779999999998,0.645999
2018-10-16T21:42:58.204373Z,-1.4073719999999998,-2.303241,1.561554
2018-10-16T21:42:58.406373Z,-0.705734,-1.096306,0.810257
2018-10-16T21:42:58.606373Z,-0.676951,-1.336977,0.290222
2018-10-16T21:42:58.806373Z,0.44493299999999997,-0.445114,0.557024
2018-10-16T21:42:59.007373Z,0.9388110000000001,-0.172745,-0.058554999999999996
2018-10-16T21:42:59.268373Z,1.003378,-0.285546,-0.075374
2018-10-16T21:42:59.421373Z,1.883257,0.737446,0.304677
2018-10-16T21:42:59.686373Z,1.7169729999999999,-0.5608989999999999,2.0861560000000003
2018-10-16T21:42:59.806373Z,2.249732,-0.8555379999999999,-0.9000799999999999
2018-10-16T21:43:00.008373Z,1.618574,0.138999,0.283511
2018-10-16T21:43:00.207373Z,2.972081,-0.662465,1.709439
2018-10-16T21:43:00.408373Z,1.996272,-0.931953,-0.548578
2018-10-16T21:43:00.608373Z,0.393255,0.27026999999999995,0.661463
2018-10-16T21:43:00.826373Z,-0.826426,-0.49361000000000005,0.9710040000000001
2018-10-16T21:43:01.009373Z,0.739685,-0.32508000000000004,-0.8497120000000001
2018-10-16T21:43:01.208373Z,0.068773,0.068924,1.053395
2018-10-16T21:43:01.460373Z,0.508674,-0.683852,0.860991
2018-10-16T21:43:01.623373Z,-0.25613800000000003,-0.603367,-1.500842
2018-10-16T21:43:01.833373Z,0.18826400000000001,0.548114,0.060537
2018-10-16T21:43:02.008373Z,-0.582791,0.023163,1.213227
2018-10-16T21:43:02.208373Z,-0.10079500000000001,-0.736286,-0.58562
2018-10-16T21:43:02.410373Z,-0.0494,-0.141023,-0.262397
2018-10-16T21:43:02.624373Z,0.174426,-0.10914000000000001,1.414145
2018-10-16T21:43:02.809373Z,-0.077003,-0.884732,-0.309603
2018-10-16T21:43:03.024373Z,0.6756,-0.244723,-0.693457
2018-10-16T21:43:03.210373Z,0.019799,0.51369,1.366796
2018-10-16T21:43:03.409373Z,-0.121948,-0.699634,-0.459743
2018-10-16T21:43:03.612373Z,0.504778,-0.166097,-0.649567
2018-10-16T21:43:03.811373Z,-0.115764,0.774963,0.8971120000000001
2018-10-16T21:43:04.011373Z,0.851993,-1.297023,0.638084
2018-10-16T21:43:04.228373Z,0.382404,-0.9367479999999999,-0.67348
2018-10-16T21:43:04.422373Z,-0.519426,0.23458099999999998,1.269512
