Datetime,accx,accy,accz
2018-10-23T20:51:52.583426Z,-0.06488,-0.224487,-0.959534
2018-10-23T20:51:52.784426Z,-0.14917,-0.24945100000000003,0.160339
2018-10-23T20:51:52.983426Z,-0.299133,-0.543945,-0.42157
2018-10-23T20:51:53.180426Z,1.1064450000000001,0.468384,-0.15741
2018-10-23T20:51:53.397426Z,1.493042,0.3797,-0.528015
2018-10-23T20:51:53.583426Z,1.00531,0.421814,-0.154175
2018-10-23T20:51:53.789426Z,0.359375,0.41876199999999997,1.160156
2018-10-23T20:51:53.980426Z,-1.019348,-1.403564,0.30011
2018-10-23T20:51:54.180426Z,-0.189636,-0.5177,-1.6407470000000002
2018-10-23T20:51:54.380426Z,-1.306885,0.272644,-0.458557
2018-10-23T20:51:54.580426Z,0.198242,-0.760803,1.073608
2018-10-23T20:51:54.783426Z,1.038086,-0.578308,-1.273865
2018-10-23T20:51:54.983426Z,0.191895,-0.12878399999999998,-0.179016
2018-10-23T20:51:55.181426Z,-0.315125,0.9420780000000001,1.2478639999999999
2018-10-23T20:51:55.381426Z,-0.5065310000000001,-0.271851,0.24865700000000002
2018-10-23T20:51:55.581426Z,-0.992065,0.196411,-0.388123
2018-10-23T20:51:55.782426Z,-0.188904,0.639221,-0.3573
2018-10-23T20:51:56.181426Z,1.059082,0.19622799999999999,-0.097595
2018-10-23T20:51:56.382426Z,1.106323,-1.36969,0.947327
2018-10-23T20:51:56.580426Z,0.241089,0.713806,0.637146
2018-10-23T20:51:56.782426Z,-0.047546,0.8833620000000001,0.182922
2018-10-23T20:51:56.988426Z,-0.15564,-0.685913,-2.026123
2018-10-23T20:51:57.180426Z,-1.348816,-0.389587,-0.3349
2018-10-23T20:51:57.380426Z,0.7775270000000001,0.17944300000000002,1.257629
2018-10-23T20:51:57.581426Z,1.7817990000000001,-1.409912,-0.010559
2018-10-23T20:51:57.780426Z,-1.5081790000000002,0.500305,-0.454651
2018-10-23T20:51:57.980426Z,-1.446289,0.9631959999999999,3.112549
2018-10-23T20:51:58.180426Z,-0.235168,-1.656738,-1.525635
2018-10-23T20:51:58.381426Z,1.47699,-0.202942,0.913452
2018-10-23T20:51:58.582426Z,-0.002258,-0.17395,0.823425
2018-10-23T20:51:58.782426Z,-1.0375370000000002,0.069336,-0.7948609999999999
2018-10-23T20:51:58.980426Z,-0.433533,0.568787,2.042969
2018-10-23T20:51:59.181426Z,-2.20752,-2.011597,0.45800799999999997
2018-10-23T20:51:59.381426Z,-2.09259,-2.2742310000000003,-0.286072
2018-10-23T20:51:59.582426Z,-3.916382,-1.9613650000000002,1.494202
2018-10-23T20:51:59.783426Z,-2.839233,-1.431702,0.390381
2018-10-23T20:51:59.981426Z,-1.28064,-0.851685,-0.20648200000000003
2018-10-23T20:52:00.180426Z,-1.888367,-0.9024049999999999,0.567078
2018-10-23T20:52:00.381426Z,-1.088257,0.560059,-0.592041
2018-10-23T20:52:00.581426Z,-1.120911,1.265686,-0.877014
2018-10-23T20:52:00.830426Z,-3.024658,-0.5996090000000001,0.37701399999999996
2018-10-23T20:52:00.980426Z,0.5534060000000001,0.907166,-1.505493
2018-10-23T20:52:01.182426Z,-0.23779299999999998,0.553955,4.88324
2018-10-23T20:52:01.380426Z,-2.152771,0.11511199999999999,-0.365295
2018-10-23T20:52:01.580426Z,-1.509216,0.646362,-0.365295
2018-10-23T20:52:01.782426Z,-1.524475,0.42144799999999993,-1.5183719999999998
2018-10-23T20:52:01.981426Z,-0.762573,0.776245,-1.22522
2018-10-23T20:52:02.181426Z,-0.461487,1.759338,-0.287476
2018-10-23T20:52:02.381426Z,-2.703979,-1.92041,-0.580505
2018-10-23T20:52:02.582426Z,-2.929688,0.8432620000000001,-1.588257
2018-10-23T20:52:02.781426Z,1.8937380000000001,3.9786379999999997,1.083496
2018-10-23T20:52:02.985426Z,-1.697754,-0.982727,2.413574
2018-10-23T20:52:03.194426Z,-1.47406,-0.792786,-2.502319
2018-10-23T20:52:03.381426Z,-1.6323239999999999,0.751282,0.34991500000000003
2018-10-23T20:52:03.581426Z,-2.21698,-0.857361,1.148743
2018-10-23T20:52:03.781426Z,-0.8643799999999999,-0.604187,-0.41711400000000004
2018-10-23T20:52:03.980426Z,-2.151062,-0.4823,0.5903930000000001
2018-10-23T20:52:04.180426Z,-1.9686279999999998,-0.25811799999999996,0.608765
2018-10-23T20:52:04.380426Z,-1.8565060000000002,-0.031494,0.991943
2018-10-23T20:52:04.580426Z,-1.621399,0.22601300000000002,1.432129
2018-10-23T20:52:04.780426Z,-1.042297,-0.40124499999999996,0.079651
2018-10-23T20:52:04.980426Z,-0.384827,-0.140198,-0.216187
2018-10-23T20:52:05.183426Z,-0.952576,0.253906,0.37744099999999997
2018-10-23T20:52:05.381426Z,-0.8587040000000001,0.197266,-0.065735
2018-10-23T20:52:05.581426Z,-0.567871,-0.009337999999999999,-0.350891
2018-10-23T20:52:05.781426Z,-0.9560549999999999,0.164001,0.039001
2018-10-23T20:52:05.982426Z,-0.739685,0.5428470000000001,0.795532
2018-10-23T20:52:06.181426Z,-1.7413939999999999,-0.198425,-1.46875
2018-10-23T20:52:06.383426Z,-3.296387,-1.6918950000000001,1.219543
2018-10-23T20:52:06.581426Z,-3.141479,-0.46185299999999996,1.277771
2018-10-23T20:52:06.781426Z,-1.766663,-0.480042,0.134521
2018-10-23T20:52:06.981426Z,-2.228882,-0.878906,0.283447
2018-10-23T20:52:07.180426Z,-0.673218,0.137878,-1.2079469999999999
2018-10-23T20:52:07.381426Z,-0.203552,1.912537,-0.5974729999999999
2018-10-23T20:52:07.580426Z,-1.4871219999999998,1.628113,1.028076
2018-10-23T20:52:07.780426Z,0.288269,-0.20855700000000002,0.474182
2018-10-23T20:52:07.981426Z,-0.018921,1.16925,-1.9681400000000002
2018-10-23T20:52:08.181426Z,0.274353,0.7108760000000001,-0.47454799999999997
2018-10-23T20:52:08.440426Z,-0.987183,1.041992,-1.063782
2018-10-23T20:52:08.581426Z,-2.168823,2.077209,0.358582
2018-10-23T20:52:08.783426Z,-2.371277,0.20813,-0.9097290000000001
2018-10-23T20:52:08.982426Z,-1.056274,0.68512,-1.4402469999999998
2018-10-23T20:52:09.182426Z,0.46154799999999996,0.967407,-0.441345
2018-10-23T20:52:09.381426Z,-2.099304,0.8231809999999999,-1.6935419999999999
2018-10-23T20:52:09.581426Z,-2.4761349999999998,1.6020510000000001,0.869324
2018-10-23T20:52:09.781426Z,-0.708069,0.6140140000000001,-0.324585
2018-10-23T20:52:09.981426Z,-0.18042,0.922607,-0.2052
2018-10-23T20:52:10.381426Z,-0.825073,0.48553500000000005,-1.961487
2018-10-23T20:52:10.580426Z,-1.320862,1.838257,-1.1115110000000001
2018-10-23T20:52:10.780426Z,-0.081299,1.3253780000000002,-0.736938
2018-10-23T20:52:11.065426Z,-1.528625,-0.097778,-0.805664
2018-10-23T20:52:11.180426Z,-0.8447879999999999,0.31262199999999996,0.47296099999999996
2018-10-23T20:52:11.380426Z,0.06072999999999999,1.020874,-0.9338989999999999
2018-10-23T20:52:11.584426Z,-0.460266,1.014282,-0.623596
2018-10-23T20:52:11.780426Z,0.2146,0.438354,0.034424
2018-10-23T20:52:11.980426Z,-1.972046,-0.14569100000000001,0.956909
2018-10-23T20:52:12.181426Z,-1.565308,0.180054,1.214966
2018-10-23T20:52:12.381426Z,-0.464722,1.4823,-0.605103
2018-10-23T20:52:12.581426Z,-0.29425,2.0036009999999997,-0.6793819999999999
2018-10-23T20:52:12.781426Z,-1.154968,0.511536,-1.3270870000000001
2018-10-23T20:52:12.982426Z,-1.5495,0.4953,-0.566833
2018-10-23T20:52:13.188426Z,-0.485291,0.9076540000000001,-0.3125
2018-10-23T20:52:13.384426Z,0.129944,0.019958,-1.934937
2018-10-23T20:52:13.581426Z,-0.629944,0.146912,-1.565857
2018-10-23T20:52:13.783426Z,-0.963989,1.0494379999999999,0.085938
2018-10-23T20:52:13.980426Z,0.181152,-0.14746099999999998,0.20770300000000003
2018-10-23T20:52:14.180426Z,0.391785,1.294983,-0.923767
2018-10-23T20:52:14.381426Z,0.361694,0.412659,-0.10693399999999999
2018-10-23T20:52:14.580426Z,0.501099,0.460388,-2.316345
2018-10-23T20:52:14.780426Z,-0.646301,1.715698,0.118225
2018-10-23T20:52:14.980426Z,-2.085266,-0.18158,1.232361
2018-10-23T20:52:15.205426Z,-0.581299,0.284546,-1.448425
2018-10-23T20:52:15.381426Z,-0.263489,0.9884639999999999,0.097717
2018-10-23T20:52:15.581426Z,0.9189450000000001,-0.64386,0.051086
2018-10-23T20:52:15.781426Z,-1.270081,1.208435,-0.587463
2018-10-23T20:52:15.981426Z,-2.154663,0.7590939999999999,1.110291
2018-10-23T20:52:16.181426Z,-1.764893,-0.5037229999999999,-0.785522
2018-10-23T20:52:16.381426Z,-0.1698,0.511292,-0.538574
2018-10-23T20:52:16.582426Z,-0.36248800000000003,-0.657104,-1.300781
2018-10-23T20:52:16.849426Z,-0.285034,0.75647,-1.279236
2018-10-23T20:52:16.982426Z,-0.746704,1.4692379999999998,0.472473
2018-10-23T20:52:17.181426Z,-1.829468,-0.29186999999999996,-1.545044
2018-10-23T20:52:17.380426Z,-2.201965,-0.012268000000000001,-0.730896
2018-10-23T20:52:17.580426Z,-1.000977,0.48822,-0.762451
2018-10-23T20:52:17.780426Z,0.14599600000000001,1.135071,1.4733889999999998
2018-10-23T20:52:17.980426Z,0.29675300000000004,-0.9737549999999999,0.44610600000000006
2018-10-23T20:52:18.180426Z,0.10876500000000001,0.631042,-0.037292
2018-10-23T20:52:18.380426Z,0.0448,0.665588,-0.315979
2018-10-23T20:52:18.645426Z,-0.596436,-0.235474,0.067871
2018-10-23T20:52:18.783426Z,-1.282227,0.250793,-1.6686400000000001
2018-10-23T20:52:18.984426Z,0.339783,0.220032,0.9456180000000001
2018-10-23T20:52:19.181426Z,0.208069,-0.530029,0.235229
2018-10-23T20:52:19.381426Z,-0.756714,0.521912,-0.6972659999999999
2018-10-23T20:52:19.582426Z,-1.216736,1.302368,0.215088
2018-10-23T20:52:19.783426Z,-1.271118,-0.387268,-1.1317139999999999
2018-10-23T20:52:19.981426Z,-1.567749,-0.627686,-1.138367
2018-10-23T20:52:20.189426Z,-1.042175,0.7108760000000001,2.9662479999999998
2018-10-23T20:52:20.390426Z,-0.9160159999999999,0.52533,-0.7756350000000001
2018-10-23T20:52:20.582426Z,-1.296448,0.809265,0.48492399999999997
2018-10-23T20:52:20.792426Z,-1.88031,-0.649841,0.716492
2018-10-23T20:52:20.980426Z,0.014832,0.22027600000000003,-1.288086
2018-10-23T20:52:21.185426Z,1.271973,0.115479,-0.557556
2018-10-23T20:52:21.380426Z,0.553467,-0.332886,0.010925
2018-10-23T20:52:21.580426Z,-1.121094,0.624207,-6.1e-05
2018-10-23T20:52:21.780426Z,-0.87146,1.8202509999999998,-0.113647
2018-10-23T20:52:21.980426Z,-2.024902,-0.340088,0.701965
2018-10-23T20:52:22.180426Z,-2.021545,-1.162231,-0.051147000000000005
2018-10-23T20:52:22.380426Z,-0.988342,0.15087899999999999,-0.448608
2018-10-23T20:52:22.581426Z,-1.90094,-0.360535,1.426392
2018-10-23T20:52:22.982426Z,-1.340881,1.154785,-2.027832
2018-10-23T20:52:23.181426Z,-2.176575,0.571716,0.32959
2018-10-23T20:52:23.381426Z,-1.737,-0.463501,-1.576965
2018-10-23T20:52:23.582426Z,-1.708984,0.5097659999999999,0.434692
2018-10-23T20:52:23.799426Z,-1.1416629999999999,0.8161619999999999,-1.147217
2018-10-23T20:52:23.980426Z,1.143066,-0.44415299999999996,-0.910278
2018-10-23T20:52:24.192426Z,-0.270447,-0.24658200000000002,-1.8418580000000002
2018-10-23T20:52:24.381426Z,-0.601929,1.0302120000000001,0.153198
2018-10-23T20:52:24.581426Z,-0.5971069999999999,0.327942,0.025024
2018-10-23T20:52:24.780426Z,-1.036743,-0.968994,-0.202209
2018-10-23T20:52:24.980426Z,-1.03064,0.034119,-0.77594
2018-10-23T20:52:25.181426Z,-0.18395999999999998,1.0298459999999998,1.034668
2018-10-23T20:52:25.382426Z,-0.037108999999999996,-1.190979,-0.740173
2018-10-23T20:52:25.580426Z,-0.567749,0.301514,0.22283899999999998
2018-10-23T20:52:25.782426Z,-1.347107,0.23986799999999997,-0.456909
2018-10-23T20:52:25.989426Z,-3.2623290000000003,-0.881958,-2.194763
2018-10-23T20:52:26.181426Z,-1.514648,0.619263,-0.8850100000000001
2018-10-23T20:52:26.381426Z,0.065125,-0.051575,-0.095703
2018-10-23T20:52:26.581426Z,-1.024414,-0.63031,-0.661133
2018-10-23T20:52:26.781426Z,-2.495422,1.319641,0.149048
2018-10-23T20:52:26.981426Z,-3.6987300000000003,-0.495605,2.373169
2018-10-23T20:52:27.182426Z,-1.2971190000000001,-0.565491,-1.3771360000000001
2018-10-23T20:52:27.382426Z,-0.7141109999999999,-0.47540299999999996,0.250183
2018-10-23T20:52:27.623426Z,-0.441956,-0.757202,-0.791931
2018-10-23T20:52:27.783426Z,-0.665833,1.470764,-1.028015
2018-10-23T20:52:27.981426Z,-2.780334,0.684326,2.021362
2018-10-23T20:52:28.180426Z,-2.228516,-0.16095,-0.809265
2018-10-23T20:52:28.380426Z,-1.1845700000000001,-0.282959,0.176453
2018-10-23T20:52:28.581426Z,-1.305542,-0.41125500000000004,1.446289
2018-10-23T20:52:28.781426Z,-2.26709,1.0490110000000001,-0.6818850000000001
2018-10-23T20:52:28.980426Z,-1.534668,-1.016541,0.574158
2018-10-23T20:52:29.180426Z,-1.936523,-0.969482,-1.522583
2018-10-23T20:52:29.400426Z,-0.741333,0.47216800000000003,-1.9331669999999999
2018-10-23T20:52:29.581426Z,-1.108948,1.2009889999999999,-0.9945069999999999
2018-10-23T20:52:29.781426Z,-1.120483,-0.6528930000000001,-0.156555
2018-10-23T20:52:29.981426Z,-0.821106,-0.141479,-0.602356
2018-10-23T20:52:30.181426Z,0.1875,1.8302,-1.7831419999999998
2018-10-23T20:52:30.382426Z,-3.232239,0.270935,3.42688
2018-10-23T20:52:30.581426Z,-0.329041,-0.886597,-1.119995
2018-10-23T20:52:30.781426Z,-0.686951,0.516907,-1.0288700000000002
2018-10-23T20:52:30.981426Z,-1.085083,-0.13501,0.31750500000000004
2018-10-23T20:52:31.180426Z,-1.334106,-2.1049189999999998,0.955933
2018-10-23T20:52:31.380426Z,-0.37677,-1.14563,-0.174988
2018-10-23T20:52:31.581426Z,-0.14746099999999998,0.582397,-1.1209719999999999
2018-10-23T20:52:31.780426Z,-0.27319299999999996,1.557556,1.9887700000000001
2018-10-23T20:52:31.980426Z,-2.203369,-1.034119,1.349426
2018-10-23T20:52:32.180426Z,-1.8146360000000001,-0.657471,0.30365
2018-10-23T20:52:32.380426Z,-0.9750979999999999,0.6031489999999999,-0.842224
2018-10-23T20:52:32.580426Z,0.44397,-0.537048,-0.036804
2018-10-23T20:52:32.780426Z,-0.43261700000000003,0.10418699999999999,-1.369934
2018-10-23T20:52:32.981426Z,-0.6602779999999999,0.47930900000000004,0.375671
2018-10-23T20:52:33.181426Z,-0.030273,-0.355591,-0.079163
2018-10-23T20:52:33.381426Z,-1.5462040000000001,-1.0385739999999999,-0.17108199999999998
2018-10-23T20:52:33.615426Z,-1.705566,-0.930054,-1.162109
2018-10-23T20:52:33.782426Z,-1.395996,0.453308,0.052063
2018-10-23T20:52:33.980426Z,-0.5587770000000001,0.190125,-0.086853
2018-10-23T20:52:34.181426Z,-1.592468,-0.793945,1.15448
2018-10-23T20:52:34.381426Z,-0.9078370000000001,-0.490784,-0.530945
2018-10-23T20:52:34.581426Z,-0.08343500000000001,0.503479,-0.9057620000000001
2018-10-23T20:52:34.780426Z,-0.788025,0.050232,1.068176
2018-10-23T20:52:34.993426Z,-1.920105,-0.5859989999999999,-0.360901
2018-10-23T20:52:35.182426Z,-1.034485,0.858765,-0.15332
2018-10-23T20:52:35.384426Z,-1.066406,0.7322390000000001,-0.349854
2018-10-23T20:52:35.580426Z,-0.399475,-1.19397,-0.7871090000000001
2018-10-23T20:52:35.780426Z,-0.898804,0.48901400000000006,-1.258972
2018-10-23T20:52:35.980426Z,-1.527344,1.4404299999999999,0.8687739999999999
2018-10-23T20:52:36.180426Z,-2.320923,0.34863299999999997,-1.593689
2018-10-23T20:52:36.381426Z,-2.3324580000000004,-0.28717,-1.609924
2018-10-23T20:52:36.581426Z,-0.546082,-0.30896,0.64325
2018-10-23T20:52:36.781426Z,-0.26873800000000003,-0.11907999999999999,-0.607666
2018-10-23T20:52:36.989426Z,-1.442688,0.670471,0.7323609999999999
2018-10-23T20:52:37.180426Z,-1.468689,-0.348022,0.586548
2018-10-23T20:52:37.623426Z,-1.809937,-0.18450899999999998,-0.768433
2018-10-23T20:52:37.781426Z,-0.169495,1.071655,0.13458299999999998
2018-10-23T20:52:37.983426Z,-1.8305049999999998,-1.215149,2.052917
2018-10-23T20:52:38.188426Z,-1.503418,0.5367430000000001,-1.326904
2018-10-23T20:52:38.380426Z,-1.394409,1.056946,-0.036743
2018-10-23T20:52:38.580426Z,-1.460632,-1.301392,1.0610959999999998
2018-10-23T20:52:38.780426Z,-1.1339110000000001,0.401672,-0.850952
2018-10-23T20:52:38.980426Z,-0.980347,-0.5367430000000001,0.5488890000000001
2018-10-23T20:52:39.180426Z,0.9622799999999999,-0.516479,-0.574829
2018-10-23T20:52:39.380426Z,-1.718262,1.504211,0.6091310000000001
2018-10-23T20:52:39.580426Z,-1.86969,-1.27063,0.403564
2018-10-23T20:52:39.786426Z,-1.8046259999999998,-1.5403440000000002,-1.1214600000000001
2018-10-23T20:52:39.981426Z,-1.355408,-0.41095,-0.513733
2018-10-23T20:52:40.181426Z,-0.37506100000000003,-0.270203,0.047119
2018-10-23T20:52:40.387426Z,-0.200195,-0.414612,-0.824951
2018-10-23T20:52:40.580426Z,-0.20282,0.108948,0.155212
2018-10-23T20:52:40.784426Z,-1.026733,-0.19049100000000002,0.042969
2018-10-23T20:52:40.982426Z,-0.39355500000000004,-0.21215799999999999,-0.5839840000000001
2018-10-23T20:52:41.188426Z,-1.51416,-0.466003,0.286987
2018-10-23T20:52:41.381426Z,-1.105164,-0.5820310000000001,-0.564697
2018-10-23T20:52:41.581426Z,-1.8168950000000001,-0.079041,-0.25811799999999996
2018-10-23T20:52:41.781426Z,-1.167175,0.616455,-0.24542199999999997
2018-10-23T20:52:41.980426Z,-0.261475,0.6037600000000001,0.11731
2018-10-23T20:52:42.180426Z,-0.210815,-1.500916,1.7547
2018-10-23T20:52:42.380426Z,0.756165,-0.672058,-2.386963
2018-10-23T20:52:42.581426Z,0.439758,0.444824,0.384033
2018-10-23T20:52:42.783426Z,-0.7424930000000001,-2.225464,2.092957
2018-10-23T20:52:42.980426Z,-1.173157,-1.053894,-1.2516479999999999
2018-10-23T20:52:43.180426Z,-0.27825900000000003,-0.460449,0.553833
2018-10-23T20:52:43.459426Z,-1.036255,-1.144287,-0.5250239999999999
2018-10-23T20:52:43.580426Z,0.204651,-0.605835,-1.008972
2018-10-23T20:52:43.781426Z,-0.36908,-0.216125,0.9006959999999999
2018-10-23T20:52:43.983426Z,-1.364868,-1.62085,1.8710939999999998
2018-10-23T20:52:44.184426Z,-0.641113,-0.606689,-1.123901
2018-10-23T20:52:44.381426Z,-0.44592299999999996,-0.187134,0.9912110000000001
2018-10-23T20:52:44.582426Z,-0.274353,-1.8613279999999999,2.064514
2018-10-23T20:52:44.781426Z,-0.643555,-0.894043,-0.29504400000000003
2018-10-23T20:52:44.981426Z,-0.16155999999999998,-0.271973,-0.159424
2018-10-23T20:52:45.180426Z,-0.481079,-0.46203599999999995,-0.65033
2018-10-23T20:52:45.380426Z,-1.418579,-1.980286,-0.08325199999999999
2018-10-23T20:52:45.583426Z,-1.432434,-0.502502,-0.43505900000000003
2018-10-23T20:52:45.780426Z,-0.529419,0.21826199999999998,0.966675
2018-10-23T20:52:45.980426Z,-0.9651489999999999,-2.157715,0.403198
2018-10-23T20:52:46.181426Z,-0.7106319999999999,-1.202209,-1.152405
2018-10-23T20:52:46.384426Z,-0.567261,0.127625,-1.246033
2018-10-23T20:52:46.580426Z,-0.871765,-2.059448,1.828125
2018-10-23T20:52:46.781426Z,-2.1864619999999997,-1.515259,-0.873474
2018-10-23T20:52:47.006426Z,-2.108215,-0.77417,0.9785159999999999
2018-10-23T20:52:47.182426Z,-1.641418,-1.591797,-0.380249
2018-10-23T20:52:47.386426Z,-0.844116,-1.313721,-0.45599399999999995
2018-10-23T20:52:47.581426Z,-1.9663700000000002,-0.660339,-1.1290280000000001
2018-10-23T20:52:47.781426Z,-2.950073,0.307129,1.6463619999999999
2018-10-23T20:52:47.981426Z,-0.822205,2.096741,-1.080627
2018-10-23T20:52:48.181426Z,-0.41516099999999995,-1.203735,-0.510498
2018-10-23T20:52:48.381426Z,0.222473,-0.941528,-0.379761
2018-10-23T20:52:48.620426Z,0.007996,-1.3203120000000002,0.541565
2018-10-23T20:52:48.787426Z,-0.560852,-0.744751,-0.405518
2018-10-23T20:52:48.980426Z,0.713989,0.051819000000000004,-1.018616
2018-10-23T20:52:49.180426Z,-0.03595,0.660522,-1.311279
2018-10-23T20:52:49.580426Z,-1.42804,-0.012634000000000001,3.2278439999999997
2018-10-23T20:52:49.784426Z,-1.1331790000000002,-1.239685,-1.937134
2018-10-23T20:52:49.980426Z,-0.831909,0.349304,0.319763
2018-10-23T20:52:50.180426Z,-0.369873,-0.729675,0.940735
2018-10-23T20:52:50.381426Z,0.191711,-1.280823,-1.2613530000000002
2018-10-23T20:52:50.582426Z,-0.08313,-0.29486100000000004,-0.071167
2018-10-23T20:52:50.781426Z,-0.443359,-0.216248,-0.23529099999999997
2018-10-23T20:52:50.980426Z,-0.807373,-1.301208,-0.460876
2018-10-23T20:52:51.181426Z,-0.9381709999999999,-0.910583,-0.152283
2018-10-23T20:52:51.381426Z,-0.5527340000000001,-0.682373,-0.703491
2018-10-23T20:52:51.581426Z,-0.445496,-0.266602,-0.47351099999999996
2018-10-23T20:52:51.783426Z,-0.144531,-0.17108199999999998,-0.685303
2018-10-23T20:52:51.981426Z,-0.283386,0.27636700000000003,-0.051940999999999994
2018-10-23T20:52:52.180426Z,-0.583862,-0.002441,-0.624084
2018-10-23T20:52:52.380426Z,-0.059753,-0.272461,-0.7565310000000001
2018-10-23T20:52:52.580426Z,-0.024353,0.137695,-0.12145999999999998
2018-10-23T20:52:52.781426Z,-0.457825,-0.21087600000000004,-0.320801
2018-10-23T20:52:52.980426Z,-0.327393,-0.009216,-0.198792
2018-10-23T20:52:53.188426Z,-0.391357,-0.004456,-0.50116
2018-10-23T20:52:53.380426Z,-0.814941,-0.331604,-1.4953610000000002
2018-10-23T20:52:53.582426Z,-0.19439700000000001,-0.077026,0.130859
2018-10-23T20:52:53.781426Z,-0.106873,0.028748000000000003,0.053833000000000006
2018-10-23T20:52:53.983426Z,-0.320374,-0.133301,-0.5782470000000001
2018-10-23T20:52:54.197426Z,-0.266052,0.295471,-0.38324
2018-10-23T20:52:54.387426Z,-0.7067260000000001,-0.11145,-0.6148680000000001
2018-10-23T20:52:54.585426Z,-0.78656,0.268311,-0.639404
2018-10-23T20:52:54.781426Z,-1.7400509999999998,0.411926,-0.752075
2018-10-23T20:52:54.981426Z,-1.583862,0.631592,-1.271118
2018-10-23T20:52:55.181426Z,-0.285339,0.724548,-0.482971
2018-10-23T20:52:55.381426Z,0.137329,-1.008057,1.6649169999999998
2018-10-23T20:52:55.580426Z,0.810608,-0.722961,-1.352966
2018-10-23T20:52:55.780426Z,0.031067,-0.32959,0.8696290000000001
2018-10-23T20:52:55.980426Z,-0.719971,-1.78772,0.8525389999999999
2018-10-23T20:52:56.215426Z,-0.041443,-2.140015,-2.906677
2018-10-23T20:52:56.380426Z,-0.196838,-0.564758,-0.9526370000000001
2018-10-23T20:52:56.580426Z,0.023315,-0.741943,0.062561
2018-10-23T20:52:56.782426Z,2.203125,-0.983215,-1.1571040000000001
2018-10-23T20:52:56.980426Z,0.884949,1.062439,0.45629899999999995
2018-10-23T20:52:57.181426Z,-0.470947,1.33728,0.952026
2018-10-23T20:52:57.386426Z,0.11065699999999999,-1.387512,-0.002075
2018-10-23T20:52:57.580426Z,0.413391,-0.525452,-0.8570559999999999
2018-10-23T20:52:57.780426Z,0.660522,0.862,-0.659546
2018-10-23T20:52:57.981426Z,0.44488500000000003,0.594055,1.057739
2018-10-23T20:52:58.230426Z,-0.030456999999999998,-1.34845,0.107056
2018-10-23T20:52:58.381426Z,0.415588,-0.26178,-0.164001
2018-10-23T20:52:58.583426Z,0.089783,0.269775,-0.8947139999999999
2018-10-23T20:52:58.784426Z,1.514343,0.5718989999999999,-0.494629
2018-10-23T20:52:58.981426Z,1.577332,1.063232,-0.339844
2018-10-23T20:52:59.180426Z,0.785217,1.831665,0.182861
2018-10-23T20:52:59.381426Z,-0.339294,0.000549,0.5941770000000001
2018-10-23T20:52:59.580426Z,-0.796082,-0.270996,-0.216309
2018-10-23T20:52:59.781426Z,-0.455933,0.989014,-0.858765
2018-10-23T20:52:59.981426Z,-0.478943,1.5570680000000001,-1.05072
2018-10-23T20:53:00.181426Z,0.436584,1.868591,0.917114
2018-10-23T20:53:00.384426Z,0.788269,-0.659668,0.385803
2018-10-23T20:53:00.585426Z,0.24346900000000002,1.180725,-2.180786
2018-10-23T20:53:00.781426Z,-0.222717,2.748413,-0.195801
2018-10-23T20:53:00.981426Z,-0.3302,-0.8464360000000001,3.4644779999999997
2018-10-23T20:53:01.181426Z,-0.548584,-0.924744,-2.442749
2018-10-23T20:53:01.381426Z,-0.363953,1.311707,-0.614319
2018-10-23T20:53:01.581426Z,-0.211243,1.57605,-0.506165
2018-10-23T20:53:01.782426Z,-0.7262569999999999,0.103149,0.5588380000000001
2018-10-23T20:53:01.982426Z,-0.281677,0.569336,-0.914062
2018-10-23T20:53:02.188426Z,0.140869,1.3154299999999999,-0.8718870000000001
2018-10-23T20:53:02.380426Z,0.300415,1.407471,0.096313
2018-10-23T20:53:02.581426Z,-0.007629,-0.619995,-0.191956
2018-10-23T20:53:02.781426Z,0.10199,0.5311279999999999,-0.9260860000000001
2018-10-23T20:53:02.981426Z,-0.143982,1.040283,-1.096252
2018-10-23T20:53:03.194426Z,-0.716003,1.034546,1.0582280000000002
2018-10-23T20:53:03.382426Z,0.674866,-0.536499,-1.5738530000000002
2018-10-23T20:53:03.580426Z,0.074036,0.172058,-1.0916139999999999
2018-10-23T20:53:03.780426Z,0.257996,0.795166,-0.325806
2018-10-23T20:53:03.980426Z,1.149353,0.34875500000000004,-0.32922399999999996
2018-10-23T20:53:04.182426Z,0.44213900000000006,-0.420044,-1.268738
2018-10-23T20:53:04.381426Z,-1.7203979999999999,-0.612122,-0.866455
2018-10-23T20:53:04.581426Z,-0.686279,0.373291,-0.448425
2018-10-23T20:53:04.781426Z,-0.64856,0.8103640000000001,-0.283386
2018-10-23T20:53:04.982426Z,-1.3355709999999998,-0.500305,0.64032
2018-10-23T20:53:05.209426Z,0.155273,-0.051453,0.076843
2018-10-23T20:53:05.381426Z,-1.1875,-0.30127,-0.352844
2018-10-23T20:53:05.584426Z,0.22345,-0.5040279999999999,-2.230835
2018-10-23T20:53:05.785426Z,0.5432130000000001,-1.2525629999999999,-0.44677700000000004
2018-10-23T20:53:06.181426Z,-1.326233,-0.251465,0.199097
2018-10-23T20:53:06.381426Z,-1.3897709999999999,-0.10516400000000001,-0.354675
2018-10-23T20:53:06.580426Z,-1.529663,-0.143738,-1.321045
2018-10-23T20:53:06.780426Z,-1.1015620000000002,0.6663819999999999,0.589417
2018-10-23T20:53:06.980426Z,-0.44928,-0.620544,0.360535
2018-10-23T20:53:07.181426Z,-0.230469,-2.155334,-0.9651489999999999
2018-10-23T20:53:07.381426Z,1.2998049999999999,0.492493,-0.291321
2018-10-23T20:53:07.582426Z,0.398376,1.014832,-0.265198
2018-10-23T20:53:07.781426Z,0.642151,1.461243,0.39819299999999996
2018-10-23T20:53:07.981426Z,-1.2235719999999999,-2.451477,0.41729700000000003
2018-10-23T20:53:08.187426Z,-1.696716,-1.7645259999999998,-0.038513
2018-10-23T20:53:08.414426Z,-1.037354,-0.135193,-0.44256599999999996
2018-10-23T20:53:08.581426Z,-2.003174,-0.325745,0.206116
2018-10-23T20:53:08.783426Z,-2.836792,0.391113,-0.094666
2018-10-23T20:53:08.981426Z,-1.513428,-0.47821,0.533081
2018-10-23T20:53:09.181426Z,0.40155,-0.926941,-0.418274
2018-10-23T20:53:09.381426Z,-0.419067,-0.817261,-0.111328
2018-10-23T20:53:09.580426Z,-0.991516,-0.21283000000000002,1.2502440000000001
2018-10-23T20:53:09.780426Z,-1.6919560000000002,-0.793579,1.47821
2018-10-23T20:53:09.980426Z,-2.802673,-0.6187739999999999,-0.9417110000000001
2018-10-23T20:53:10.180426Z,-1.194641,1.1522219999999999,1.521362
2018-10-23T20:53:10.380426Z,-2.198914,-0.768921,0.8493040000000001
2018-10-23T20:53:10.583426Z,-1.1853639999999999,-0.629517,-0.8929440000000001
2018-10-23T20:53:10.783426Z,-0.25109899999999996,0.5603640000000001,0.697815
2018-10-23T20:53:10.987426Z,-1.042542,-0.842651,2.157959
2018-10-23T20:53:11.183426Z,-1.131592,-1.461792,0.464661
2018-10-23T20:53:11.383426Z,-0.5294800000000001,-0.789917,-2.207214
2018-10-23T20:53:11.581426Z,-0.474365,-0.142456,-0.13763399999999998
2018-10-23T20:53:11.781426Z,-1.050476,-2.117126,-0.807556
2018-10-23T20:53:11.981426Z,0.486206,-0.06805399999999999,-0.336548
2018-10-23T20:53:12.181426Z,0.11438,1.015991,0.023254
2018-10-23T20:53:12.381426Z,-0.561401,-0.370789,0.7868649999999999
2018-10-23T20:53:12.582426Z,-0.902954,-0.8281860000000001,-0.691711
2018-10-23T20:53:12.781426Z,-0.855713,-0.531067,-0.813416
2018-10-23T20:53:12.980426Z,-0.624695,-0.355164,1.1420290000000002
2018-10-23T20:53:13.190426Z,-0.58313,-0.921692,0.44085699999999994
2018-10-23T20:53:13.380426Z,-0.934998,-0.41693100000000005,0.346252
2018-10-23T20:53:13.581426Z,-1.7601930000000001,-0.86908,0.473267
2018-10-23T20:53:13.780426Z,-2.8598630000000003,-1.385376,0.094055
2018-10-23T20:53:13.981426Z,-1.949341,-1.0219120000000002,0.013672
2018-10-23T20:53:14.181426Z,-0.8310549999999999,0.018555000000000002,0.348328
2018-10-23T20:53:14.381426Z,-1.098511,-1.326294,1.466797
2018-10-23T20:53:14.581426Z,-0.914734,-0.492004,-0.740173
2018-10-23T20:53:14.781426Z,-0.602356,0.191528,-0.5490109999999999
2018-10-23T20:53:14.982426Z,-0.480408,0.700623,0.153381
2018-10-23T20:53:15.183426Z,-1.0635379999999999,-0.916565,0.836426
2018-10-23T20:53:15.387426Z,-1.414185,-2.753784,0.615112
2018-10-23T20:53:15.581426Z,-0.6251220000000001,-0.708679,-0.49365200000000004
2018-10-23T20:53:15.782426Z,-0.401001,-0.179321,-0.6252439999999999
2018-10-23T20:53:15.981426Z,-1.209778,-1.479492,2.0927729999999998
2018-10-23T20:53:16.183426Z,0.552979,-0.877991,-0.934265
2018-10-23T20:53:16.380426Z,0.056396,0.5844729999999999,-0.38952600000000004
2018-10-23T20:53:16.580426Z,-1.4021,-1.207214,3.057373
2018-10-23T20:53:16.780426Z,0.10882599999999999,-1.39917,-0.756287
2018-10-23T20:53:16.981426Z,-0.204895,0.103271,-0.813354
2018-10-23T20:53:17.180426Z,0.225952,0.413513,-0.148254
2018-10-23T20:53:17.401426Z,1.19397,-1.2739260000000001,1.0660399999999999
2018-10-23T20:53:17.580426Z,0.8422850000000001,-1.115234,-0.423889
2018-10-23T20:53:17.781426Z,1.4795530000000001,1.412231,-0.263733
2018-10-23T20:53:17.981426Z,0.123352,1.522095,0.043335000000000005
2018-10-23T20:53:18.181426Z,0.08136,-0.26269499999999996,-0.701599
2018-10-23T20:53:18.381426Z,-0.059326,0.608154,-1.747986
2018-10-23T20:53:18.582426Z,0.578491,1.125,0.04303
2018-10-23T20:53:18.783426Z,-0.273438,0.20813,0.174988
2018-10-23T20:53:19.003426Z,0.675293,0.372864,-2.487549
2018-10-23T20:53:19.181426Z,-0.211853,2.0145869999999997,0.078735
2018-10-23T20:53:19.383426Z,-0.152771,0.15576199999999998,1.523132
2018-10-23T20:53:19.580426Z,0.070496,-0.731628,-1.7742310000000001
2018-10-23T20:53:19.780426Z,0.025146,0.685974,-0.478271
2018-10-23T20:53:19.980426Z,-0.494568,0.744995,-0.580505
2018-10-23T20:53:20.181426Z,0.466492,1.0132450000000002,-0.437439
2018-10-23T20:53:20.381426Z,-0.09820599999999999,1.54364,-0.245117
2018-10-23T20:53:20.580426Z,-0.259583,1.476807,-1.200317
2018-10-23T20:53:20.781426Z,0.381958,1.627319,0.5874020000000001
2018-10-23T20:53:21.181426Z,0.368896,0.561218,-0.051636
2018-10-23T20:53:21.382426Z,-0.557678,1.205994,-2.524536
2018-10-23T20:53:21.581426Z,-0.575439,0.89917,0.049805
2018-10-23T20:53:21.786426Z,0.134155,-1.113708,-0.683411
2018-10-23T20:53:21.983426Z,-0.8259280000000001,-1.056641,1.61438
2018-10-23T20:53:22.182426Z,0.788025,-0.004639,-0.743225
2018-10-23T20:53:22.381426Z,-0.733459,0.347717,0.093567
2018-10-23T20:53:22.582426Z,-0.6912229999999999,0.40979,-0.573425
2018-10-23T20:53:22.781426Z,-0.6896359999999999,1.179016,-0.9683229999999999
2018-10-23T20:53:22.982426Z,-0.43811000000000005,0.437805,-0.704712
2018-10-23T20:53:23.181426Z,-0.448853,-0.948425,0.410095
2018-10-23T20:53:23.380426Z,0.341064,0.282227,-0.8643799999999999
2018-10-23T20:53:23.580426Z,-0.585144,0.407288,0.241943
2018-10-23T20:53:23.780426Z,-0.692383,-1.762268,0.7622680000000001
2018-10-23T20:53:23.980426Z,-1.7772830000000002,-1.7760619999999998,-0.706055
