Datetime,accx,accy,accz
2018-10-10T23:06:11.634847Z,0.0,0.0,0.0
2018-10-10T23:06:11.793847Z,-0.12662400000000001,0.11787,-0.075429
2018-10-10T23:06:12.037847Z,0.023135,0.22492600000000001,0.100904
2018-10-10T23:06:12.243847Z,-0.078192,0.39767600000000003,0.072072
2018-10-10T23:06:12.435847Z,-0.7532810000000001,-0.287112,0.06576
2018-10-10T23:06:12.636847Z,-0.12226,-0.723053,-0.297072
2018-10-10T23:06:12.837847Z,-0.076199,-0.352593,0.17894200000000002
2018-10-10T23:06:13.039847Z,0.077421,-0.23530500000000001,0.471785
2018-10-10T23:06:13.237847Z,0.816824,-0.383471,0.275916
2018-10-10T23:06:13.437847Z,0.379676,0.052998,-0.8930110000000001
2018-10-10T23:06:13.646847Z,0.20710900000000002,0.221493,0.643374
2018-10-10T23:06:13.836847Z,-1.0449629999999999,-0.265354,0.176652
2018-10-10T23:06:14.037847Z,-1.142204,-0.308157,-0.246813
2018-10-10T23:06:14.238847Z,-0.627689,-0.216554,0.233138
2018-10-10T23:06:14.438847Z,-0.265545,-0.374663,0.9616
2018-10-10T23:06:14.638847Z,0.295486,-0.713841,-0.308894
2018-10-10T23:06:14.839847Z,0.571263,0.134994,-0.688163
2018-10-10T23:06:15.039847Z,0.339494,0.340885,0.736266
2018-10-10T23:06:15.250847Z,0.64584,-0.307492,0.071757
2018-10-10T23:06:15.437847Z,0.021774,-0.004233,-1.07294
2018-10-10T23:06:15.639847Z,-0.34757899999999997,0.9324549999999999,0.30587600000000004
2018-10-10T23:06:15.838847Z,0.504329,-0.25408400000000003,0.7374069999999999
2018-10-10T23:06:16.038847Z,0.564125,-0.431658,-0.982612
2018-10-10T23:06:16.240847Z,0.165733,0.790916,-0.573746
2018-10-10T23:06:16.440847Z,-0.300068,0.460239,1.3536620000000001
2018-10-10T23:06:16.659847Z,0.14299,-0.8615139999999999,-0.107832
2018-10-10T23:06:16.840847Z,0.44899300000000003,-0.089674,-0.6038140000000001
2018-10-10T23:06:17.063847Z,0.10438099999999999,0.9821,0.24635100000000001
2018-10-10T23:06:17.240847Z,0.7018840000000001,-0.693533,0.9493860000000001
2018-10-10T23:06:17.440847Z,0.69398,-0.544737,-0.814344
2018-10-10T23:06:17.640847Z,0.452925,0.013538999999999999,-0.12036300000000001
2018-10-10T23:06:17.860847Z,-0.344267,0.011917,0.644422
2018-10-10T23:06:18.042847Z,0.13802799999999998,-0.283684,0.11531400000000001
2018-10-10T23:06:18.254847Z,0.133671,-0.141008,-0.19610999999999998
2018-10-10T23:06:18.453847Z,0.372225,0.07760399999999999,0.5007560000000001
2018-10-10T23:06:18.642847Z,0.34624699999999997,-0.071125,0.551137
2018-10-10T23:06:18.842847Z,0.301311,-0.48843100000000006,-0.402127
2018-10-10T23:06:19.042847Z,0.40226100000000004,0.10273499999999999,-0.269835
2018-10-10T23:06:19.258847Z,-0.505486,0.242159,0.634683
2018-10-10T23:06:19.442847Z,-0.5935560000000001,-0.770403,0.608641
2018-10-10T23:06:19.658847Z,-0.770258,-0.708654,-0.577183
2018-10-10T23:06:19.843847Z,-0.739715,0.001466,0.177052
2018-10-10T23:06:20.043847Z,-0.6508010000000001,-0.022893,0.793262
2018-10-10T23:06:20.242847Z,0.006726,-0.427893,-0.18524000000000002
2018-10-10T23:06:20.458847Z,0.308345,-0.264764,-0.660633
2018-10-10T23:06:20.643847Z,0.523992,1.339884,-0.688718
2018-10-10T23:06:20.845847Z,0.704066,1.161367,0.722887
2018-10-10T23:06:21.044847Z,-0.342674,-0.709396,-0.136299
2018-10-10T23:06:21.244847Z,0.486105,0.026517000000000002,-0.393579
2018-10-10T23:06:21.445847Z,-0.459606,0.597517,-0.087878
2018-10-10T23:06:21.670847Z,-0.810582,0.913134,0.45896400000000004
2018-10-10T23:06:21.859847Z,-0.273685,-1.196898,0.510487
2018-10-10T23:06:22.046847Z,-0.19084500000000001,-0.8133600000000001,-0.7219399999999999
2018-10-10T23:06:22.246847Z,0.287177,0.10268800000000002,-0.121688
2018-10-10T23:06:22.444847Z,1.1431209999999998,0.5916939999999999,0.280105
2018-10-10T23:06:22.646847Z,1.124484,-0.11165699999999999,0.978879
2018-10-10T23:06:22.845847Z,0.5491510000000001,-0.41338800000000003,-0.5753149999999999
2018-10-10T23:06:23.046847Z,0.8325870000000001,-0.179896,-0.033179
2018-10-10T23:06:23.246847Z,0.780253,0.519753,0.115002
2018-10-10T23:06:23.445847Z,0.597887,-0.009285,0.577803
2018-10-10T23:06:23.645847Z,1.1815149999999999,-0.5167579999999999,-0.353584
2018-10-10T23:06:23.845847Z,0.310025,0.232923,-0.69423
2018-10-10T23:06:24.046847Z,-0.8136479999999999,0.30522,0.199851
2018-10-10T23:06:24.246847Z,-0.6641630000000001,-1.2865790000000001,0.9837809999999999
2018-10-10T23:06:24.446847Z,-0.215707,-1.326618,0.049863
2018-10-10T23:06:24.648847Z,0.771913,-0.473084,0.44681499999999996
2018-10-10T23:06:24.847847Z,0.952752,0.148653,0.320745
2018-10-10T23:06:25.048847Z,1.927505,-0.034322000000000005,0.084959
2018-10-10T23:06:25.248847Z,1.285442,0.018581999999999998,-0.264872
2018-10-10T23:06:25.448847Z,1.248667,0.188124,0.127906
2018-10-10T23:06:25.647847Z,0.588683,-0.717929,1.283663
2018-10-10T23:06:25.863847Z,1.26072,-0.560405,-0.403993
2018-10-10T23:06:26.047847Z,0.904127,0.157994,-0.21596500000000002
2018-10-10T23:06:26.247847Z,1.850889,0.08256000000000001,0.882719
2018-10-10T23:06:26.448847Z,2.069412,-1.132732,0.5594140000000001
2018-10-10T23:06:26.658847Z,1.361911,-1.312789,-0.131968
2018-10-10T23:06:26.848847Z,0.320743,-0.332771,0.39671300000000004
2018-10-10T23:06:27.083847Z,0.009134999999999999,0.09761,0.645346
2018-10-10T23:06:27.265847Z,-0.09378099999999999,-0.8977129999999999,-0.043022000000000005
2018-10-10T23:06:27.450847Z,-0.275225,-0.058547,-0.44758000000000003
2018-10-10T23:06:27.650847Z,-0.006468000000000001,0.330486,0.585291
2018-10-10T23:06:27.850847Z,0.43796899999999994,0.009436,0.679688
2018-10-10T23:06:28.049847Z,1.175424,-1.411715,-0.01185
2018-10-10T23:06:28.295847Z,0.27799,-0.47780100000000003,-0.3205
2018-10-10T23:06:28.448847Z,-0.294485,0.331044,-0.271312
2018-10-10T23:06:28.650847Z,-1.2941559999999999,0.17276,0.560584
2018-10-10T23:06:28.850847Z,-1.217474,-1.14283,0.476322
2018-10-10T23:06:29.050847Z,-0.957836,-0.8318559999999999,0.014133000000000001
2018-10-10T23:06:29.251847Z,-0.46490299999999996,-0.47808100000000003,0.10086200000000001
2018-10-10T23:06:29.452847Z,0.720691,0.18786,0.339316
2018-10-10T23:06:29.652847Z,0.455532,0.06501900000000001,0.374793
2018-10-10T23:06:29.852847Z,0.635962,-0.550485,-0.3385
2018-10-10T23:06:30.051847Z,0.7064520000000001,0.188564,-0.17289200000000002
2018-10-10T23:06:30.252847Z,1.1866780000000001,0.740165,-0.273964
2018-10-10T23:06:30.452847Z,0.567652,0.63252,0.574862
2018-10-10T23:06:30.665847Z,0.9765440000000001,-1.094208,0.533505
2018-10-10T23:06:30.851847Z,2.488164,-0.65362,0.078475
2018-10-10T23:06:31.060847Z,1.433109,0.118336,-0.34979499999999997
2018-10-10T23:06:31.268847Z,0.296873,0.244554,0.5909989999999999
2018-10-10T23:06:31.468847Z,0.34783400000000003,-0.5355300000000001,0.284704
2018-10-10T23:06:31.652847Z,0.29481199999999996,-1.215385,0.128476
2018-10-10T23:06:31.853847Z,0.039524000000000004,-0.5258729999999999,0.351584
2018-10-10T23:06:32.071847Z,0.108009,-0.178752,0.21734699999999998
2018-10-10T23:06:32.255847Z,0.017638,-0.15356,0.44849399999999995
2018-10-10T23:06:32.454847Z,-0.059959000000000005,-1.322942,0.47513199999999994
2018-10-10T23:06:32.654847Z,0.763636,-0.609681,-0.352892
2018-10-10T23:06:32.854847Z,-0.5446449999999999,-0.008904,0.151303
2018-10-10T23:06:33.068847Z,-0.331156,-0.437249,0.775087
2018-10-10T23:06:33.254847Z,-0.423791,-1.0810520000000001,0.35365100000000005
2018-10-10T23:06:33.525847Z,0.0015660000000000001,-0.24167800000000003,-0.48566400000000004
2018-10-10T23:06:33.653847Z,0.532992,-0.11164500000000001,0.25144
2018-10-10T23:06:33.883847Z,1.064062,-0.780262,0.9293379999999999
2018-10-10T23:06:34.056847Z,1.006214,-1.4810860000000001,0.13554000000000002
2018-10-10T23:06:34.255847Z,1.1850559999999999,-0.978548,0.33667199999999997
2018-10-10T23:06:34.455847Z,-0.292033,-0.382472,0.240889
2018-10-10T23:06:34.656847Z,0.0030789999999999997,-0.44935699999999995,0.9738319999999999
2018-10-10T23:06:34.856847Z,0.293279,-1.6834259999999999,1.0106389999999998
2018-10-10T23:06:35.056847Z,0.618294,-1.120586,-0.7302529999999999
2018-10-10T23:06:35.256847Z,-0.157196,-0.48579399999999995,0.033197000000000004
2018-10-10T23:06:35.476847Z,0.052503999999999995,0.148096,0.465319
2018-10-10T23:06:35.656847Z,0.296879,-1.051727,1.2552590000000001
2018-10-10T23:06:35.857847Z,-0.164917,-1.435945,-0.652795
2018-10-10T23:06:36.056847Z,0.196246,-0.168025,-0.539062
2018-10-10T23:06:36.257847Z,-0.50105,0.172432,0.9525309999999999
2018-10-10T23:06:36.458847Z,-0.183591,-0.646709,1.1436549999999999
2018-10-10T23:06:36.657847Z,0.325833,-1.386817,-0.31950100000000003
2018-10-10T23:06:36.858847Z,0.24365599999999998,-0.605798,-0.168979
2018-10-10T23:06:37.085847Z,-0.15650999999999998,0.270531,-0.167776
2018-10-10T23:06:37.257847Z,-0.68111,0.440633,0.566351
2018-10-10T23:06:37.457847Z,-0.803319,-1.40735,0.46919700000000003
2018-10-10T23:06:37.658847Z,-0.541571,-1.21989,-0.20702600000000002
2018-10-10T23:06:37.858847Z,-0.135918,-0.15582000000000001,0.147332
2018-10-10T23:06:38.059847Z,0.202053,0.544035,0.36532600000000004
2018-10-10T23:06:38.259847Z,0.440622,0.5228149999999999,0.33974099999999996
2018-10-10T23:06:38.460847Z,0.461607,-0.671754,0.331496
2018-10-10T23:06:38.677847Z,0.202518,-0.6114109999999999,-0.361176
2018-10-10T23:06:38.876847Z,-0.103028,0.415025,-0.609166
2018-10-10T23:06:39.073847Z,-0.052841,0.6343479999999999,0.060565999999999995
2018-10-10T23:06:39.259847Z,0.6132029999999999,-0.130486,0.513062
2018-10-10T23:06:39.476847Z,0.463013,-0.12030899999999999,-0.38547600000000004
2018-10-10T23:06:39.659847Z,0.10482799999999999,0.35836599999999996,0.032592
2018-10-10T23:06:39.859847Z,-0.5374140000000001,0.087397,-0.037141
2018-10-10T23:06:40.075847Z,0.022633,-0.36944099999999996,0.8761610000000001
2018-10-10T23:06:40.260847Z,-0.586342,-1.294905,0.8390190000000001
2018-10-10T23:06:40.460847Z,0.314089,-0.9656399999999999,-0.331307
2018-10-10T23:06:40.661847Z,0.24255,-1.053564,-0.094566
2018-10-10T23:06:40.861847Z,1.5775290000000002,0.160965,0.033007
2018-10-10T23:06:41.061847Z,0.733858,0.597386,-0.213206
2018-10-10T23:06:41.279847Z,1.056618,-0.284539,1.089027
2018-10-10T23:06:41.480847Z,1.488444,-0.412858,-0.037793
2018-10-10T23:06:41.660847Z,0.71036,0.30651999999999996,-0.651366
2018-10-10T23:06:41.870847Z,0.781578,0.912833,0.155131
2018-10-10T23:06:42.061847Z,0.39537,-0.332338,1.307281
2018-10-10T23:06:42.263847Z,0.8266309999999999,-0.830787,-1.0823459999999998
2018-10-10T23:06:42.501847Z,0.639333,0.205192,-0.38256399999999996
2018-10-10T23:06:42.661847Z,0.99939,0.57204,0.29989699999999997
2018-10-10T23:06:42.862847Z,1.017274,0.233551,0.8301940000000001
2018-10-10T23:06:43.062847Z,0.9656290000000001,-0.992273,-0.33114099999999996
2018-10-10T23:06:43.284847Z,0.550441,0.275331,-0.723693
2018-10-10T23:06:43.519847Z,0.405213,0.174591,0.36307399999999995
2018-10-10T23:06:43.663847Z,1.31778,-0.189985,1.123311
2018-10-10T23:06:43.862847Z,1.640238,-1.041169,0.011104000000000001
2018-10-10T23:06:44.062847Z,0.46166999999999997,-0.360082,-0.5410520000000001
2018-10-10T23:06:44.264847Z,-0.277343,0.672439,-0.168706
2018-10-10T23:06:44.464847Z,-0.153971,0.977943,0.9175139999999999
2018-10-10T23:06:44.666847Z,0.530216,-1.492816,0.5015970000000001
2018-10-10T23:06:44.865847Z,0.5401239999999999,-0.482471,-0.854959
2018-10-10T23:06:45.064847Z,0.268479,0.27418200000000004,0.337755
2018-10-10T23:06:45.263847Z,0.016161000000000002,-0.33612600000000004,1.0948639999999998
2018-10-10T23:06:45.463847Z,0.542737,-0.7849149999999999,-0.416429
2018-10-10T23:06:45.663847Z,-0.65412,-0.185387,-0.790301
2018-10-10T23:06:45.864847Z,-1.5738969999999999,-0.12419100000000001,0.646505
2018-10-10T23:06:46.065847Z,-1.8049439999999999,-1.327947,0.40881799999999996
2018-10-10T23:06:46.265847Z,-0.7886850000000001,-0.870432,-0.31144499999999997
2018-10-10T23:06:46.464847Z,0.824262,-0.076513,0.384481
2018-10-10T23:06:46.666847Z,0.18482,0.194717,0.215996
2018-10-10T23:06:46.866847Z,1.344654,-0.44036099999999995,0.711222
2018-10-10T23:06:47.066847Z,1.527696,-0.216902,-0.358768
2018-10-10T23:06:47.339847Z,0.96655,0.452554,-0.41565799999999997
2018-10-10T23:06:47.466847Z,0.517734,0.7851199999999999,0.39058200000000004
2018-10-10T23:06:47.681847Z,1.102201,-0.42268599999999995,0.816917
2018-10-10T23:06:47.866847Z,1.76761,-1.263361,0.281325
2018-10-10T23:06:48.066847Z,0.771058,-0.768097,0.12428399999999999
2018-10-10T23:06:48.267847Z,-0.10938599999999998,-0.296987,-0.17890899999999998
2018-10-10T23:06:48.468847Z,0.005899000000000001,0.7892859999999999,0.22544099999999997
2018-10-10T23:06:48.668847Z,0.294133,-1.120431,0.466942
2018-10-10T23:06:48.869847Z,0.225204,-0.7138359999999999,-0.353927
2018-10-10T23:06:49.069847Z,0.275244,-0.086328,-0.286957
2018-10-10T23:06:49.285847Z,-0.024735,-0.18562599999999999,1.355145
2018-10-10T23:06:49.467847Z,-0.08352799999999999,-0.897811,0.00935
2018-10-10T23:06:49.667847Z,0.531323,-0.578547,-0.32552800000000004
2018-10-10T23:06:49.869847Z,0.16119,-0.613039,0.8506090000000001
2018-10-10T23:06:50.068847Z,1.003534,-1.3977600000000001,0.9774950000000001
2018-10-10T23:06:50.269847Z,1.0345309999999999,-1.86142,0.014717
2018-10-10T23:06:50.468847Z,1.038002,-0.9177,-0.12828399999999998
2018-10-10T23:06:50.670847Z,0.71127,-0.27255999999999997,0.515316
2018-10-10T23:06:50.869847Z,0.375424,-1.073523,1.28918
2018-10-10T23:06:51.070847Z,0.403467,-1.640924,-0.083156
2018-10-10T23:06:51.277847Z,0.264623,-0.678017,-0.44842200000000004
2018-10-10T23:06:51.469847Z,0.034047,0.003875,0.564508
2018-10-10T23:06:51.670847Z,-0.25397,-0.488436,0.846684
2018-10-10T23:06:51.870847Z,0.466082,-1.7122490000000001,0.420187
2018-10-10T23:06:52.071847Z,0.08115399999999999,-0.6107239999999999,-0.7866770000000001
2018-10-10T23:06:52.271847Z,-0.013257,-0.027362,-0.037906
2018-10-10T23:06:52.471847Z,0.305344,0.44181000000000004,0.729567
2018-10-10T23:06:52.672847Z,0.299528,-1.437159,1.0281790000000002
2018-10-10T23:06:52.871847Z,0.528706,-0.903647,-0.642791
2018-10-10T23:06:53.095847Z,0.005108,-0.212709,-0.28030700000000003
2018-10-10T23:06:53.271847Z,-0.46035,0.20082,0.992065
2018-10-10T23:06:53.471847Z,-0.48056000000000004,-1.063004,0.72192
2018-10-10T23:06:53.671847Z,-0.400177,-1.728259,-0.05799
2018-10-10T23:06:53.872847Z,-0.491446,-0.266898,-0.280395
2018-10-10T23:06:54.073847Z,0.30031199999999997,0.540327,0.241961
2018-10-10T23:06:54.273847Z,0.17019,0.609013,0.5785239999999999
2018-10-10T23:06:54.472847Z,-0.017274,-0.9778950000000001,0.19053599999999998
2018-10-10T23:06:54.674847Z,0.298941,-0.684546,-0.396543
2018-10-10T23:06:54.873847Z,0.6917449999999999,0.20496599999999998,-0.054991
2018-10-10T23:06:55.073847Z,0.029116000000000003,0.8734040000000001,0.227552
2018-10-10T23:06:55.273847Z,0.588305,-0.387935,0.561341
2018-10-10T23:06:55.473847Z,-0.42800699999999997,-1.2337209999999998,-0.146902
2018-10-10T23:06:55.673847Z,0.200087,-0.210227,-0.35115799999999997
2018-10-10T23:06:55.872847Z,-0.36722899999999997,0.6844640000000001,-0.252974
2018-10-10T23:06:56.074847Z,0.038093,0.148074,1.040885
2018-10-10T23:06:56.274847Z,-0.671218,-0.48196400000000006,-0.7341260000000001
2018-10-10T23:06:56.474847Z,-1.133203,-1.024822,0.614262
2018-10-10T23:06:56.674847Z,0.345789,-0.804871,0.184328
2018-10-10T23:06:56.874847Z,1.179958,0.5851729999999999,0.482838
2018-10-10T23:06:57.075847Z,1.284227,-0.296107,0.105983
2018-10-10T23:06:57.288847Z,1.0634700000000001,-0.565431,-0.202031
2018-10-10T23:06:57.474847Z,0.8629479999999999,0.180616,-0.220437
2018-10-10T23:06:57.674847Z,0.635353,0.393075,-0.0021920000000000004
2018-10-10T23:06:57.875847Z,1.0419180000000001,0.516583,0.6145079999999999
2018-10-10T23:06:58.075847Z,0.906143,-0.949981,0.400568
2018-10-10T23:06:58.275847Z,1.128049,-0.6570729999999999,-0.49047700000000005
2018-10-10T23:06:58.474847Z,1.274134,0.331948,-0.192801
2018-10-10T23:06:58.676847Z,1.636234,-0.045443,1.6615259999999998
2018-10-10T23:06:58.877847Z,2.406086,-1.259794,-0.047847
2018-10-10T23:06:59.093847Z,1.9233919999999998,-0.633501,-0.34692199999999995
2018-10-10T23:06:59.275847Z,1.332233,-0.118987,0.266613
2018-10-10T23:06:59.476847Z,-0.16852899999999998,0.251729,1.031765
2018-10-10T23:06:59.677847Z,0.499583,-0.94757,0.072075
2018-10-10T23:06:59.877847Z,-0.385019,-0.44101,-0.39147
2018-10-10T23:07:00.077847Z,-0.42453100000000005,0.152696,-0.16489700000000002
2018-10-10T23:07:00.278847Z,-0.39281,0.09464700000000001,0.560923
2018-10-10T23:07:00.477847Z,-1.124288,-1.408623,1.178856
2018-10-10T23:07:00.676847Z,-1.48035,-1.149001,-0.731771
2018-10-10T23:07:00.929847Z,-0.44883900000000004,-0.656123,0.200994
2018-10-10T23:07:01.077847Z,-0.16960899999999998,0.132748,-0.339386
2018-10-10T23:07:01.280847Z,0.6241270000000001,0.28108299999999997,0.66792
2018-10-10T23:07:01.479847Z,0.456693,-0.689627,0.527323
2018-10-10T23:07:01.678847Z,0.747471,-0.344233,-0.6481319999999999
2018-10-10T23:07:01.879847Z,0.5681609999999999,0.41019700000000003,-0.298182
2018-10-10T23:07:02.079847Z,1.158728,0.779881,0.684368
2018-10-10T23:07:02.289847Z,1.8553080000000002,-0.291463,0.938874
2018-10-10T23:07:02.478847Z,2.38875,-1.230724,-0.048917
2018-10-10T23:07:02.699847Z,1.800718,-0.6653439999999999,-0.06481100000000001
2018-10-10T23:07:02.891847Z,0.530334,0.094125,0.399187
2018-10-10T23:07:03.084847Z,0.22776300000000002,-0.779676,1.011235
2018-10-10T23:07:03.280847Z,-0.11363399999999999,-0.955463,-0.430795
2018-10-10T23:07:03.481847Z,0.012676999999999999,-0.597765,-0.036371
2018-10-10T23:07:03.680847Z,0.20966700000000002,0.018351,0.268227
2018-10-10T23:07:03.882847Z,0.540303,-0.374605,1.1330799999999999
2018-10-10T23:07:04.088847Z,0.5845520000000001,-1.2285840000000001,-0.5257609999999999
2018-10-10T23:07:04.281847Z,-0.281673,-0.406039,-0.240829
2018-10-10T23:07:04.482847Z,0.907474,0.12413099999999999,0.29675799999999997
2018-10-10T23:07:04.681847Z,1.097658,-1.240301,1.056841
2018-10-10T23:07:04.883847Z,1.1771909999999999,-1.685355,0.551776
2018-10-10T23:07:05.082847Z,1.164469,-0.626988,-0.283538
2018-10-10T23:07:05.283847Z,-0.40411199999999997,-0.429295,0.297971
2018-10-10T23:07:05.482847Z,-0.258627,-0.21857,0.9426040000000001
2018-10-10T23:07:05.682847Z,1.071136,-1.9119380000000001,0.59548
2018-10-10T23:07:05.882847Z,1.0478180000000001,-1.145169,-0.588364
2018-10-10T23:07:06.082847Z,-0.200021,-0.11887400000000001,0.142214
2018-10-10T23:07:06.282847Z,0.09600399999999999,-0.546948,1.46938
2018-10-10T23:07:06.482847Z,-0.157709,-1.612212,0.056998
2018-10-10T23:07:06.697847Z,0.466383,-0.7491,-0.41039799999999993
2018-10-10T23:07:06.883847Z,-0.094579,0.180267,0.580276
2018-10-10T23:07:07.083847Z,-0.404014,-0.28174699999999997,0.4686
2018-10-10T23:07:07.283847Z,0.21242600000000003,-1.354316,0.491393
2018-10-10T23:07:07.483847Z,0.005097,-0.919549,-0.262671
2018-10-10T23:07:07.701847Z,0.07004500000000001,-0.019382,-0.185002
2018-10-10T23:07:07.883847Z,-0.4048,-0.027594999999999998,0.71505
2018-10-10T23:07:08.084847Z,-0.563107,-1.1394879999999998,0.369229
2018-10-10T23:07:08.283847Z,-0.58292,-0.8468629999999999,-0.61592
2018-10-10T23:07:08.485847Z,0.065635,0.51102,0.657958
2018-10-10T23:07:08.685847Z,-0.123295,0.8275969999999999,0.572708
2018-10-10T23:07:08.886847Z,-0.5475979999999999,-1.359248,0.605039
2018-10-10T23:07:09.086847Z,0.026294,-0.935255,-0.573725
2018-10-10T23:07:09.284847Z,0.492166,0.594296,-0.5800310000000001
2018-10-10T23:07:09.486847Z,0.513861,1.005053,0.002091
2018-10-10T23:07:09.685847Z,-0.134411,-0.139184,1.308627
2018-10-10T23:07:09.884847Z,-0.821017,-0.611825,-0.709727
2018-10-10T23:07:10.086847Z,-0.681489,-0.8503870000000001,0.404578
2018-10-10T23:07:10.286847Z,0.035073,-0.454899,0.310603
2018-10-10T23:07:10.500847Z,0.744517,0.017872,0.445667
2018-10-10T23:07:10.688847Z,0.683131,-1.047405,0.412875
2018-10-10T23:07:10.885847Z,0.424843,-0.6623560000000001,-0.38445100000000004
2018-10-10T23:07:11.087847Z,0.702437,-0.12065799999999999,-0.11678399999999999
2018-10-10T23:07:11.287847Z,1.503838,0.739848,0.181637
2018-10-10T23:07:11.488847Z,1.0394450000000002,0.19509300000000002,0.335886
2018-10-10T23:07:11.688847Z,0.960418,-1.222114,0.309935
2018-10-10T23:07:11.889847Z,1.155022,-0.298592,-0.490026
2018-10-10T23:07:12.140847Z,1.230633,0.36691999999999997,0.12959600000000002
2018-10-10T23:07:12.288847Z,1.204666,0.273872,0.718899
2018-10-10T23:07:12.487847Z,1.641073,-1.103694,0.175387
2018-10-10T23:07:12.687847Z,1.407058,-0.6828310000000001,-0.40458
2018-10-10T23:07:12.888847Z,1.199406,-0.16022999999999998,0.238974
2018-10-10T23:07:13.088847Z,0.084466,0.197939,1.162224
2018-10-10T23:07:13.289847Z,-0.505416,-0.855582,0.09521900000000001
2018-10-10T23:07:13.552847Z,-0.322346,-0.450434,-0.5522630000000001
2018-10-10T23:07:13.688847Z,-0.915071,0.094376,-0.073686
2018-10-10T23:07:13.888847Z,-1.325081,-0.040842,0.6765800000000001
2018-10-10T23:07:14.089847Z,-0.635714,-1.0411780000000002,0.052521000000000005
2018-10-10T23:07:14.327847Z,-0.6985779999999999,-0.38682,-0.049892
2018-10-10T23:07:14.488847Z,0.092447,0.677711,-0.369126
2018-10-10T23:07:14.689847Z,0.594072,0.519667,0.73807
2018-10-10T23:07:14.891847Z,0.596521,-0.656989,0.367302
2018-10-10T23:07:15.090847Z,0.432762,-0.49712700000000004,-0.49677899999999997
2018-10-10T23:07:15.291847Z,0.498879,0.377053,-0.09498
2018-10-10T23:07:15.496847Z,0.8298610000000001,0.75037,0.31604299999999996
2018-10-10T23:07:15.754847Z,1.283466,-0.406258,0.224098
2018-10-10T23:07:15.904847Z,0.8239540000000001,-0.045644,-1.088883
2018-10-10T23:07:16.103847Z,0.569311,0.79827,0.038835
2018-10-10T23:07:16.291847Z,0.573414,0.333276,0.928371
2018-10-10T23:07:16.491847Z,0.478608,-0.927356,-0.009037
2018-10-10T23:07:16.692847Z,0.31702800000000003,-0.19178900000000002,-0.8472629999999999
2018-10-10T23:07:16.893847Z,0.18887,0.620738,0.216567
2018-10-10T23:07:17.092847Z,0.481245,0.007690000000000001,1.02234
2018-10-10T23:07:17.292847Z,0.950942,-0.631743,-0.900789
2018-10-10T23:07:17.492847Z,0.6788109999999999,0.47839,-0.6182489999999999
2018-10-10T23:07:17.692847Z,-0.413203,0.5385340000000001,0.7021390000000001
2018-10-10T23:07:17.892847Z,-0.087122,-0.46329899999999996,0.414571
2018-10-10T23:07:18.092847Z,0.173422,-0.557363,-0.588943
2018-10-10T23:07:18.309847Z,0.031418,0.6064069999999999,-0.428545
2018-10-10T23:07:18.493847Z,-0.27881500000000004,0.44958000000000004,0.865287
2018-10-10T23:07:18.694847Z,0.388683,-0.555118,-0.020143
2018-10-10T23:07:18.893847Z,-0.120102,-0.138753,-0.732858
2018-10-10T23:07:19.093847Z,0.752628,0.777564,-0.20161099999999998
2018-10-10T23:07:19.294847Z,0.428658,-0.35085500000000003,1.421727
2018-10-10T23:07:19.518847Z,0.9111889999999999,-1.054132,-0.573491
2018-10-10T23:07:19.694847Z,-0.41872200000000004,0.824893,-1.24159
2018-10-10T23:07:19.893847Z,-0.5930449999999999,0.821831,1.2267780000000001
2018-10-10T23:07:20.093847Z,0.20111800000000002,-0.272244,-0.139074
2018-10-10T23:07:20.295847Z,-0.44505500000000003,-0.34470100000000004,-0.8281569999999999
2018-10-10T23:07:20.495847Z,-0.425162,0.009501,0.342185
2018-10-10T23:07:20.695847Z,0.394276,0.197507,1.204372
2018-10-10T23:07:20.896847Z,0.9862190000000001,-0.7864939999999999,-0.30474
2018-10-10T23:07:21.095847Z,0.427313,0.091196,-0.698207
2018-10-10T23:07:21.314847Z,-0.402648,0.689549,0.493518
2018-10-10T23:07:21.495847Z,-0.170231,-0.484533,0.22042899999999999
2018-10-10T23:07:21.695847Z,-0.630069,-0.002025,-1.004534
2018-10-10T23:07:21.910847Z,-0.705661,0.46729899999999996,-0.335916
2018-10-10T23:07:22.095847Z,-0.903976,0.053248000000000004,0.593212
2018-10-10T23:07:22.322847Z,0.43771899999999997,-0.960929,0.339787
2018-10-10T23:07:22.495847Z,-0.180518,-0.145033,-0.37114400000000003
2018-10-10T23:07:22.702847Z,0.333539,0.432076,0.078998
2018-10-10T23:07:22.897847Z,0.485378,0.618959,0.165121
2018-10-10T23:07:23.096847Z,1.8721849999999998,-0.465537,0.501434
2018-10-10T23:07:23.364847Z,1.135984,-0.02705,-0.786036
2018-10-10T23:07:23.496847Z,-1.20397,0.069759,0.096957
2018-10-10T23:07:23.730847Z,-1.629027,-0.964643,0.671974
2018-10-10T23:07:23.897847Z,-0.095087,-1.294078,-0.01881
2018-10-10T23:07:24.097847Z,0.178473,-0.619556,0.188079
2018-10-10T23:07:24.298847Z,1.095769,0.341265,0.473638
2018-10-10T23:07:24.499847Z,1.520694,-0.55835,0.806661
2018-10-10T23:07:24.699847Z,1.102682,-0.733494,-0.558327
2018-10-10T23:07:24.899847Z,1.4693129999999999,0.24082699999999999,-0.20555900000000002
2018-10-10T23:07:25.099847Z,0.771003,0.049891000000000005,1.036389
2018-10-10T23:07:25.311847Z,1.06189,-1.236034,0.437274
2018-10-10T23:07:25.499847Z,0.884388,-0.22729499999999997,-0.9386610000000001
2018-10-10T23:07:25.699847Z,0.447489,0.35073499999999996,0.707212
2018-10-10T23:07:25.898847Z,1.305763,-0.621486,1.274274
2018-10-10T23:07:26.112847Z,0.9674889999999999,-0.9018459999999999,-0.901135
2018-10-10T23:07:26.300847Z,0.718536,-0.00371,-0.149367
2018-10-10T23:07:26.500847Z,0.66081,0.40020500000000003,0.5868180000000001
2018-10-10T23:07:26.700847Z,0.7714880000000001,-0.5591229999999999,0.883552
2018-10-10T23:07:26.930847Z,1.056495,-0.638617,-0.7520939999999999
2018-10-10T23:07:27.100847Z,1.5538129999999999,-0.092988,0.345055
2018-10-10T23:07:27.321847Z,1.6673069999999999,-1.118005,1.368752
2018-10-10T23:07:27.500847Z,1.633843,-1.2732370000000002,-0.337266
2018-10-10T23:07:27.700847Z,0.8370209999999999,-0.265938,-0.2349
2018-10-10T23:07:27.901847Z,-0.061058,0.73068,0.580335
2018-10-10T23:07:28.101847Z,0.09306299999999999,-0.7493890000000001,1.2718770000000001
2018-10-10T23:07:28.301847Z,0.367041,-1.4030049999999998,-0.351998
2018-10-10T23:07:28.501847Z,0.133529,-0.17797000000000002,-0.647406
2018-10-10T23:07:28.701847Z,-0.38005900000000004,0.6592819999999999,0.940694
2018-10-10T23:07:28.901847Z,0.310435,-0.803578,0.27936300000000003
2018-10-10T23:07:29.102847Z,0.322468,-1.136824,-0.399092
2018-10-10T23:07:29.303847Z,0.514451,-0.030867000000000002,-0.25538099999999997
2018-10-10T23:07:29.503847Z,0.323177,-0.008083,0.8987700000000001
2018-10-10T23:07:29.703847Z,0.76166,-1.523087,0.9369770000000001
2018-10-10T23:07:29.902847Z,0.94242,-0.737987,-0.6539010000000001
2018-10-10T23:07:30.146847Z,0.649563,-0.51607,1.171219
2018-10-10T23:07:30.302847Z,1.948152,-1.516081,1.263715
2018-10-10T23:07:30.502847Z,1.767612,-1.292009,-0.18566400000000002
2018-10-10T23:07:30.704847Z,-0.181786,0.058540999999999996,-0.23730700000000002
2018-10-10T23:07:30.905847Z,-0.6929489999999999,-0.306662,1.063632
2018-10-10T23:07:31.105847Z,-0.26365900000000003,-1.161492,0.168274
2018-10-10T23:07:31.305847Z,-0.341206,-0.643149,-0.28074699999999997
2018-10-10T23:07:31.513847Z,0.372234,-0.20449900000000001,0.130457
2018-10-10T23:07:31.720847Z,-0.829461,0.577042,-0.189084
2018-10-10T23:07:31.915847Z,0.11910799999999999,-1.057983,1.141155
2018-10-10T23:07:32.119847Z,0.518103,-1.060124,-0.715248
2018-10-10T23:07:32.304847Z,-0.553855,0.260256,-0.116003
2018-10-10T23:07:32.506847Z,0.859877,-0.23409899999999997,1.2858020000000001
2018-10-10T23:07:32.705847Z,0.8672709999999999,-1.7395450000000001,0.8348200000000001
2018-10-10T23:07:32.906847Z,0.610731,-0.631537,-0.6867850000000001
2018-10-10T23:07:33.106847Z,-0.674117,0.156627,0.043255
2018-10-10T23:07:33.307847Z,-2.320263,-0.525546,0.9910200000000001
2018-10-10T23:07:33.505847Z,-1.485586,-1.343599,-0.271951
2018-10-10T23:07:33.705847Z,-0.5783,-0.003351,-0.571204
2018-10-10T23:07:33.906847Z,0.049717000000000004,0.5255890000000001,0.372705
2018-10-10T23:07:34.106847Z,0.8672489999999999,-0.31504,1.420612
2018-10-10T23:07:34.307847Z,0.48613,-1.177613,-0.432874
2018-10-10T23:07:34.521847Z,0.9647469999999999,-0.012985,-0.226465
2018-10-10T23:07:34.708847Z,0.682948,0.169406,0.43802700000000006
2018-10-10T23:07:34.968847Z,0.09554800000000001,-0.823132,0.9178299999999999
2018-10-10T23:07:35.107847Z,-0.914169,-0.711208,-0.808157
2018-10-10T23:07:35.319847Z,-1.821916,-0.523259,-0.57552
2018-10-10T23:07:35.507847Z,-0.417177,0.259206,-0.464892
2018-10-10T23:07:35.707847Z,1.282214,0.312651,0.655848
2018-10-10T23:07:35.909847Z,1.5896379999999999,-0.095066,1.174172
2018-10-10T23:07:36.109847Z,1.5577889999999999,-0.9295329999999999,-0.027882
2018-10-10T23:07:36.309847Z,1.3767129999999999,-0.020111,-0.039774000000000004
2018-10-10T23:07:36.509847Z,0.796891,0.280006,0.7689
2018-10-10T23:07:36.730847Z,1.6636790000000001,-0.40272199999999997,1.5221
2018-10-10T23:07:36.909847Z,1.800607,-0.87929,-0.11281
2018-10-10T23:07:37.109847Z,1.4031930000000001,0.07305700000000001,-0.031539
2018-10-10T23:07:37.307847Z,0.8459260000000001,0.5392359999999999,0.264791
2018-10-10T23:07:37.520847Z,-0.0036340000000000005,0.0008179999999999999,0.812625
2018-10-10T23:07:37.709847Z,0.103467,-0.985834,-0.267974
2018-10-10T23:07:37.909847Z,0.45874899999999996,0.037729,-0.083591
2018-10-10T23:07:38.124847Z,-0.095687,-0.109105,0.900634
2018-10-10T23:07:38.324847Z,0.43074399999999996,-0.6040300000000001,0.619779
2018-10-10T23:07:38.519847Z,-0.7037770000000001,-0.795033,-1.09169
2018-10-10T23:07:38.710847Z,-1.198451,0.42262799999999995,0.238317
2018-10-10T23:07:38.910847Z,-1.099854,-0.543515,0.690705
2018-10-10T23:07:39.109847Z,-0.503265,-0.893492,-0.06837599999999999
2018-10-10T23:07:39.310847Z,-0.5065350000000001,-0.087086,-0.38760900000000004
2018-10-10T23:07:39.511847Z,0.016868,0.682358,0.47963500000000003
2018-10-10T23:07:39.711847Z,0.30909699999999996,0.646107,0.41555600000000004
2018-10-10T23:07:39.912847Z,1.49676,-1.066756,0.376394
2018-10-10T23:07:40.112847Z,1.057244,0.037412,-1.0060129999999998
2018-10-10T23:07:40.311847Z,1.044098,0.62075,0.42121899999999995
2018-10-10T23:07:40.511847Z,1.305955,-0.1451,0.929069
2018-10-10T23:07:40.720847Z,1.177448,-0.9006059999999999,0.026654
2018-10-10T23:07:40.927847Z,1.965645,-0.656463,0.418583
2018-10-10T23:07:41.126847Z,2.067055,-1.012233,0.737201
2018-10-10T23:07:41.312847Z,1.052361,-1.473643,0.522319
2018-10-10T23:07:41.526847Z,-0.189344,-0.179013,0.170846
2018-10-10T23:07:41.713847Z,-1.170585,-0.365181,0.5912850000000001
2018-10-10T23:07:41.912847Z,-0.94045,-0.889318,0.44218900000000005
2018-10-10T23:07:42.113847Z,-0.172009,-0.569847,-0.192018
2018-10-10T23:07:42.314847Z,-0.264893,-0.147337,0.054662999999999996
2018-10-10T23:07:42.514847Z,-0.376817,0.12712400000000001,0.23304699999999998
2018-10-10T23:07:42.712847Z,-0.178178,-1.09503,0.653053
2018-10-10T23:07:42.913847Z,0.06179400000000001,-0.653982,-0.508065
2018-10-10T23:07:43.132847Z,0.378256,0.019722999999999997,-0.161685
2018-10-10T23:07:43.328847Z,0.275479,-0.309594,0.813237
2018-10-10T23:07:43.513847Z,1.383099,-1.4119389999999998,0.950375
2018-10-10T23:07:43.714847Z,1.487103,-1.275148,0.685865
2018-10-10T23:07:43.914847Z,0.206331,-1.2248629999999998,0.37254
2018-10-10T23:07:44.115847Z,0.709865,-0.11118199999999999,-0.5030180000000001
2018-10-10T23:07:44.316847Z,-1.520889,0.190436,0.39932399999999996
2018-10-10T23:07:44.515847Z,0.283648,-1.61001,1.314049
2018-10-10T23:07:44.716847Z,0.15954100000000002,-1.065982,-0.24354299999999998
2018-10-10T23:07:44.913847Z,-0.17711300000000002,-0.382633,-0.036969999999999996
2018-10-10T23:07:45.116847Z,-1.6335790000000001,-0.16952899999999999,0.360518
2018-10-10T23:07:45.318847Z,-1.3708040000000001,-1.05972,0.046682
2018-10-10T23:07:45.514847Z,-0.6725899999999999,-0.6124430000000001,-0.149007
2018-10-10T23:07:45.715847Z,-1.0077200000000002,0.392117,0.149207
2018-10-10T23:07:45.917847Z,-0.850951,0.011758,0.783944
2018-10-10T23:07:46.118847Z,0.423551,-0.7421800000000001,0.06676499999999999
2018-10-10T23:07:46.317847Z,-0.031809,-0.22824499999999998,-0.527898
2018-10-10T23:07:46.517847Z,0.6475529999999999,0.125103,0.226341
2018-10-10T23:07:46.717847Z,0.43935,-0.39667199999999997,1.6752259999999999
2018-10-10T23:07:46.917847Z,0.6967369999999999,-0.58106,-0.8215040000000001
2018-10-10T23:07:47.135847Z,0.505027,0.216009,-1.00022
2018-10-10T23:07:47.317847Z,-0.7221069999999999,0.6524949999999999,0.48912799999999995
2018-10-10T23:07:47.518847Z,0.208213,-0.351267,0.5193399999999999
2018-10-10T23:07:47.717847Z,0.132088,-0.22468600000000002,-0.773977
2018-10-10T23:07:47.918847Z,0.182309,1.1509610000000001,-0.565412
2018-10-10T23:07:48.137847Z,-0.084263,0.314934,1.384762
2018-10-10T23:07:48.320847Z,0.324457,-0.7700859999999999,-0.176899
2018-10-10T23:07:48.520847Z,0.061124,-0.285368,-0.5476489999999999
2018-10-10T23:07:48.719847Z,-0.298644,0.281953,0.001161
2018-10-10T23:07:48.918847Z,1.1203459999999998,-0.29626399999999997,1.292912
2018-10-10T23:07:49.126847Z,-0.260791,-0.694788,-0.543515
2018-10-10T23:07:49.318847Z,-0.032378,0.34118899999999996,-0.635108
2018-10-10T23:07:49.519847Z,0.451611,0.721701,0.051341
2018-10-10T23:07:49.719847Z,0.002734,0.194017,0.926796
2018-10-10T23:07:49.919847Z,0.212205,-0.539008,-0.26259299999999997
2018-10-10T23:07:50.119847Z,0.209681,0.38951399999999997,-1.0599459999999998
2018-10-10T23:07:50.321847Z,-0.097709,0.6570600000000001,0.689759
2018-10-10T23:07:50.521847Z,0.653325,-0.329,0.702295
2018-10-10T23:07:50.721847Z,0.138074,-0.597441,-0.529887
2018-10-10T23:07:50.921847Z,0.8700450000000001,0.9539129999999999,-1.132009
2018-10-10T23:07:51.122847Z,-0.42701999999999996,0.160304,0.690851
2018-10-10T23:07:51.321847Z,0.175604,-0.647297,0.693875
2018-10-10T23:07:51.563847Z,0.48406099999999996,-0.419861,-0.44703699999999996
2018-10-10T23:07:51.721847Z,-0.30303,0.588333,-0.334816
2018-10-10T23:07:51.936847Z,-0.8007850000000001,0.10391900000000001,0.8576870000000001
2018-10-10T23:07:52.137847Z,0.386394,-1.032565,-0.068891
2018-10-10T23:07:52.321847Z,0.110266,0.5165069999999999,-1.0812950000000001
2018-10-10T23:07:52.535847Z,-0.12078499999999999,0.631057,0.193503
2018-10-10T23:07:52.740847Z,0.601604,-0.044837,1.7529599999999999
2018-10-10T23:07:52.923847Z,0.32562399999999997,-1.032405,-0.463949
2018-10-10T23:07:53.123847Z,-0.09438400000000001,0.123831,-1.465077
2018-10-10T23:07:53.336847Z,-0.9688209999999999,0.9662139999999999,0.665695
2018-10-10T23:07:53.540847Z,-0.484942,-0.550512,0.432251
2018-10-10T23:07:53.730847Z,0.400054,-0.374347,-0.695612
2018-10-10T23:07:53.922847Z,-0.15051900000000001,0.804288,-0.616527
2018-10-10T23:07:54.123847Z,-0.10547100000000001,-0.027739999999999997,1.703868
2018-10-10T23:07:54.322847Z,0.216879,-1.318906,0.645883
2018-10-10T23:07:54.522847Z,-0.72526,-0.032687,-1.749296
2018-10-10T23:07:54.723847Z,-1.125137,0.512033,0.756711
2018-10-10T23:07:54.923847Z,-1.106789,-0.093788,0.38929
2018-10-10T23:07:55.123847Z,-0.394685,-0.251017,-0.58896
2018-10-10T23:07:55.324847Z,0.298572,0.27372399999999997,-0.263815
2018-10-10T23:07:55.525847Z,0.39106799999999997,0.764671,0.579321
2018-10-10T23:07:55.743847Z,-0.053564999999999995,-0.162838,0.747834
2018-10-10T23:07:55.925847Z,0.219723,-0.578548,-0.864342
2018-10-10T23:07:56.125847Z,0.603432,0.258698,-0.356549
2018-10-10T23:07:56.325847Z,0.669289,1.2764440000000001,0.700075
2018-10-10T23:07:56.524847Z,1.631338,-0.5146569999999999,0.17313499999999998
2018-10-10T23:07:56.725847Z,0.35385500000000003,-0.194987,-0.78485
2018-10-10T23:07:56.925847Z,0.110997,0.572815,-0.270375
2018-10-10T23:07:57.125847Z,-0.346177,0.474867,0.98444
2018-10-10T23:07:57.327847Z,0.220075,-0.776824,-0.0018789999999999998
2018-10-10T23:07:57.526847Z,0.250791,0.034737,-0.865909
2018-10-10T23:07:57.727847Z,0.65364,0.628181,0.807738
2018-10-10T23:07:57.927847Z,1.40472,-0.110411,0.539474
2018-10-10T23:07:58.140847Z,1.545682,-0.555226,-0.620815
2018-10-10T23:07:58.327847Z,0.60122,0.633738,-0.6038680000000001
2018-10-10T23:07:58.527847Z,0.137476,0.741568,0.828835
2018-10-10T23:07:58.727847Z,-0.132189,-0.329986,-0.070142
2018-10-10T23:07:58.940847Z,0.024958,-0.22809200000000002,-0.6499149999999999
2018-10-10T23:07:59.128847Z,-0.093561,0.7441479999999999,0.236589
2018-10-10T23:07:59.328847Z,0.815257,-0.001588,1.051601
2018-10-10T23:07:59.528847Z,0.898251,-0.6217060000000001,-0.6119939999999999
2018-10-10T23:07:59.729847Z,0.8560030000000001,0.189449,-0.390828
2018-10-10T23:07:59.929847Z,0.325253,0.725332,0.555474
2018-10-10T23:08:00.140847Z,0.462213,-0.502584,0.412379
2018-10-10T23:08:00.339847Z,0.9743370000000001,-0.477287,-0.7461369999999999
2018-10-10T23:08:00.529847Z,0.09379900000000001,0.380278,-0.15755
2018-10-10T23:08:00.744847Z,-0.005981,0.556579,0.21552600000000002
2018-10-10T23:08:00.929847Z,0.46538900000000005,-0.7718659999999999,0.61005
2018-10-10T23:08:01.129847Z,0.608226,-0.491762,-0.258705
2018-10-10T23:08:01.330847Z,0.6970689999999999,0.461213,-0.37866500000000003
2018-10-10T23:08:01.531847Z,0.465926,0.904175,0.377298
2018-10-10T23:08:01.731847Z,0.11327100000000001,-0.22562600000000002,0.620363
2018-10-10T23:08:01.931847Z,-0.054863999999999996,-0.197804,-0.44905100000000003
2018-10-10T23:08:02.131847Z,-0.186959,0.506946,-0.349877
2018-10-10T23:08:02.329847Z,-0.407059,0.143561,1.127858
2018-10-10T23:08:02.548847Z,0.66803,-1.055342,0.025157
2018-10-10T23:08:02.730847Z,0.103457,-0.383829,-0.735054
2018-10-10T23:08:02.956847Z,-0.739524,0.345023,-0.273932
2018-10-10T23:08:03.145847Z,-1.412418,-0.235578,1.031635
2018-10-10T23:08:03.451847Z,-0.661619,-0.434676,-0.235294
2018-10-10T23:08:03.649847Z,-0.158848,-0.08846,-0.303479
2018-10-10T23:08:03.849847Z,0.126154,0.623694,0.434482
2018-10-10T23:08:04.051847Z,0.016097999999999998,-0.015907,0.5572010000000001
2018-10-10T23:08:04.250847Z,0.693775,0.21390599999999999,-1.083388
2018-10-10T23:08:04.463847Z,-0.046838,0.57901,-0.16105799999999998
2018-10-10T23:08:04.650847Z,0.184455,0.60602,0.9162370000000001
2018-10-10T23:08:04.868847Z,-0.26169499999999996,-0.703073,1.008014
2018-10-10T23:08:05.069847Z,-0.8349219999999999,-0.272284,-0.662393
2018-10-10T23:08:05.252847Z,-0.424418,0.561729,0.43307700000000005
2018-10-10T23:08:05.450847Z,0.15846300000000002,0.49234399999999995,0.13326400000000002
2018-10-10T23:08:05.650847Z,0.696051,-0.35793600000000003,0.318304
2018-10-10T23:08:05.865847Z,0.8846350000000001,0.100115,-0.46403999999999995
2018-10-10T23:08:06.051847Z,1.0642,0.889375,-0.200255
2018-10-10T23:08:06.254847Z,0.496016,0.47485,0.632466
2018-10-10T23:08:06.451847Z,0.25140500000000005,-0.528411,0.738923
2018-10-10T23:08:06.651847Z,-0.028948,-0.531038,-0.25494
2018-10-10T23:08:06.850847Z,-0.273777,0.1222,-0.050568
2018-10-10T23:08:07.051847Z,0.07407899999999999,0.012528000000000001,0.558865
2018-10-10T23:08:07.252847Z,0.25312399999999996,-1.338671,0.39767399999999997
2018-10-10T23:08:07.454847Z,0.242089,-0.5499649999999999,0.105234
2018-10-10T23:08:07.653847Z,0.985452,-0.09803200000000001,0.06104400000000001
2018-10-10T23:08:07.853847Z,1.0182200000000001,-0.036821,0.530562
2018-10-10T23:08:08.053847Z,1.0047,-0.9717049999999999,0.795833
2018-10-10T23:08:08.254847Z,0.741239,-0.262538,-0.46803100000000003
2018-10-10T23:08:08.454847Z,0.6478010000000001,0.08786000000000001,0.36481399999999997
2018-10-10T23:08:08.653847Z,0.817751,0.02634,0.364793
2018-10-10T23:08:08.868847Z,1.746537,-1.140468,1.028774
2018-10-10T23:08:09.054847Z,2.374635,-0.28791100000000003,0.13460899999999998
2018-10-10T23:08:09.253847Z,2.060495,0.181668,0.144128
2018-10-10T23:08:09.454847Z,1.610054,-0.882476,0.850439
2018-10-10T23:08:09.654847Z,1.6882119999999998,-1.694511,0.941423
2018-10-10T23:08:09.855847Z,0.8119390000000001,-0.60941,-0.39100100000000004
2018-10-10T23:08:10.054847Z,-0.162956,0.179292,0.361628
2018-10-10T23:08:10.255847Z,0.102108,-0.206853,0.803346
2018-10-10T23:08:10.455847Z,0.8349559999999999,-1.5586,-0.145583
2018-10-10T23:08:10.656847Z,0.41005699999999995,-0.051530999999999993,0.060187
2018-10-10T23:08:10.854847Z,0.157391,0.509749,0.491364
2018-10-10T23:08:11.055847Z,0.583576,-0.23630700000000002,0.425166
2018-10-10T23:08:11.255847Z,0.020794,-1.539976,-0.326266
2018-10-10T23:08:11.456847Z,-0.071703,0.02768,-0.18287
2018-10-10T23:08:11.655847Z,0.010449,0.327436,0.795592
2018-10-10T23:08:11.857847Z,0.426422,-0.8639610000000001,0.74265
2018-10-10T23:08:12.057847Z,0.02396,-1.095558,-1.04748
2018-10-10T23:08:12.266847Z,-0.028477999999999996,-0.026716000000000004,-0.052114
2018-10-10T23:08:12.474847Z,0.36594299999999996,0.48446300000000003,0.735366
2018-10-10T23:08:12.657847Z,0.29417600000000005,-0.819527,0.719468
2018-10-10T23:08:12.857847Z,0.018801,-1.50797,-0.544041
2018-10-10T23:08:13.058847Z,0.074429,0.21409699999999998,0.057218
2018-10-10T23:08:13.258847Z,0.348473,0.691367,0.632536
2018-10-10T23:08:13.459847Z,0.288362,-0.476371,0.45289799999999997
2018-10-10T23:08:13.657847Z,0.694339,-1.127349,-0.405873
2018-10-10T23:08:13.858847Z,-0.147396,-0.126634,-0.750057
2018-10-10T23:08:14.076847Z,-0.323322,-0.714802,0.36347199999999996
2018-10-10T23:08:14.277847Z,0.412466,0.424101,1.980245
2018-10-10T23:08:14.457847Z,-0.313325,-1.055644,-0.604753
2018-10-10T23:08:14.669847Z,-0.067009,0.06393099999999999,-0.43127
2018-10-10T23:08:14.858847Z,-0.053185,0.384495,0.143628
2018-10-10T23:08:15.058847Z,0.156755,0.014538999999999998,0.715663
2018-10-10T23:08:15.257847Z,0.955958,-1.114952,-0.621449
2018-10-10T23:08:15.459847Z,0.305145,0.133438,-0.300863
2018-10-10T23:08:15.658847Z,-0.053287,0.317894,-0.36246300000000004
2018-10-10T23:08:15.875847Z,-0.349932,-0.335905,0.5083439999999999
2018-10-10T23:08:16.059847Z,-0.274946,-0.8451420000000001,0.322719
2018-10-10T23:08:16.258847Z,-0.412918,0.210473,-0.758088
2018-10-10T23:08:16.460847Z,-0.105563,0.8077350000000001,0.060461
2018-10-10T23:08:16.659847Z,0.314052,0.816082,0.250606
2018-10-10T23:08:16.860847Z,0.9375700000000001,-0.85272,-0.13337000000000002
2018-10-10T23:08:17.061847Z,0.545783,-0.056494,0.023527
2018-10-10T23:08:17.260847Z,0.154627,0.80683,-0.4754
2018-10-10T23:08:17.461847Z,0.073948,0.324368,0.535229
2018-10-10T23:08:17.661847Z,0.58534,-1.4135790000000001,0.861008
2018-10-10T23:08:17.860847Z,-0.232544,0.075573,-1.171583
2018-10-10T23:08:18.061847Z,-0.135486,0.528632,-0.027598
2018-10-10T23:08:18.261847Z,-0.24674899999999997,0.520846,0.6977899999999999
2018-10-10T23:08:18.461847Z,0.7781600000000001,-1.112532,0.435963
2018-10-10T23:08:18.661847Z,0.45851099999999995,-0.093527,-0.127842
2018-10-10T23:08:18.863847Z,0.19406600000000002,0.5996859999999999,-0.225733
2018-10-10T23:08:19.062847Z,-0.14153,0.486526,0.27937
2018-10-10T23:08:19.262847Z,0.426591,-0.308289,0.713174
2018-10-10T23:08:19.463847Z,-0.004399,-0.303051,-1.159015
2018-10-10T23:08:19.662847Z,-0.373992,0.160881,-0.245666
2018-10-10T23:08:19.862847Z,-0.007885,0.492407,1.176713
2018-10-10T23:08:20.062847Z,-0.42632299999999995,-0.776346,0.019087
2018-10-10T23:08:20.263847Z,-0.049681,-0.004536,-0.41479799999999994
2018-10-10T23:08:20.464847Z,0.22571799999999997,0.21289499999999997,-0.050308
2018-10-10T23:08:20.663847Z,0.659768,0.9019590000000001,0.512768
2018-10-10T23:08:20.863847Z,-0.14319500000000002,-1.0220989999999999,1.042618
2018-10-10T23:08:21.065847Z,-0.354799,-0.7236020000000001,-0.481567
2018-10-10T23:08:21.264847Z,-0.014927000000000001,0.8062600000000001,-0.104332
2018-10-10T23:08:21.464847Z,-0.350702,0.331259,0.278485
2018-10-10T23:08:21.665847Z,-0.257741,-0.552717,-0.294707
2018-10-10T23:08:21.880847Z,0.049917,-0.223575,-0.670717
2018-10-10T23:08:22.132847Z,0.019247999999999998,-0.06387000000000001,-0.052653
2018-10-10T23:08:22.265847Z,-0.08803,0.40521599999999997,0.30535999999999996
2018-10-10T23:08:22.481847Z,-0.48045600000000005,-0.882941,0.799081
2018-10-10T23:08:22.664847Z,-0.45881099999999997,-0.114871,-0.585507
2018-10-10T23:08:22.865847Z,-0.574817,0.323547,-0.6256430000000001
2018-10-10T23:08:23.067847Z,-0.018241,0.687189,0.677755
2018-10-10T23:08:23.266847Z,0.661946,-1.046322,0.895761
2018-10-10T23:08:23.467847Z,1.410052,0.165704,-1.478957
2018-10-10T23:08:23.686847Z,0.508947,0.908175,-0.015116
2018-10-10T23:08:23.868847Z,-1.105177,-0.8760469999999999,1.765985
2018-10-10T23:08:24.102847Z,-1.7173779999999998,-1.812888,1.227518
2018-10-10T23:08:24.283847Z,0.105117,0.062245,-0.684797
2018-10-10T23:08:24.527847Z,-0.482138,0.23040500000000003,-0.24696500000000002
2018-10-10T23:08:24.681847Z,-0.066437,0.223279,-0.261521
2018-10-10T23:08:24.867847Z,-0.871604,-1.183406,0.754035
2018-10-10T23:08:25.070847Z,-0.200504,0.084617,-0.733925
2018-10-10T23:08:25.267847Z,-0.031265,0.658363,-0.34724
2018-10-10T23:08:25.469847Z,1.0844280000000002,0.672371,0.816163
2018-10-10T23:08:25.688847Z,0.125877,-0.863397,1.262736
2018-10-10T23:08:25.869847Z,0.167375,-0.34118699999999996,-0.77377
2018-10-10T23:08:26.069847Z,0.243135,0.391633,-0.234592
2018-10-10T23:08:26.270847Z,0.761829,0.335442,0.360059
2018-10-10T23:08:26.480847Z,0.637362,-0.42576499999999995,-0.15526099999999998
2018-10-10T23:08:26.668847Z,0.49749099999999996,0.9126770000000001,0.092365
2018-10-10T23:08:26.883847Z,0.668609,0.388048,0.292981
2018-10-10T23:08:27.081847Z,0.351567,-0.42555,-0.008409999999999999
2018-10-10T23:08:27.268847Z,0.42717299999999997,-0.627737,-0.601436
2018-10-10T23:08:27.468847Z,0.036326,0.35957,-0.5950989999999999
2018-10-10T23:08:27.669847Z,-0.333891,0.371829,1.1808379999999998
2018-10-10T23:08:27.871847Z,0.23917399999999997,-0.705863,0.055715
2018-10-10T23:08:28.083847Z,-0.104653,-0.450855,-1.021423
2018-10-10T23:08:28.270847Z,-0.099298,0.183332,0.022767
2018-10-10T23:08:28.471847Z,-0.098122,-0.274811,0.468397
2018-10-10T23:08:28.699847Z,-0.410951,-1.036634,0.1275
2018-10-10T23:08:28.869847Z,-0.098647,-0.351952,-0.7211569999999999
2018-10-10T23:08:29.075847Z,2.4829830000000004,-1.020158,1.0831309999999998
2018-10-10T23:08:29.270847Z,3.007948,-2.314541,1.069225
2018-10-10T23:08:29.471847Z,1.048825,-2.327934,-0.07219
2018-10-10T23:08:29.671847Z,0.241544,-1.301599,0.042543
2018-10-10T23:08:29.872847Z,-0.48349,-1.314673,0.722534
2018-10-10T23:08:30.073847Z,-0.633815,-1.6613259999999999,-0.039424
2018-10-10T23:08:30.279847Z,-0.095981,-0.808055,-0.49330100000000005
2018-10-10T23:08:30.472847Z,-0.747545,-0.033201999999999995,0.25701
2018-10-10T23:08:30.674847Z,-0.900646,-2.02257,0.655724
2018-10-10T23:08:30.871847Z,-0.9707110000000001,-1.4486459999999999,-0.40875
2018-10-10T23:08:31.072847Z,-0.57019,9.8e-05,-0.623063
2018-10-10T23:08:31.273847Z,-0.373584,-0.488922,1.392908
2018-10-10T23:08:31.473847Z,-0.548141,-0.9941979999999999,0.08256799999999999
2018-10-10T23:08:31.673847Z,-0.300383,-0.801078,-0.20176
2018-10-10T23:08:31.874847Z,0.151032,0.31558600000000003,-0.10746900000000001
2018-10-10T23:08:32.073847Z,0.301053,-0.016413999999999998,0.786806
2018-10-10T23:08:32.286847Z,-0.597208,-0.874189,-0.5592689999999999
2018-10-10T23:08:32.487847Z,-0.48677600000000004,-0.11690199999999999,-0.553383
2018-10-10T23:08:32.675847Z,-0.537756,0.125109,0.629634
2018-10-10T23:08:32.874847Z,-0.535335,-0.872339,1.024986
2018-10-10T23:08:33.074847Z,0.091823,-0.400818,-0.12476500000000001
2018-10-10T23:08:33.275847Z,0.7247279999999999,0.341871,0.257393
2018-10-10T23:08:33.475847Z,1.3948049999999999,0.32621,0.911576
2018-10-10T23:08:33.675847Z,1.796387,-0.360275,-0.482113
2018-10-10T23:08:33.893847Z,1.0150780000000001,0.303175,-0.161402
2018-10-10T23:08:34.090847Z,0.537334,0.3901,0.343173
2018-10-10T23:08:34.276847Z,0.956448,0.062958,0.7667069999999999
2018-10-10T23:08:34.475847Z,0.85841,-0.874267,0.014889
2018-10-10T23:08:34.676847Z,1.346376,-0.018665,0.007753
2018-10-10T23:08:34.875847Z,2.154265,-0.038341,1.700247
2018-10-10T23:08:35.075847Z,3.0270669999999997,-1.353853,0.379796
2018-10-10T23:08:35.276847Z,1.661334,-1.1626889999999999,-0.34534499999999996
2018-10-10T23:08:35.477847Z,0.268379,0.26012199999999996,0.38411100000000004
2018-10-10T23:08:35.676847Z,-1.1001049999999999,-0.28139400000000003,0.624604
2018-10-10T23:08:35.876847Z,-0.318848,-0.6610050000000001,-0.6015229999999999
2018-10-10T23:08:36.075847Z,-0.618696,-0.5409619999999999,-0.491634
2018-10-10T23:08:36.276847Z,-1.604385,-0.47357299999999997,0.6409819999999999
2018-10-10T23:08:36.477847Z,-1.419577,-1.517249,0.309672
2018-10-10T23:08:36.677847Z,-0.604043,-0.84105,-0.178175
2018-10-10T23:08:36.878847Z,0.8463280000000001,0.10833499999999999,-0.067315
2018-10-10T23:08:37.078847Z,0.723607,0.31158,0.837786
2018-10-10T23:08:37.278847Z,0.394812,-0.8665889999999999,-0.476079
2018-10-10T23:08:37.478847Z,0.555114,0.062915,-0.599438
2018-10-10T23:08:37.678847Z,0.464909,0.62978,0.693654
2018-10-10T23:08:37.878847Z,1.3336860000000001,-0.5896779999999999,0.210483
2018-10-10T23:08:38.077847Z,1.0682459999999998,-0.610322,-1.346221
2018-10-10T23:08:38.278847Z,0.483872,0.434525,-0.20424
2018-10-10T23:08:38.491847Z,0.12163399999999999,0.34718899999999997,1.2008219999999998
2018-10-10T23:08:38.678847Z,0.251893,-0.543513,-0.581285
2018-10-10T23:08:38.879847Z,0.330752,0.284516,-0.5569649999999999
2018-10-10T23:08:39.081847Z,0.548203,0.7473420000000001,0.78371
2018-10-10T23:08:39.280847Z,2.276199,-0.574058,1.006635
2018-10-10T23:08:39.479847Z,0.469987,-0.077168,-0.818131
2018-10-10T23:08:39.692847Z,0.33457600000000004,0.767025,0.19545
2018-10-10T23:08:39.880847Z,-0.32311599999999996,0.487746,0.472125
2018-10-10T23:08:40.078847Z,-0.198463,-0.779385,0.485569
2018-10-10T23:08:40.279847Z,0.14494200000000002,0.289497,-0.26628
2018-10-10T23:08:40.480847Z,0.522826,0.426284,0.370477
2018-10-10T23:08:40.681847Z,1.2669979999999998,-0.174738,-0.194519
2018-10-10T23:08:40.882847Z,0.5183949999999999,-0.270314,-0.505045
2018-10-10T23:08:41.082847Z,0.200639,0.7558779999999999,0.9939020000000001
2018-10-10T23:08:41.351847Z,0.17748699999999998,0.00029,-0.064889
2018-10-10T23:08:41.480847Z,-0.157913,-0.6165510000000001,-0.333701
2018-10-10T23:08:41.703847Z,-0.21539,0.201382,-0.639518
2018-10-10T23:08:41.881847Z,0.47154399999999996,-0.12314100000000001,1.078708
2018-10-10T23:08:42.080847Z,0.044368,-0.8767659999999999,-0.763941
2018-10-10T23:08:42.281847Z,-0.546823,0.13078299999999998,-1.241659
2018-10-10T23:08:42.481847Z,-0.247836,0.427147,0.697268
2018-10-10T23:08:42.682847Z,-0.304532,-0.37155,-0.10551700000000001
2018-10-10T23:08:42.884847Z,-0.539063,-0.242189,-0.750078
2018-10-10T23:08:43.083847Z,-0.503459,0.43098400000000003,0.039046
2018-10-10T23:08:43.296847Z,0.6468619999999999,0.23691500000000001,1.117204
2018-10-10T23:08:43.482847Z,0.139574,-0.560967,-1.088575
2018-10-10T23:08:43.685847Z,-0.47504799999999997,0.653399,-0.30044499999999996
2018-10-10T23:08:43.897847Z,-0.795689,0.125975,1.339341
2018-10-10T23:08:44.084847Z,-1.05997,-1.006712,0.561105
2018-10-10T23:08:44.283847Z,-0.093499,0.110104,-0.291029
2018-10-10T23:08:44.485847Z,0.974684,0.5676859999999999,1.234898
2018-10-10T23:08:44.685847Z,1.041017,0.331584,0.013134999999999999
2018-10-10T23:08:44.884847Z,1.0426520000000001,-1.136306,0.08229199999999999
2018-10-10T23:08:45.084847Z,0.808873,0.286982,-0.9763780000000001
2018-10-10T23:08:45.283847Z,0.25396799999999997,0.260923,0.27118200000000003
2018-10-10T23:08:45.484847Z,-1.752546,-1.093804,0.290943
2018-10-10T23:08:45.684847Z,-0.941208,-1.357538,0.34859
2018-10-10T23:08:45.897847Z,0.59924,-0.049191000000000006,0.309948
2018-10-10T23:08:46.085847Z,0.511879,0.002755,0.714364
2018-10-10T23:08:46.287847Z,0.8178,-0.783834,0.518192
2018-10-10T23:08:46.486847Z,0.512188,-0.9606600000000001,-0.24266500000000002
2018-10-10T23:08:46.686847Z,0.9836010000000001,0.40927600000000003,-0.053621
2018-10-10T23:08:46.886847Z,0.824857,0.038258,0.789365
2018-10-10T23:08:47.086847Z,0.8127989999999999,-0.8911399999999999,0.6136510000000001
2018-10-10T23:08:47.286847Z,0.978182,-0.9180440000000001,-0.016131
2018-10-10T23:08:47.485847Z,0.780492,0.320194,0.5063380000000001
2018-10-10T23:08:47.687847Z,1.0356319999999999,-0.040195999999999996,0.716648
2018-10-10T23:08:47.886847Z,1.53086,-0.8899299999999999,0.363765
2018-10-10T23:08:48.086847Z,0.730183,-0.17313299999999998,-1.069974
2018-10-10T23:08:48.288847Z,0.893366,0.525827,0.682148
2018-10-10T23:08:48.488847Z,0.41981,0.050328,1.054319
2018-10-10T23:08:48.686847Z,1.112409,-1.285348,-0.297589
2018-10-10T23:08:48.950847Z,1.186229,-0.509219,-0.703438
2018-10-10T23:08:49.102847Z,1.915052,0.024744,1.638744
2018-10-10T23:08:49.287847Z,2.149588,-1.033033,0.576707
2018-10-10T23:08:49.487847Z,1.073687,-0.885284,-0.627934
2018-10-10T23:08:49.688847Z,0.776981,0.046242,-0.349883
2018-10-10T23:08:49.889847Z,0.207294,0.04551,0.742265
2018-10-10T23:08:50.089847Z,-0.15556,-1.4968,-0.09836900000000001
2018-10-10T23:08:50.290847Z,0.463208,-0.814078,-0.520174
2018-10-10T23:08:50.490847Z,-0.017807,0.038189,-0.348749
2018-10-10T23:08:50.690847Z,0.33826799999999996,-0.9424020000000001,1.416403
2018-10-10T23:08:50.957847Z,0.584484,-1.40809,-0.040347
2018-10-10T23:08:51.088847Z,-0.311247,-0.26866,-1.339166
2018-10-10T23:08:51.290847Z,-0.018318,0.21950799999999998,0.5679810000000001
2018-10-10T23:08:51.489847Z,-0.167796,-1.06932,0.181226
2018-10-10T23:08:51.702847Z,0.310883,-1.086667,0.01762
2018-10-10T23:08:51.908847Z,0.7722600000000001,-0.428726,-0.079627
2018-10-10T23:08:52.092847Z,1.241843,-0.54377,1.337944
2018-10-10T23:08:52.291847Z,2.1282419999999997,-0.597867,0.129142
2018-10-10T23:08:52.490847Z,1.234966,-0.659895,-0.6212770000000001
2018-10-10T23:08:52.690847Z,0.148206,0.20465999999999998,-0.5327149999999999
2018-10-10T23:08:52.892847Z,-1.029276,-0.169992,0.817651
2018-10-10T23:08:53.092847Z,-1.073734,-0.7587189999999999,0.063438
2018-10-10T23:08:53.292847Z,-0.6248630000000001,-0.226055,0.026601999999999997
2018-10-10T23:08:53.495847Z,0.138153,0.000534,0.764831
2018-10-10T23:08:53.691847Z,0.6776840000000001,-0.590022,0.779496
2018-10-10T23:08:53.895847Z,0.7738189999999999,-0.521717,-0.503209
2018-10-10T23:08:54.098847Z,0.077933,0.101917,0.317913
2018-10-10T23:08:54.295847Z,0.083504,-0.104125,1.380232
2018-10-10T23:08:54.492847Z,0.07105399999999999,-1.217111,-0.036659
2018-10-10T23:08:54.692847Z,0.044472000000000005,-0.17205499999999999,-0.20738299999999998
2018-10-10T23:08:54.892847Z,-0.243963,-0.416728,1.157832
2018-10-10T23:08:55.092847Z,0.694183,-0.664032,1.332136
2018-10-10T23:08:55.302847Z,-0.248204,-1.238924,-0.656067
2018-10-10T23:08:55.493847Z,-1.2952540000000001,-0.48501700000000003,0.770429
2018-10-10T23:08:55.693847Z,-0.866442,-1.22069,0.905256
2018-10-10T23:08:55.908847Z,-0.596468,-0.795573,-0.269395
2018-10-10T23:08:56.110847Z,-0.17424,0.103599,-0.254039
2018-10-10T23:08:56.295847Z,0.027469999999999998,0.184813,0.809476
2018-10-10T23:08:56.502847Z,0.738313,-0.81467,-0.048003
2018-10-10T23:08:56.713847Z,-0.25656599999999996,-1.092838,-0.628087
2018-10-10T23:08:56.929847Z,0.10646199999999999,-0.065714,-0.629663
2018-10-10T23:08:57.108847Z,-0.682074,-0.461875,0.626329
2018-10-10T23:08:57.315847Z,-1.350379,-1.260126,0.22330100000000003
2018-10-10T23:08:57.494847Z,-0.010918,-1.047009,-0.176217
2018-10-10T23:08:57.695847Z,1.1004530000000001,1.0546790000000001,0.514013
2018-10-10T23:08:57.909847Z,1.8155830000000002,-0.9465879999999999,0.063698
2018-10-10T23:08:58.095847Z,1.665312,-0.17374900000000001,-0.320398
2018-10-10T23:08:58.295847Z,1.525827,0.466475,-0.559817
2018-10-10T23:08:58.496847Z,1.744736,0.380282,1.627966
2018-10-10T23:08:58.696847Z,2.3115810000000003,-1.6026280000000002,0.188833
2018-10-10T23:08:58.896847Z,1.377585,-0.42761000000000005,-0.056351
2018-10-10T23:08:59.096847Z,0.5900029999999999,0.177366,-0.009034
2018-10-10T23:08:59.296847Z,0.041399,0.226832,1.203383
2018-10-10T23:08:59.496847Z,0.389071,-0.9538280000000001,-0.425468
2018-10-10T23:08:59.696847Z,0.6249279999999999,0.029493000000000002,0.062064999999999995
2018-10-10T23:08:59.897847Z,-0.046341,-0.07892300000000001,0.593467
2018-10-10T23:09:00.098847Z,-0.685711,-0.595491,0.391608
2018-10-10T23:09:00.300847Z,-0.63026,-0.335386,-0.141827
2018-10-10T23:09:00.497847Z,-1.035169,-0.20637600000000003,0.659752
2018-10-10T23:09:00.712847Z,-1.4061190000000001,-1.028123,0.967673
2018-10-10T23:09:00.898847Z,-1.205488,-1.646536,0.144228
2018-10-10T23:09:01.098847Z,-0.032398,-0.406351,-0.21860900000000003
2018-10-10T23:09:01.299847Z,0.7269869999999999,0.667113,0.526262
2018-10-10T23:09:01.517847Z,1.137893,0.27175,1.011441
2018-10-10T23:09:01.717847Z,0.936427,-0.7124090000000001,0.484944
2018-10-10T23:09:01.898847Z,1.027854,0.245846,-0.46628800000000004
2018-10-10T23:09:02.098847Z,1.567532,0.609847,0.950255
2018-10-10T23:09:02.312847Z,2.257603,-0.08576900000000001,1.2834370000000002
2018-10-10T23:09:02.498847Z,2.580855,-1.757723,0.488727
2018-10-10T23:09:02.700847Z,0.826572,-0.489137,0.202429
2018-10-10T23:09:02.900847Z,0.48278000000000004,0.034711,0.803222
2018-10-10T23:09:03.099847Z,0.533243,-1.474832,0.792227
2018-10-10T23:09:03.312847Z,0.492522,-2.124993,-0.35076199999999996
2018-10-10T23:09:03.500847Z,-0.31435,0.45308400000000004,0.42488100000000006
2018-10-10T23:09:03.700847Z,-0.601527,-0.159825,1.3970639999999999
2018-10-10T23:09:03.901847Z,1.172284,-1.461937,0.533875
2018-10-10T23:09:04.104847Z,0.331563,-1.520593,-0.461553
2018-10-10T23:09:04.300847Z,-0.328912,0.178053,0.50256
2018-10-10T23:09:04.508847Z,0.100864,-0.456958,0.698966
2018-10-10T23:09:04.701847Z,-1.258059,-1.275327,-0.21941100000000002
2018-10-10T23:09:04.901847Z,-0.7266729999999999,-1.357573,-0.227014
2018-10-10T23:09:05.103847Z,0.070124,0.049042,0.560714
2018-10-10T23:09:05.301847Z,0.016111,-0.884925,0.77371
2018-10-10T23:09:05.502847Z,0.123301,-1.011714,-0.000335
2018-10-10T23:09:05.702847Z,0.35925300000000004,-0.278158,-0.518559
2018-10-10T23:09:05.903847Z,-0.281898,0.171416,0.999933
2018-10-10T23:09:06.102847Z,0.32629400000000003,-1.108285,-0.19391
2018-10-10T23:09:06.318847Z,1.015039,-0.600697,-0.7608590000000001
2018-10-10T23:09:06.502847Z,-0.17945999999999998,0.8831690000000001,-0.724524
2018-10-10T23:09:06.703847Z,0.71541,-0.8909100000000001,0.680335
2018-10-10T23:09:06.902847Z,0.23628400000000002,-0.34015700000000004,-0.785467
2018-10-10T23:09:07.102847Z,0.231528,0.614391,-0.339538
2018-10-10T23:09:07.317847Z,0.039569,0.39144,0.370595
2018-10-10T23:09:07.520847Z,-0.016077,-0.877108,-0.053577
2018-10-10T23:09:07.717847Z,0.076435,-0.654355,-0.709063
2018-10-10T23:09:07.919847Z,0.100507,0.808722,-0.415224
2018-10-10T23:09:08.103847Z,0.1889,0.945032,0.716101
2018-10-10T23:09:08.303847Z,0.20609,-1.2509620000000001,-0.468941
2018-10-10T23:09:08.503847Z,0.287247,0.174761,-1.1356709999999999
2018-10-10T23:09:08.705847Z,-0.078999,0.680848,0.278859
2018-10-10T23:09:08.906847Z,0.055213,0.374944,1.511657
2018-10-10T23:09:09.106847Z,0.133322,-1.0243010000000001,-0.418709
2018-10-10T23:09:09.306847Z,-0.158806,0.431713,-0.555511
2018-10-10T23:09:09.506847Z,-0.5249159999999999,0.773979,0.787669
2018-10-10T23:09:09.707847Z,0.47740600000000005,-0.029745999999999998,1.081758
2018-10-10T23:09:09.905847Z,0.369245,-0.30285,-1.049213
2018-10-10T23:09:10.118847Z,0.262535,0.5732,-0.708754
2018-10-10T23:09:10.305847Z,-0.24797199999999997,0.722332,1.991443
2018-10-10T23:09:10.506847Z,-0.20324,-0.921549,0.376357
2018-10-10T23:09:10.706847Z,0.6062350000000001,-0.048481,-0.8710950000000001
2018-10-10T23:09:10.907847Z,0.14311,0.329077,-0.109181
2018-10-10T23:09:11.107847Z,-0.263937,0.466163,1.270514
2018-10-10T23:09:11.307847Z,0.8829100000000001,-1.365129,0.039727
2018-10-10T23:09:11.508847Z,0.037155,0.39716599999999996,-0.671095
2018-10-10T23:09:11.708847Z,-0.350894,0.798636,0.837889
2018-10-10T23:09:11.908847Z,-0.279738,-0.47291400000000006,0.204871
2018-10-10T23:09:12.107847Z,-0.641726,-0.6795859999999999,-1.185715
2018-10-10T23:09:12.308847Z,-0.184212,0.909492,0.001025
2018-10-10T23:09:12.507847Z,-0.12133800000000002,0.281204,1.0530110000000001
2018-10-10T23:09:12.709847Z,0.441636,-1.1059940000000001,-0.34759
2018-10-10T23:09:12.909847Z,0.23734699999999997,-0.43894700000000003,-0.724627
2018-10-10T23:09:13.165847Z,-0.6816220000000001,0.308167,0.21668099999999998
2018-10-10T23:09:13.327847Z,-1.537659,-0.48987200000000003,0.463685
2018-10-10T23:09:13.508847Z,-0.9820530000000001,-0.606336,-0.5991
2018-10-10T23:09:13.723847Z,-0.672329,0.306427,-0.15418800000000002
2018-10-10T23:09:13.926847Z,-0.29849699999999996,-0.188448,0.23026999999999997
2018-10-10T23:09:14.123847Z,-0.333579,-0.904466,-0.461621
2018-10-10T23:09:14.323847Z,0.28462,0.17495,-0.8122510000000001
2018-10-10T23:09:14.508847Z,0.473804,0.709924,0.259002
2018-10-10T23:09:14.709847Z,0.50383,-0.733404,-0.26145999999999997
2018-10-10T23:09:14.922847Z,1.008569,-0.328463,-0.928716
2018-10-10T23:09:15.109847Z,0.51754,0.875,0.580871
2018-10-10T23:09:15.326847Z,-0.06994199999999999,0.683825,0.509238
2018-10-10T23:09:15.524847Z,0.672941,-0.284659,-1.110839
2018-10-10T23:09:15.711847Z,0.7667649999999999,0.843258,-0.283237
2018-10-10T23:09:15.911847Z,0.17274,1.065102,1.018048
2018-10-10T23:09:16.111847Z,0.378288,-0.662233,1.0366739999999999
2018-10-10T23:09:16.311847Z,0.8806729999999999,0.341104,-0.780343
2018-10-10T23:09:16.511847Z,0.629203,0.47868299999999997,0.19724
2018-10-10T23:09:16.712847Z,0.766066,-0.5525,1.974951
2018-10-10T23:09:16.911847Z,0.83478,-1.110916,-0.364103
2018-10-10T23:09:17.111847Z,0.6348239999999999,0.596541,0.062123000000000005
2018-10-10T23:09:17.312847Z,0.358113,1.131525,0.6055520000000001
2018-10-10T23:09:17.511847Z,0.598498,0.45166999999999996,1.0669309999999999
2018-10-10T23:09:17.711847Z,0.187823,-1.101904,0.038151
2018-10-10T23:09:17.912847Z,0.268253,-0.013643,-0.277327
2018-10-10T23:09:18.112847Z,0.20737600000000003,0.698872,0.529485
2018-10-10T23:09:18.313847Z,0.7325689999999999,-0.12981800000000002,0.520163
2018-10-10T23:09:18.601847Z,1.197822,-0.57293,-0.272443
2018-10-10T23:09:18.725847Z,0.666794,0.8063239999999999,0.229809
2018-10-10T23:09:18.927847Z,0.610109,0.644246,1.136601
2018-10-10T23:09:19.112847Z,0.9331309999999999,-1.064401,0.385329
2018-10-10T23:09:19.326847Z,0.580711,-0.8184319999999999,-0.9523360000000001
2018-10-10T23:09:19.515847Z,0.435039,0.534254,0.521839
2018-10-10T23:09:19.716847Z,0.14098,-0.283083,0.9105639999999999
2018-10-10T23:09:19.915847Z,0.638246,-1.002389,-0.72411
2018-10-10T23:09:20.116847Z,0.003192,0.013271000000000002,-0.916773
2018-10-10T23:09:20.316847Z,-0.125622,0.20987399999999998,1.093885
2018-10-10T23:09:20.514847Z,0.030351,-0.882719,0.49068199999999995
2018-10-10T23:09:20.713847Z,0.6660229999999999,-0.560984,-0.815364
2018-10-10T23:09:20.914847Z,0.40231500000000003,0.111076,-0.590434
2018-10-10T23:09:21.115847Z,1.7990240000000002,-1.149102,1.259843
2018-10-10T23:09:21.314847Z,1.576222,-1.01492,-0.376911
2018-10-10T23:09:21.515847Z,0.665633,-0.394887,-0.720542
2018-10-10T23:09:21.715847Z,0.21826700000000002,-0.352138,0.497961
2018-10-10T23:09:21.916847Z,-0.016897,-1.626927,1.073779
2018-10-10T23:09:22.182847Z,0.528647,-1.442345,-0.786032
2018-10-10T23:09:22.316847Z,0.650575,-0.444425,-0.214583
2018-10-10T23:09:22.537847Z,1.128617,-0.701813,1.8426669999999998
2018-10-10T23:09:22.716847Z,1.306859,-1.2671219999999999,-0.8466670000000001
2018-10-10T23:09:22.917847Z,1.045048,-0.41189899999999996,-0.043233
2018-10-10T23:09:23.118847Z,0.6353850000000001,0.077463,1.506985
2018-10-10T23:09:23.318847Z,0.135953,-1.745324,1.279194
2018-10-10T23:09:23.518847Z,0.135826,-0.800463,-0.544469
2018-10-10T23:09:23.717847Z,0.49855299999999997,-0.122199,0.978392
2018-10-10T23:09:23.978847Z,0.304183,-0.722121,1.572537
2018-10-10T23:09:24.131847Z,0.6099319999999999,-1.2793809999999999,-0.9504299999999999
2018-10-10T23:09:24.338847Z,0.6611060000000001,-0.163089,0.389138
2018-10-10T23:09:24.521847Z,-0.19631400000000002,-0.539161,1.523051
2018-10-10T23:09:24.722847Z,-1.035983,-0.780636,-0.047932
2018-10-10T23:09:24.918847Z,-0.554815,-1.283298,-0.43277600000000005
2018-10-10T23:09:25.119847Z,-0.127272,-0.226437,0.767702
2018-10-10T23:09:25.318847Z,0.9840549999999999,-0.943852,0.492267
2018-10-10T23:09:25.621847Z,0.8434809999999999,-0.719198,-0.076666
2018-10-10T23:09:25.717847Z,0.8546950000000001,0.154374,-0.846432
2018-10-10T23:09:25.919847Z,0.5224949999999999,-0.893849,0.8838959999999999
2018-10-10T23:09:26.119847Z,0.804132,-0.7116819999999999,-0.661941
2018-10-10T23:09:26.330847Z,0.07471799999999999,0.036588999999999997,-0.5371100000000001
2018-10-10T23:09:26.520847Z,0.180702,0.29981599999999997,0.8659030000000001
2018-10-10T23:09:26.721847Z,0.493648,-1.3362450000000001,-0.433335
2018-10-10T23:09:26.921847Z,0.5291060000000001,0.11421300000000001,-0.754674
2018-10-10T23:09:27.121847Z,0.132331,0.120058,0.9224969999999999
2018-10-10T23:09:27.321847Z,-0.114874,-0.462423,1.528888
2018-10-10T23:09:27.521847Z,0.478163,-0.440076,-0.689188
2018-10-10T23:09:27.720847Z,0.331982,0.22104400000000002,0.253069
2018-10-10T23:09:27.920847Z,0.06412999999999999,0.037458,1.032938
2018-10-10T23:09:28.119847Z,0.9345190000000001,-1.164924,0.24587399999999998
2018-10-10T23:09:28.321847Z,0.09319,-0.215525,-0.204023
2018-10-10T23:09:28.521847Z,-0.427821,-0.10753900000000001,0.74948
2018-10-10T23:09:28.721847Z,-0.633332,-0.497213,0.98169
2018-10-10T23:09:28.922847Z,-0.996807,-0.7787850000000001,-0.49666099999999996
2018-10-10T23:09:29.121847Z,-0.5495329999999999,0.16927999999999999,0.368098
2018-10-10T23:09:29.322847Z,-0.652584,-0.141899,0.51905
2018-10-10T23:09:29.522847Z,-1.138562,-0.39674899999999996,-0.217838
2018-10-10T23:09:29.722847Z,-0.8409129999999999,0.039771,-1.073862
2018-10-10T23:09:29.922847Z,0.9164190000000001,0.7352920000000001,0.963349
2018-10-10T23:09:30.122847Z,-0.416174,0.017306000000000002,0.10785
2018-10-10T23:09:30.322847Z,-0.08649,-0.9278059999999999,-0.9933870000000001
2018-10-10T23:09:30.523847Z,1.009488,0.178956,-0.32361799999999996
2018-10-10T23:09:30.724847Z,1.027975,0.12256600000000001,1.6797959999999998
2018-10-10T23:09:30.927847Z,1.443006,-0.937091,-1.1630790000000002
2018-10-10T23:09:31.123847Z,1.122261,0.0056560000000000004,-0.987017
2018-10-10T23:09:31.324847Z,0.288097,0.7035680000000001,0.08824299999999999
2018-10-10T23:09:31.523847Z,-0.60417,-0.68725,0.021840000000000002
2018-10-10T23:09:31.724847Z,0.064274,-0.427701,-0.501622
2018-10-10T23:09:31.924847Z,1.083251,0.321874,-0.108903
2018-10-10T23:09:32.125847Z,0.799936,0.65203,1.253089
2018-10-10T23:09:32.328847Z,0.46035699999999996,-0.271221,-1.072678
2018-10-10T23:09:32.524847Z,0.21911999999999998,0.52303,-0.141408
2018-10-10T23:09:32.723847Z,-0.577584,0.627258,0.6677310000000001
2018-10-10T23:09:32.924847Z,-0.770469,-0.21374,0.38745599999999997
2018-10-10T23:09:33.125847Z,0.338892,-0.421421,-0.597222
2018-10-10T23:09:33.325847Z,1.0108059999999999,0.49473100000000003,1.554354
2018-10-10T23:09:33.551847Z,1.231231,-0.128467,1.018801
2018-10-10T23:09:33.797847Z,1.262314,-0.863052,-0.95714
2018-10-10T23:09:33.938847Z,0.495507,1.11087,0.583755
2018-10-10T23:09:34.150847Z,0.32271500000000003,0.042095,1.269398
2018-10-10T23:09:34.346847Z,-0.232665,-0.9535950000000001,-0.33586900000000003
2018-10-10T23:09:34.526847Z,0.33055500000000004,-0.587535,-1.115369
2018-10-10T23:09:34.727847Z,0.459582,0.304169,1.787569
2018-10-10T23:09:34.928847Z,1.43482,-1.202326,-0.693096
2018-10-10T23:09:35.129847Z,1.00062,-0.444723,-1.177942
2018-10-10T23:09:35.328847Z,0.515467,0.698812,-0.173692
2018-10-10T23:09:35.527847Z,-0.015631,-0.39250999999999997,0.742596
2018-10-10T23:09:35.783847Z,0.229575,-0.745133,-0.8288270000000001
2018-10-10T23:09:35.929847Z,-0.203896,0.230292,-0.707969
2018-10-10T23:09:36.143847Z,-0.000772,0.652363,0.5287970000000001
2018-10-10T23:09:36.328847Z,0.056063,-0.6263880000000001,-0.20246
2018-10-10T23:09:36.528847Z,0.436784,0.057148000000000004,-0.649958
2018-10-10T23:09:36.729847Z,0.468447,0.616252,0.31454099999999996
2018-10-10T23:09:36.930847Z,0.637033,0.557923,1.255236
2018-10-10T23:09:37.130847Z,0.22230100000000003,-1.046136,-0.748819
2018-10-10T23:09:37.331847Z,0.685722,-0.189359,-0.170972
2018-10-10T23:09:37.549847Z,0.59975,0.348275,1.06313
2018-10-10T23:09:37.753847Z,0.615512,-0.238868,0.194798
2018-10-10T23:09:37.943847Z,0.664209,0.127605,-0.286142
2018-10-10T23:09:38.141847Z,0.46627399999999997,0.43198100000000006,-0.23390100000000003
2018-10-10T23:09:38.329847Z,0.590114,-0.041875,1.008206
2018-10-10T23:09:38.530847Z,0.282453,-0.803055,-0.036572
2018-10-10T23:09:38.732847Z,0.6758770000000001,0.141744,-0.213797
2018-10-10T23:09:38.931847Z,0.8928659999999999,0.530486,1.2385
2018-10-10T23:09:39.131847Z,0.953364,-1.0897059999999998,0.461413
2018-10-10T23:09:39.342847Z,1.226264,-0.696646,-1.1717389999999999
2018-10-10T23:09:39.530847Z,0.717321,0.917903,1.184604
2018-10-10T23:09:39.730847Z,0.731466,-0.5786680000000001,1.410937
2018-10-10T23:09:39.930847Z,0.8254870000000001,-0.932005,-1.029958
2018-10-10T23:09:40.131847Z,0.9013040000000001,-0.46091899999999997,-0.909968
2018-10-10T23:09:40.332847Z,1.665671,-0.202262,1.3983139999999998
2018-10-10T23:09:40.558847Z,1.930694,-1.304804,0.206869
2018-10-10T23:09:40.731847Z,1.61275,-0.9257479999999999,-0.147703
2018-10-10T23:09:40.931847Z,1.622522,-0.264961,-0.44899300000000003
2018-10-10T23:09:41.132847Z,0.423422,-1.106855,1.0012809999999999
2018-10-10T23:09:41.331847Z,0.183811,-1.786503,-0.605396
2018-10-10T23:09:41.533847Z,0.11321800000000001,0.000579,-0.73826
2018-10-10T23:09:41.733847Z,0.310722,-0.380639,1.0863040000000002
2018-10-10T23:09:41.932847Z,1.573956,-1.156374,0.273873
2018-10-10T23:09:42.132847Z,1.310716,-0.687717,-0.770191
2018-10-10T23:09:42.333847Z,1.350407,-0.497041,1.088937
2018-10-10T23:09:42.533847Z,1.291385,-1.5677020000000002,1.407928
2018-10-10T23:09:42.733847Z,0.974424,-0.46233199999999997,-0.476278
2018-10-10T23:09:42.934847Z,0.007756999999999999,-0.127813,0.459883
2018-10-10T23:09:43.134847Z,0.643408,-1.2028020000000001,1.50563
2018-10-10T23:09:43.335847Z,0.8440719999999999,-1.617176,0.120307
2018-10-10T23:09:43.534847Z,0.428612,-0.136757,0.32593099999999997
2018-10-10T23:09:43.736847Z,0.678828,-0.344916,1.435386
2018-10-10T23:09:43.935847Z,-0.513574,-1.6718380000000002,-0.22880799999999998
2018-10-10T23:09:44.148847Z,0.136825,-0.665999,-0.653253
2018-10-10T23:09:44.336847Z,0.470024,-0.161661,1.481522
2018-10-10T23:09:44.538847Z,0.597478,-1.0419889999999998,-0.17613299999999998
2018-10-10T23:09:44.736847Z,0.337253,-1.000528,-0.962859
2018-10-10T23:09:44.936847Z,0.927318,-0.049069999999999996,-0.131383
2018-10-10T23:09:45.136847Z,-0.206368,-0.8419780000000001,0.90169
2018-10-10T23:09:45.336847Z,-0.206236,-1.3920190000000001,-0.748266
2018-10-10T23:09:45.536847Z,-0.242671,-0.28644000000000003,-0.6858029999999999
2018-10-10T23:09:45.737847Z,-1.541784,-0.409822,1.224448
2018-10-10T23:09:45.937847Z,-1.2854379999999999,-1.14816,0.088503
2018-10-10T23:09:46.137847Z,-0.682894,-0.091351,0.051374
2018-10-10T23:09:46.337847Z,-0.16326,-0.202443,0.563163
2018-10-10T23:09:46.543847Z,0.126433,-0.296135,0.709943
2018-10-10T23:09:46.736847Z,0.030909,-0.508454,-0.29683000000000004
2018-10-10T23:09:46.938847Z,-0.085344,0.303238,0.2893
2018-10-10T23:09:47.138847Z,0.29612,0.36777600000000005,1.222473
2018-10-10T23:09:47.340847Z,0.688566,-1.150998,0.37606100000000003
2018-10-10T23:09:47.570847Z,-0.221377,-0.21839299999999998,-0.780688
2018-10-10T23:09:47.738847Z,-0.535543,0.195457,1.396811
2018-10-10T23:09:47.938847Z,0.202493,-1.231665,0.566095
2018-10-10T23:09:48.138847Z,0.044073,-0.8431549999999999,-0.906645
2018-10-10T23:09:48.338847Z,0.706108,0.27318400000000004,0.6405810000000001
2018-10-10T23:09:48.540847Z,1.27765,-0.965026,0.7633270000000001
2018-10-10T23:09:48.739847Z,0.759516,-0.787287,-0.939578
2018-10-10T23:09:48.939847Z,-0.272909,-0.186004,-0.12253599999999999
2018-10-10T23:09:49.140847Z,-0.156271,-0.326333,0.40876
2018-10-10T23:09:49.353847Z,0.157176,-1.3273059999999999,-0.414055
2018-10-10T23:09:49.540847Z,0.128189,-0.7781140000000001,0.112291
2018-10-10T23:09:49.739847Z,0.133462,-0.241069,0.252804
2018-10-10T23:09:49.939847Z,1.07847,-0.423212,0.13086199999999998
2018-10-10T23:09:50.141847Z,1.261786,-0.32996,-0.543389
2018-10-10T23:09:50.341847Z,1.174393,0.544854,-0.724108
2018-10-10T23:09:50.540847Z,1.10574,0.18539,1.448827
2018-10-10T23:09:50.741847Z,0.20876599999999998,-0.9552139999999999,-0.9129879999999999
2018-10-10T23:09:50.941847Z,0.43970600000000004,-0.30431199999999997,-0.582126
2018-10-10T23:09:51.140847Z,0.87756,1.085102,0.728065
2018-10-10T23:09:51.340847Z,0.842829,-0.010371,1.2455209999999999
2018-10-10T23:09:51.594847Z,1.167934,-0.196907,-0.580004
2018-10-10T23:09:51.741847Z,1.001193,0.365978,0.8510909999999999
2018-10-10T23:09:51.957847Z,1.0882020000000001,-0.30354699999999996,0.573421
2018-10-10T23:09:52.140847Z,1.73115,-0.713176,-0.084455
2018-10-10T23:09:52.342847Z,0.5181680000000001,0.023752000000000002,0.54948
2018-10-10T23:09:52.543847Z,0.804248,-0.237213,0.7566189999999999
2018-10-10T23:09:52.744847Z,1.6751470000000002,-1.2286299999999999,0.211194
2018-10-10T23:09:52.944847Z,0.623078,-0.382158,-0.932506
2018-10-10T23:09:53.142847Z,0.347485,0.18371600000000002,0.983483
2018-10-10T23:09:53.347847Z,0.553288,-0.753383,0.414729
2018-10-10T23:09:53.553847Z,0.406647,-0.945426,-0.49523900000000004
2018-10-10T23:09:53.742847Z,0.604722,-0.108011,-0.510517
2018-10-10T23:09:53.942847Z,0.541792,-1.008988,1.507616
2018-10-10T23:09:54.143847Z,1.239207,-1.483934,-0.358527
2018-10-10T23:09:54.344847Z,0.941224,-0.476434,-0.887567
2018-10-10T23:09:54.544847Z,0.594585,0.48333999999999994,0.70724
2018-10-10T23:09:54.744847Z,-0.151254,-1.716074,-0.014819
2018-10-10T23:09:54.943847Z,-0.1871,-1.021133,-0.635389
2018-10-10T23:09:55.156847Z,-0.196675,-0.144984,-0.361852
2018-10-10T23:09:55.343847Z,-1.0029700000000001,-0.191334,1.7015349999999998
2018-10-10T23:09:55.546847Z,-1.344364,-1.2906870000000001,-0.48765200000000003
2018-10-10T23:09:55.747847Z,-0.752159,-0.722301,-0.341869
2018-10-10T23:09:55.945847Z,-0.743785,0.13861500000000002,1.1702620000000001
2018-10-10T23:09:56.144847Z,-1.6199299999999999,-0.56986,1.2253459999999998
2018-10-10T23:09:56.346847Z,-0.421835,-0.363077,-0.145081
2018-10-10T23:09:56.546847Z,0.083063,0.7639729999999999,0.909781
2018-10-10T23:09:56.764847Z,0.361946,0.312502,0.755871
2018-10-10T23:09:56.947847Z,0.803582,-0.833319,-0.4608
2018-10-10T23:09:57.181847Z,0.377936,0.36691399999999996,-1.012117
2018-10-10T23:09:57.346847Z,-0.649624,0.925528,1.0509680000000001
2018-10-10T23:09:57.562847Z,-0.7582720000000001,-0.910259,0.561879
2018-10-10T23:09:57.746847Z,-0.962709,-1.5456299999999998,-0.8841559999999999
2018-10-10T23:09:57.946847Z,0.554794,0.514213,0.47447799999999996
2018-10-10T23:09:58.148847Z,1.144508,-0.23124899999999998,0.757532
2018-10-10T23:09:58.366847Z,0.817608,-0.735136,0.076331
2018-10-10T23:09:58.546847Z,1.271817,-0.173065,-0.565923
2018-10-10T23:09:58.748847Z,0.720337,0.260015,0.44259499999999996
2018-10-10T23:09:58.965847Z,2.182338,-0.577966,-0.48843400000000003
2018-10-10T23:09:59.147847Z,-0.050597,-0.41726800000000003,-0.175843
2018-10-10T23:09:59.348847Z,1.519862,0.113857,0.319945
2018-10-10T23:09:59.547847Z,2.527461,-0.668995,0.844517
2018-10-10T23:09:59.748847Z,1.592265,-0.553268,-0.804221
2018-10-10T23:09:59.951847Z,0.970568,-0.024559,0.587363
2018-10-10T23:10:00.150847Z,0.23577399999999998,0.311255,1.097316
2018-10-10T23:10:00.349847Z,-0.09689400000000001,-1.179657,-1.084088
2018-10-10T23:10:00.549847Z,0.192676,0.42956300000000003,-0.509254
2018-10-10T23:10:00.749847Z,0.401145,-0.045212999999999996,0.66713
2018-10-10T23:10:00.948847Z,1.056634,-0.865833,1.1274790000000001
2018-10-10T23:10:01.152847Z,0.029460000000000004,-0.357144,-0.636854
2018-10-10T23:10:01.363847Z,0.300199,0.83649,0.608211
2018-10-10T23:10:01.549847Z,-0.767808,-0.183497,0.8811760000000001
2018-10-10T23:10:01.749847Z,-0.012756,-1.0346790000000001,-0.157102
2018-10-10T23:10:01.965847Z,-0.037334,0.179894,0.10713699999999998
2018-10-10T23:10:02.151847Z,0.425504,0.53865,1.103517
2018-10-10T23:10:02.351847Z,0.8565440000000001,-0.985949,0.15768900000000002
2018-10-10T23:10:02.551847Z,0.421814,-0.7597689999999999,-0.809159
2018-10-10T23:10:02.752847Z,0.10522000000000001,0.681659,0.8604709999999999
2018-10-10T23:10:02.951847Z,0.10153999999999999,-0.130179,1.271403
2018-10-10T23:10:03.150847Z,-0.003554,-1.486412,-0.974836
2018-10-10T23:10:03.351847Z,-0.187618,-0.684823,-0.5509539999999999
2018-10-10T23:10:03.551847Z,-0.031435000000000005,0.580348,0.8904
2018-10-10T23:10:03.753847Z,0.952142,-0.836988,0.7202609999999999
2018-10-10T23:10:03.957847Z,0.785138,-0.8467030000000001,-1.6752630000000002
2018-10-10T23:10:04.150847Z,0.9642280000000001,0.403756,0.17961400000000002
2018-10-10T23:10:04.353847Z,1.700667,-1.177023,0.891875
2018-10-10T23:10:04.552847Z,0.630364,-1.136628,-1.1771719999999999
2018-10-10T23:10:04.753847Z,-0.13334000000000001,-0.153328,0.271808
2018-10-10T23:10:04.952847Z,-0.360107,0.07143200000000001,0.23100199999999999
2018-10-10T23:10:05.153847Z,0.7392029999999999,-1.143186,-0.588262
2018-10-10T23:10:05.353847Z,-0.743518,-0.9209930000000001,-0.379419
2018-10-10T23:10:05.552847Z,-0.835258,-0.296722,0.037511
2018-10-10T23:10:05.752847Z,-2.229218,-0.22190900000000002,1.438026
2018-10-10T23:10:05.952847Z,-1.348663,-1.438568,-0.403046
2018-10-10T23:10:06.153847Z,-0.59378,-0.293296,0.389334
2018-10-10T23:10:06.354847Z,0.311458,0.178894,0.88565
2018-10-10T23:10:06.569847Z,0.281139,-0.657954,0.637683
2018-10-10T23:10:06.753847Z,0.168961,0.255195,-0.788239
2018-10-10T23:10:06.954847Z,0.196943,0.66718,0.38605100000000003
2018-10-10T23:10:07.156847Z,-0.23890300000000003,-0.21809099999999998,1.107842
2018-10-10T23:10:07.355847Z,-0.334194,-0.778497,-0.268752
2018-10-10T23:10:07.555847Z,-0.6210939999999999,0.10581600000000001,-0.024777
2018-10-10T23:10:07.755847Z,0.336706,-0.19139,0.18851199999999999
2018-10-10T23:10:07.954847Z,0.41666099999999995,-0.601726,0.915976
2018-10-10T23:10:08.155847Z,0.348117,-1.175753,-0.321447
2018-10-10T23:10:08.357847Z,0.464804,-0.7831899999999999,0.558573
2018-10-10T23:10:08.556847Z,1.129063,-1.1300729999999999,0.585666
2018-10-10T23:10:08.756847Z,1.558115,-0.8252809999999999,0.341534
2018-10-10T23:10:08.957847Z,2.05812,-0.678397,0.23922399999999996
2018-10-10T23:10:09.157847Z,1.620383,-0.035713,0.296256
2018-10-10T23:10:09.359847Z,1.2753729999999999,-0.13969600000000001,-0.183305
2018-10-10T23:10:09.558847Z,0.88407,-0.086097,0.175729
2018-10-10T23:10:09.756847Z,0.79118,-0.15523199999999998,0.204341
2018-10-10T23:10:09.956847Z,0.9012459999999999,-0.026289999999999997,0.020844
2018-10-10T23:10:10.162847Z,0.7902399999999999,0.028494,0.12054100000000001
2018-10-10T23:10:10.356847Z,0.579038,-0.085116,0.097947
2018-10-10T23:10:10.571847Z,0.556725,-0.11116199999999998,-0.207492
2018-10-10T23:10:10.757847Z,0.9376450000000001,-0.06817100000000001,0.135238
2018-10-10T23:10:10.972847Z,1.2012120000000002,-0.070753,0.21911799999999998
2018-10-10T23:10:11.158847Z,0.840936,-0.09146,0.185749
2018-10-10T23:10:11.358847Z,0.14545,-0.331791,0.047014999999999994
2018-10-10T23:10:11.559847Z,-0.192945,-0.22807199999999997,-0.09717
2018-10-10T23:10:11.759847Z,0.08099400000000001,-0.107321,0.042018
2018-10-10T23:10:11.999847Z,0.178764,-0.120103,-0.035082999999999996
2018-10-10T23:10:12.158847Z,0.15804200000000002,-0.09121699999999999,0.016982
2018-10-10T23:10:12.364847Z,0.090266,-0.14515,0.338776
2018-10-10T23:10:12.558847Z,0.613941,-0.07319500000000001,-0.256621
2018-10-10T23:10:12.759847Z,0.24056999999999998,-0.170914,-0.020408000000000003
2018-10-10T23:10:12.960847Z,0.456953,-4.9e-05,0.125879
2018-10-10T23:10:13.179847Z,0.262094,-0.072628,0.032859
2018-10-10T23:10:13.359847Z,0.119189,-0.10884,0.05380599999999999
2018-10-10T23:10:13.560847Z,0.159451,-0.220243,-0.142773
2018-10-10T23:10:13.761847Z,0.115962,-0.08592899999999999,0.112882
2018-10-10T23:10:13.961847Z,0.26093099999999997,-0.007241,0.099357
2018-10-10T23:10:14.161847Z,-0.05379,-0.10607,-0.137874
2018-10-10T23:10:14.380847Z,0.229438,-0.13303299999999998,0.213171
