Datetime,accx,accy,accz
2018-09-24T23:41:01.292888Z,0.0,0.0,0.0
2018-09-24T23:41:01.533888Z,-0.425548,-0.332874,0.339863
2018-09-24T23:41:01.774888Z,-0.8818530000000001,-0.648177,-0.196941
2018-09-24T23:41:01.973888Z,-0.5496479999999999,-0.184568,-0.37603200000000003
2018-09-24T23:41:02.174888Z,-0.334909,-0.10947799999999999,0.626152
2018-09-24T23:41:02.374888Z,-0.489896,-1.1734120000000001,-0.361973
2018-09-24T23:41:02.594888Z,-1.137105,-0.650509,-0.9329430000000001
2018-09-24T23:41:02.774888Z,-1.314511,-0.19705699999999998,0.7968069999999999
2018-09-24T23:41:02.974888Z,-1.1672870000000002,-0.33721100000000004,0.753113
2018-09-24T23:41:03.175888Z,-0.36243000000000003,-0.340066,-0.12358800000000002
2018-09-24T23:41:03.374888Z,0.206864,0.226841,0.49345600000000006
2018-09-24T23:41:03.590888Z,0.9056290000000001,0.207331,0.343057
2018-09-24T23:41:03.775888Z,1.227941,-0.054583000000000007,-0.461977
2018-09-24T23:41:03.989888Z,0.556717,0.47152,0.743323
2018-09-24T23:41:04.175888Z,-0.163208,0.323817,-0.045568
2018-09-24T23:41:04.374888Z,-0.524252,-0.639776,-0.302714
2018-09-24T23:41:04.623888Z,-0.009170000000000001,-0.284912,-0.713503
2018-09-24T23:41:04.784888Z,0.690454,0.491428,1.213268
2018-09-24T23:41:04.975888Z,0.882134,-0.661558,-0.358185
2018-09-24T23:41:05.176888Z,0.727585,-0.409954,-0.998977
2018-09-24T23:41:05.376888Z,-0.091379,0.974701,-0.027013
2018-09-24T23:41:05.575888Z,-0.018425,-1.1186639999999999,0.647196
2018-09-24T23:41:05.776888Z,-0.121332,-0.582294,-1.013323
2018-09-24T23:41:05.976888Z,-0.165529,0.24811,-0.073911
2018-09-24T23:41:06.176888Z,0.9630219999999999,0.416421,0.9689770000000001
2018-09-24T23:41:06.387888Z,-0.130468,-0.722256,-0.752115
2018-09-24T23:41:06.576888Z,0.300085,0.495835,-0.815121
2018-09-24T23:41:06.776888Z,0.6117100000000001,1.0526879999999998,0.593645
2018-09-24T23:41:06.983888Z,-0.219493,0.48466499999999996,1.396941
2018-09-24T23:41:07.177888Z,0.10155700000000001,-0.727101,-1.189791
2018-09-24T23:41:07.378888Z,0.19197,0.481774,-0.08641599999999999
2018-09-24T23:41:07.576888Z,-0.683393,1.050591,0.193342
2018-09-24T23:41:07.778888Z,0.070163,-0.302183,0.808483
2018-09-24T23:41:07.994888Z,0.29715,-0.065599,-0.704487
2018-09-24T23:41:08.178888Z,0.081548,0.9011969999999999,-0.120458
2018-09-24T23:41:08.387888Z,-0.38981,0.339508,1.052448
2018-09-24T23:41:08.578888Z,0.383359,-1.0125389999999999,0.558755
2018-09-24T23:41:08.804888Z,0.270544,0.355401,-0.038288
2018-09-24T23:41:08.987888Z,0.252402,0.401269,0.37277899999999997
2018-09-24T23:41:09.179888Z,0.26047800000000004,-0.659702,0.9103540000000001
2018-09-24T23:41:09.378888Z,0.979094,-1.04683,-0.535931
2018-09-24T23:41:09.579888Z,0.41331599999999996,0.856087,0.5373060000000001
2018-09-24T23:41:09.779888Z,-0.324461,-0.154325,1.0054889999999999
2018-09-24T23:41:09.990888Z,-0.144376,-1.208847,-0.120367
2018-09-24T23:41:10.179888Z,0.172844,0.269455,-1.459614
2018-09-24T23:41:10.380888Z,0.294072,0.400074,0.418108
2018-09-24T23:41:10.580888Z,-0.192917,-1.342755,0.131838
2018-09-24T23:41:10.780888Z,-0.178111,-0.664337,-0.9560559999999999
2018-09-24T23:41:10.981888Z,0.077203,0.21200100000000002,-0.297725
2018-09-24T23:41:11.180888Z,-0.240302,0.312992,0.494209
2018-09-24T23:41:11.380888Z,-0.121152,-0.782229,-0.239283
2018-09-24T23:41:11.581888Z,-0.21824200000000002,-0.477591,-0.657161
2018-09-24T23:41:11.782888Z,0.157191,0.660231,-0.07462
2018-09-24T23:41:11.982888Z,-0.217069,-0.6256470000000001,0.24095999999999998
2018-09-24T23:41:12.195888Z,0.375314,-0.796504,-1.280776
2018-09-24T23:41:12.391888Z,-1.34197,0.271327,-0.284431
2018-09-24T23:41:12.581888Z,-1.325888,1.097701,-0.074831
2018-09-24T23:41:12.794888Z,-0.9718049999999999,-0.919317,-1.019253
2018-09-24T23:41:12.981888Z,-0.383602,-0.139356,0.10462
2018-09-24T23:41:13.182888Z,0.460625,0.842987,0.754128
2018-09-24T23:41:13.382888Z,0.8808790000000001,0.458582,0.686188
2018-09-24T23:41:13.597888Z,0.454,-0.140997,-0.325453
2018-09-24T23:41:13.835888Z,0.654544,0.675133,-0.43142700000000006
2018-09-24T23:41:13.995888Z,-0.196463,-0.08934,1.302578
2018-09-24T23:41:14.200888Z,-0.17945999999999998,-0.389405,0.43406000000000006
2018-09-24T23:41:14.382888Z,0.30686199999999997,0.251934,-0.28226599999999996
2018-09-24T23:41:14.582888Z,0.389401,0.486476,0.708335
2018-09-24T23:41:14.782888Z,1.046323,-0.546545,0.609125
2018-09-24T23:41:14.982888Z,0.068578,-0.628584,-0.344314
2018-09-24T23:41:15.198888Z,0.364372,0.6668569999999999,0.137757
2018-09-24T23:41:15.384888Z,0.5644319999999999,0.02285,0.8800549999999999
2018-09-24T23:41:15.584888Z,0.237927,-0.8999149999999999,0.263473
2018-09-24T23:41:15.782888Z,0.42376400000000003,-0.33203499999999997,-1.242057
2018-09-24T23:41:15.999888Z,0.524072,0.6846949999999999,0.804769
2018-09-24T23:41:16.184888Z,1.101177,-0.578133,0.6629189999999999
2018-09-24T23:41:16.386888Z,0.516112,-0.8553709999999999,-0.9613659999999999
2018-09-24T23:41:16.597888Z,0.13436900000000002,0.260734,-1.011195
2018-09-24T23:41:16.784888Z,0.20438699999999999,0.088511,1.501978
2018-09-24T23:41:16.984888Z,-0.074687,-1.158428,0.003125
2018-09-24T23:41:17.198888Z,0.472153,-0.816555,-1.056132
2018-09-24T23:41:17.384888Z,-0.272413,0.418415,0.298241
2018-09-24T23:41:17.598888Z,0.570595,-0.5475220000000001,0.770403
2018-09-24T23:41:17.784888Z,0.40167600000000003,-0.8198489999999999,-0.21247399999999997
2018-09-24T23:41:17.985888Z,0.46570200000000006,-0.240283,-0.530924
2018-09-24T23:41:18.185888Z,0.473472,0.859139,-0.32915900000000003
2018-09-24T23:41:18.385888Z,0.153219,-1.117758,0.880966
2018-09-24T23:41:18.586888Z,0.306857,-0.482857,-0.360388
2018-09-24T23:41:18.786888Z,-0.436213,0.302197,-0.340522
2018-09-24T23:41:18.989888Z,-0.12203699999999999,0.5330199999999999,0.7795310000000001
2018-09-24T23:41:19.185888Z,0.829225,-0.543137,0.097866
2018-09-24T23:41:19.412888Z,0.700604,-0.251492,-0.39052600000000004
2018-09-24T23:41:19.586888Z,0.766811,0.196235,0.285973
2018-09-24T23:41:19.786888Z,0.499558,-0.120745,0.822478
2018-09-24T23:41:19.986888Z,0.62955,-1.118957,0.061489999999999996
2018-09-24T23:41:20.197888Z,0.6723720000000001,-0.38847800000000005,-0.10499800000000001
2018-09-24T23:41:20.400888Z,0.086985,-0.021973,0.285821
2018-09-24T23:41:20.587888Z,-0.434654,-0.195113,1.216496
2018-09-24T23:41:20.787888Z,0.7622869999999999,-1.611161,0.040126
2018-09-24T23:41:20.987888Z,0.6588069999999999,-0.793177,-0.540566
2018-09-24T23:41:21.187888Z,0.24014499999999997,-0.342968,0.059380999999999996
2018-09-24T23:41:21.388888Z,1.083853,-0.176425,1.09359
2018-09-24T23:41:21.589888Z,1.364452,-1.612759,0.31199099999999996
2018-09-24T23:41:21.788888Z,0.8738229999999999,-0.783259,-0.20981
2018-09-24T23:41:21.989888Z,-0.106779,0.201454,0.550395
2018-09-24T23:41:22.189888Z,-0.460671,-0.276923,0.932745
2018-09-24T23:41:22.389888Z,0.6859310000000001,-1.0284659999999999,-0.353025
2018-09-24T23:41:22.590888Z,0.199133,-0.565724,0.36091999999999996
2018-09-24T23:41:22.789888Z,-0.052762,-0.26014299999999996,0.9580299999999999
2018-09-24T23:41:22.988888Z,0.046058999999999996,-0.730345,0.71219
2018-09-24T23:41:23.189888Z,-0.540227,-0.8126,-0.386777
2018-09-24T23:41:23.389888Z,-1.22539,-0.530165,0.546946
2018-09-24T23:41:23.590888Z,-1.376619,-1.0944459999999998,0.9307780000000001
2018-09-24T23:41:23.789888Z,-1.450952,-1.903462,0.311119
2018-09-24T23:41:23.990888Z,0.383952,-0.175541,0.46895200000000004
2018-09-24T23:41:24.189888Z,0.245338,-0.063299,0.504548
2018-09-24T23:41:24.404888Z,0.333796,-0.38152600000000003,-0.007183
2018-09-24T23:41:24.655888Z,0.5806,-0.450496,-0.22214
2018-09-24T23:41:24.790888Z,-0.44113,0.7538729999999999,0.557528
2018-09-24T23:41:24.990888Z,0.520546,0.048147,0.853083
2018-09-24T23:41:25.201888Z,0.756739,-1.0353,-0.21366500000000002
2018-09-24T23:41:25.395888Z,1.001167,-0.427321,-0.891014
2018-09-24T23:41:25.596888Z,0.44884399999999997,0.746725,1.099525
2018-09-24T23:41:25.792888Z,0.284779,-0.576285,1.225948
2018-09-24T23:41:25.995888Z,0.27706,-1.246945,-0.35997199999999996
2018-09-24T23:41:26.192888Z,0.40981599999999996,-0.616388,-1.06457
2018-09-24T23:41:26.391888Z,0.632749,-0.058196000000000005,0.8751260000000001
2018-09-24T23:41:26.592888Z,1.2706620000000002,-0.845727,0.45082799999999995
2018-09-24T23:41:26.792888Z,1.058797,-0.8227770000000001,-0.868181
2018-09-24T23:41:26.992888Z,0.5674520000000001,0.328173,-0.41851099999999997
2018-09-24T23:41:27.193888Z,-0.431098,-1.0322440000000002,1.47631
2018-09-24T23:41:27.393888Z,-0.429551,-0.959161,-0.533342
2018-09-24T23:41:27.592888Z,-0.169799,-0.16117599999999999,-0.48026499999999994
2018-09-24T23:41:27.792888Z,0.305102,0.257022,0.35776199999999997
2018-09-24T23:41:27.992888Z,0.8606379999999999,-0.857383,0.036777
2018-09-24T23:41:28.193888Z,0.46046899999999996,-1.103626,0.02371
2018-09-24T23:41:28.393888Z,0.862059,-0.192462,-0.308555
2018-09-24T23:41:28.593888Z,0.548871,0.319984,0.5243329999999999
2018-09-24T23:41:28.909888Z,-0.16156199999999998,-1.388518,-0.058913
2018-09-24T23:41:29.136888Z,-0.43019399999999997,-1.673097,-0.043838999999999996
2018-09-24T23:41:29.193888Z,-0.33284,0.092065,-0.482868
2018-09-24T23:41:29.393888Z,-0.42185100000000003,0.63375,0.29722800000000005
2018-09-24T23:41:29.594888Z,0.10904900000000001,-0.989129,1.126242
2018-09-24T23:41:29.794888Z,-0.11381400000000001,-1.0474379999999999,-0.47827200000000003
2018-09-24T23:41:30.006888Z,0.45171999999999995,-0.15598,-1.068325
2018-09-24T23:41:30.208888Z,-0.062108000000000003,-0.06686399999999999,0.782187
2018-09-24T23:41:30.395888Z,-0.62385,-1.187594,0.902971
2018-09-24T23:41:30.594888Z,-0.151596,-0.9674950000000001,-0.79092
2018-09-24T23:41:30.807888Z,-0.055404999999999996,-0.606632,0.059992
2018-09-24T23:41:30.995888Z,0.31797600000000004,0.215558,0.586791
2018-09-24T23:41:31.196888Z,0.632528,-0.9332,0.47204300000000005
2018-09-24T23:41:31.396888Z,0.297084,-0.765653,0.166197
2018-09-24T23:41:31.595888Z,0.387836,-0.405134,-0.082316
2018-09-24T23:41:31.867888Z,-0.266731,-0.27122399999999997,0.740529
2018-09-24T23:41:31.996888Z,-0.297676,-0.9131950000000001,0.087636
2018-09-24T23:41:32.212888Z,0.168545,-0.841309,0.263706
2018-09-24T23:41:32.395888Z,0.391637,-0.264158,0.37784
2018-09-24T23:41:32.595888Z,0.622237,-0.580433,0.7383810000000001
2018-09-24T23:41:32.809888Z,-0.012583,-0.254633,-0.265797
2018-09-24T23:41:33.009888Z,0.223554,0.478232,0.028818
2018-09-24T23:41:33.198888Z,0.9992129999999999,-0.29711,1.179477
2018-09-24T23:41:33.397888Z,-0.0574,-0.797529,0.786922
2018-09-24T23:41:33.597888Z,-0.403785,-0.358323,-0.042413
2018-09-24T23:41:33.810888Z,-0.061966,0.255666,0.338438
2018-09-24T23:41:33.997888Z,0.088388,-0.34841300000000003,1.254672
2018-09-24T23:41:34.198888Z,0.064636,-0.810896,-0.7006859999999999
2018-09-24T23:41:34.416888Z,0.598381,-0.7494109999999999,-0.036076
2018-09-24T23:41:34.609888Z,0.516358,-0.14921099999999998,0.5903010000000001
2018-09-24T23:41:34.797888Z,-0.13860899999999998,-0.19204000000000002,0.809604
2018-09-24T23:41:34.998888Z,-1.180983,-0.963195,0.326417
2018-09-24T23:41:35.198888Z,-0.16131800000000002,-0.192198,-0.203204
2018-09-24T23:41:35.398888Z,-0.098643,-0.080046,0.42790900000000004
2018-09-24T23:41:35.650888Z,0.766193,-0.7749699999999999,0.428476
2018-09-24T23:41:35.813888Z,0.379972,-0.6859069999999999,-0.19366
2018-09-24T23:41:35.999888Z,1.117817,-0.28880700000000004,0.48938000000000004
2018-09-24T23:41:36.198888Z,1.554591,-1.514141,1.788507
2018-09-24T23:41:36.412888Z,1.060088,-2.6986779999999997,0.127203
2018-09-24T23:41:36.599888Z,1.171714,-0.909472,0.67519
2018-09-24T23:41:36.800888Z,0.449038,-0.081986,-0.594279
2018-09-24T23:41:36.999888Z,0.33426,-0.570627,0.6548930000000001
2018-09-24T23:41:37.216888Z,-0.21302100000000002,-1.992114,1.468399
2018-09-24T23:41:37.400888Z,0.539984,-1.502398,-0.588634
2018-09-24T23:41:37.606888Z,0.467229,0.236783,0.142152
2018-09-24T23:41:37.817888Z,0.626212,0.78813,-0.486966
2018-09-24T23:41:38.000888Z,-0.305262,-0.819058,1.9149639999999999
2018-09-24T23:41:38.200888Z,-0.618374,-0.9755729999999999,-0.38804099999999997
2018-09-24T23:41:38.400888Z,0.405158,0.078828,-0.39331900000000003
2018-09-24T23:41:38.600888Z,0.026081,-0.279652,1.0344389999999999
2018-09-24T23:41:38.801888Z,0.587915,-1.3181200000000002,0.865527
2018-09-24T23:41:39.001888Z,0.833907,-0.425918,-0.8449909999999999
2018-09-24T23:41:39.201888Z,-0.034858,-0.389401,1.561503
2018-09-24T23:41:39.401888Z,0.19221300000000002,-0.554744,-0.085925
2018-09-24T23:41:39.601888Z,-0.227005,-0.695799,-0.645695
2018-09-24T23:41:39.802888Z,-0.992417,-0.23953200000000002,-0.18346600000000002
2018-09-24T23:41:40.001888Z,0.7327779999999999,-0.760412,1.063713
2018-09-24T23:41:40.202888Z,0.629362,-1.107228,-0.588272
2018-09-24T23:41:40.402888Z,0.546049,-0.375328,-0.901011
2018-09-24T23:41:40.604888Z,0.294869,0.36704499999999995,0.13283299999999998
2018-09-24T23:41:40.803888Z,-0.10887899999999999,-0.806949,0.202529
2018-09-24T23:41:41.008888Z,0.605338,-1.4585700000000001,-0.8961959999999999
2018-09-24T23:41:41.202888Z,0.582225,-0.381486,0.097235
2018-09-24T23:41:41.403888Z,1.553277,0.15525,1.415404
2018-09-24T23:41:41.603888Z,2.286051,-2.03097,0.0164
2018-09-24T23:41:41.803888Z,1.044549,-1.1447399999999999,0.24128899999999998
2018-09-24T23:41:42.004888Z,0.685375,-0.047455000000000004,1.0928790000000002
2018-09-24T23:41:42.203888Z,-0.61766,-0.662543,0.7284189999999999
2018-09-24T23:41:42.403888Z,-0.998187,-0.616823,-0.39662600000000003
2018-09-24T23:41:42.604888Z,-0.40225,0.285783,0.040504000000000005
2018-09-24T23:41:42.803888Z,-0.172009,-0.063927,0.886438
2018-09-24T23:41:43.003888Z,-0.196406,-0.520231,-0.071673
2018-09-24T23:41:43.204888Z,0.7237560000000001,-0.346594,0.24539
2018-09-24T23:41:43.405888Z,-0.13509100000000002,0.149649,0.6071840000000001
2018-09-24T23:41:43.670888Z,-0.34103,-1.04695,0.582497
2018-09-24T23:41:43.804888Z,-0.23706799999999997,-0.905444,-0.490443
2018-09-24T23:41:44.017888Z,0.352621,-0.291957,1.038635
2018-09-24T23:41:44.222888Z,0.5119199999999999,-0.97129,0.675371
2018-09-24T23:41:44.406888Z,0.681408,-1.094576,0.122689
2018-09-24T23:41:44.605888Z,1.036948,-0.920171,-0.23663299999999998
2018-09-24T23:41:44.806888Z,-0.278213,0.36023299999999997,0.6280859999999999
2018-09-24T23:41:45.007888Z,0.356908,-1.042275,0.9857040000000001
2018-09-24T23:41:45.206888Z,0.147822,-1.17404,-0.46090299999999995
2018-09-24T23:41:45.406888Z,0.526845,-0.622414,0.123775
2018-09-24T23:41:45.619888Z,0.368209,0.228319,0.623058
2018-09-24T23:41:45.807888Z,0.5469430000000001,-0.407804,0.75239
2018-09-24T23:41:46.006888Z,0.933746,-1.002977,-0.59158
2018-09-24T23:41:46.208888Z,1.0833620000000002,-0.039131,-0.43948100000000007
2018-09-24T23:41:46.406888Z,0.419599,-0.43403100000000006,1.316144
2018-09-24T23:41:46.606888Z,-0.247049,-1.394608,-0.32571300000000003
2018-09-24T23:41:46.821888Z,-0.023427,-0.9383600000000001,-0.47500600000000004
2018-09-24T23:41:47.007888Z,0.393925,0.979406,-0.057883000000000004
2018-09-24T23:41:47.208888Z,0.210508,-1.1287719999999999,0.355401
2018-09-24T23:41:47.408888Z,0.268619,-1.26461,-0.295052
2018-09-24T23:41:47.620888Z,0.467763,-0.277169,-0.9036219999999999
2018-09-24T23:41:47.808888Z,0.37108,0.870916,0.7803220000000001
2018-09-24T23:41:48.008888Z,-0.074573,-1.758951,-0.141627
2018-09-24T23:41:48.208888Z,-0.063974,-1.327871,-0.237578
2018-09-24T23:41:48.408888Z,0.40638,0.6789229999999999,-0.090978
2018-09-24T23:41:48.610888Z,0.637059,-0.17230499999999999,1.181974
2018-09-24T23:41:48.808888Z,0.717599,-1.561579,0.44547700000000007
2018-09-24T23:41:49.018888Z,0.664529,-0.667473,-0.54792
2018-09-24T23:41:49.208888Z,0.33173800000000003,0.171759,-0.818752
2018-09-24T23:41:49.409888Z,0.282085,0.34002899999999997,1.926395
2018-09-24T23:41:49.610888Z,0.6023270000000001,-1.446528,-0.018555000000000002
2018-09-24T23:41:49.809888Z,0.37089,-0.9172309999999999,0.107547
2018-09-24T23:41:50.010888Z,-0.10740799999999999,0.10458800000000001,-0.063211
2018-09-24T23:41:50.210888Z,0.142092,0.088858,1.073175
2018-09-24T23:41:50.412888Z,0.563802,-0.668194,-0.447668
2018-09-24T23:41:50.619888Z,0.38474200000000003,-0.871944,-0.45244399999999996
2018-09-24T23:41:50.810888Z,0.22023,0.031550999999999996,0.210696
2018-09-24T23:41:51.011888Z,0.44295200000000007,-0.256129,1.7760349999999998
2018-09-24T23:41:51.211888Z,-0.07888200000000001,-1.357972,-0.307261
2018-09-24T23:41:51.410888Z,0.131222,0.14491700000000002,-0.616316
2018-09-24T23:41:51.610888Z,-0.056466999999999996,0.17915599999999998,0.8945120000000001
2018-09-24T23:41:51.810888Z,0.7507560000000001,-1.306235,1.09378
2018-09-24T23:41:52.023888Z,0.254372,-1.058109,0.405169
2018-09-24T23:41:52.213888Z,0.199902,-0.390918,0.073437
2018-09-24T23:41:52.412888Z,-0.035493000000000004,-0.385527,1.0340770000000001
2018-09-24T23:41:52.620888Z,-0.43153400000000003,-0.789196,-0.218231
2018-09-24T23:41:52.827888Z,0.5598920000000001,-0.32348000000000005,-0.280565
2018-09-24T23:41:53.012888Z,1.453133,-0.925515,1.513004
2018-09-24T23:41:53.225888Z,2.2400740000000003,-1.8007490000000002,1.361204
2018-09-24T23:41:53.411888Z,1.9209610000000001,-1.876626,-0.48439899999999997
2018-09-24T23:41:53.612888Z,-0.023728,0.045341,-0.05032
2018-09-24T23:41:53.812888Z,-0.32898299999999997,0.20208800000000002,1.083944
2018-09-24T23:41:54.013888Z,-0.47930500000000004,-0.781367,0.558118
2018-09-24T23:41:54.212888Z,0.14246,-1.252086,-0.08998099999999999
2018-09-24T23:41:54.424888Z,0.306162,0.166442,0.026451
2018-09-24T23:41:54.618888Z,-0.42379700000000003,-0.340681,1.208148
2018-09-24T23:41:54.813888Z,0.114567,-1.3293190000000001,0.156864
2018-09-24T23:41:55.013888Z,0.52254,-1.280025,-0.480836
2018-09-24T23:41:55.213888Z,0.011,-0.168195,1.2686309999999998
2018-09-24T23:41:55.414888Z,0.323468,-1.41446,1.011817
2018-09-24T23:41:55.614888Z,0.652772,-0.9946219999999999,-0.711287
2018-09-24T23:41:55.814888Z,0.17152,-0.277081,-0.491821
2018-09-24T23:41:56.013888Z,-0.01864,-0.873122,1.143524
2018-09-24T23:41:56.232888Z,-0.404943,-1.9653669999999999,-0.840174
2018-09-24T23:41:56.414888Z,-3.0649830000000002,-1.128174,-0.188522
2018-09-24T23:41:56.614888Z,-2.094558,-2.780698,1.9380689999999998
2018-09-24T23:41:56.814888Z,-1.8758119999999998,-3.286576,1.419764
2018-09-24T23:41:57.014888Z,-0.850068,-1.854595,1.3835110000000002
2018-09-24T23:41:57.215888Z,0.716282,-1.533726,0.991232
2018-09-24T23:41:57.415888Z,2.193622,-1.286814,1.36932
2018-09-24T23:41:57.614888Z,2.437015,-0.318119,-0.071063
2018-09-24T23:41:57.815888Z,1.335636,0.386237,0.056451999999999995
2018-09-24T23:41:58.074888Z,0.528039,0.7258479999999999,0.43413199999999996
2018-09-24T23:41:58.214888Z,0.405352,-0.557987,0.87139
2018-09-24T23:41:58.416888Z,0.9172540000000001,-0.19844,-0.669373
2018-09-24T23:41:58.616888Z,0.07761799999999999,0.054592999999999996,0.41006499999999996
2018-09-24T23:41:58.815888Z,0.437554,-0.280597,0.97
2018-09-24T23:41:59.016888Z,-0.085663,-0.199778,-0.463876
2018-09-24T23:41:59.216888Z,0.360842,0.360953,0.545905
2018-09-24T23:41:59.416888Z,-0.44515299999999997,-0.492526,1.84939
2018-09-24T23:41:59.617888Z,-0.27005100000000004,-1.4444649999999999,-0.075975
2018-09-24T23:41:59.816888Z,0.006546,-1.251937,-0.389957
2018-09-24T23:42:00.017888Z,-0.9894569999999999,-0.203841,1.1591120000000001
2018-09-24T23:42:00.241888Z,-1.035113,-1.5214159999999999,0.9665809999999999
2018-09-24T23:42:00.417888Z,-1.0630469999999999,-1.225847,-0.560933
2018-09-24T23:42:00.617888Z,-0.5893579999999999,-0.5755600000000001,-0.283948
2018-09-24T23:42:00.818888Z,0.32705,0.621767,0.43226099999999995
2018-09-24T23:42:01.017888Z,0.399767,-1.167684,0.814071
2018-09-24T23:42:01.218888Z,0.8724940000000001,-1.064965,-0.669613
2018-09-24T23:42:01.419888Z,1.074139,-0.086869,-0.013434999999999999
2018-09-24T23:42:01.619888Z,0.9697680000000001,-0.50039,0.746239
2018-09-24T23:42:01.819888Z,0.35946300000000003,-0.777408,-0.39662800000000004
2018-09-24T23:42:02.018888Z,0.430555,-0.292927,-0.739294
2018-09-24T23:42:02.221888Z,0.264377,0.091266,0.30255
2018-09-24T23:42:02.419888Z,-0.466668,-0.7187180000000001,0.153955
2018-09-24T23:42:02.619888Z,0.069472,-0.475537,-0.51125
2018-09-24T23:42:02.820888Z,0.48116899999999996,0.00268,0.03417
2018-09-24T23:42:03.019888Z,0.902335,0.417609,0.9659040000000001
2018-09-24T23:42:03.299888Z,0.701416,-0.849267,-0.35768099999999997
2018-09-24T23:42:03.420888Z,0.6874170000000001,-0.053273,0.24063800000000002
2018-09-24T23:42:03.642888Z,0.31825,-0.335354,0.117868
2018-09-24T23:42:03.831888Z,-0.47385600000000005,-0.28421399999999997,-0.09916799999999999
2018-09-24T23:42:04.022888Z,-0.428364,-0.55753,0.034661000000000004
2018-09-24T23:42:04.220888Z,-0.358766,0.315432,-0.294854
2018-09-24T23:42:04.421888Z,-1.564902,0.380587,0.962087
2018-09-24T23:42:04.621888Z,1.039826,-0.115222,0.468588
2018-09-24T23:42:04.819888Z,0.549791,-0.156226,-0.48902700000000004
2018-09-24T23:42:05.020888Z,0.223027,0.47701899999999997,0.383388
2018-09-24T23:42:05.222888Z,0.010681999999999999,0.10881199999999999,0.659842
2018-09-24T23:42:05.435888Z,-0.078318,-0.631486,0.655421
2018-09-24T23:42:05.622888Z,0.45027799999999996,0.134899,-0.36373
2018-09-24T23:42:05.822888Z,0.462111,0.386223,0.735636
2018-09-24T23:42:06.022888Z,1.381478,-0.131865,0.978294
2018-09-24T23:42:06.222888Z,-0.7083510000000001,-0.655828,-0.785724
2018-09-24T23:42:06.422888Z,0.5424720000000001,0.9079149999999999,-0.179597
2018-09-24T23:42:06.625888Z,0.273507,0.23460999999999999,0.7075060000000001
2018-09-24T23:42:06.822888Z,-0.055765999999999996,-1.1356389999999998,0.27405100000000004
2018-09-24T23:42:07.073888Z,0.347202,-0.79164,-0.44451199999999996
2018-09-24T23:42:07.222888Z,-0.497931,0.710302,0.788483
2018-09-24T23:42:07.423888Z,-0.051157,-0.70496,0.46233100000000005
2018-09-24T23:42:07.623888Z,0.120268,-1.245708,0.20989699999999997
2018-09-24T23:42:07.822888Z,0.041013,-0.5587810000000001,-1.114788
2018-09-24T23:42:08.023888Z,-0.518792,0.123056,1.541709
2018-09-24T23:42:08.224888Z,-0.9002530000000001,-1.26072,0.275072
2018-09-24T23:42:08.424888Z,-0.320457,-0.812449,-0.60477
2018-09-24T23:42:08.623888Z,0.9110879999999999,0.072556,0.220142
2018-09-24T23:42:08.825888Z,0.9358299999999999,-0.11767999999999999,0.524846
2018-09-24T23:42:09.034888Z,0.5660189999999999,-0.712781,-0.213383
2018-09-24T23:42:09.224888Z,0.714145,-0.382245,-0.346242
2018-09-24T23:42:09.424888Z,0.121928,0.532273,-0.399983
2018-09-24T23:42:09.625888Z,0.07133300000000001,-0.8391190000000001,1.166077
2018-09-24T23:42:09.827888Z,0.977399,-0.7849229999999999,-0.973091
2018-09-24T23:42:10.025888Z,0.7947609999999999,-0.192467,-0.170567
2018-09-24T23:42:10.240888Z,0.160847,0.645993,0.19400799999999999
2018-09-24T23:42:10.425888Z,1.129392,-1.500991,0.348864
2018-09-24T23:42:10.624888Z,0.9948450000000001,-1.17562,-0.207137
2018-09-24T23:42:10.826888Z,0.618034,0.24772600000000003,-0.360039
2018-09-24T23:42:11.040888Z,0.408941,1.093356,-0.142156
2018-09-24T23:42:11.285888Z,0.255334,0.04275,0.731183
2018-09-24T23:42:11.425888Z,-0.31096599999999996,-0.53313,0.114951
2018-09-24T23:42:11.647888Z,-0.338594,-1.050565,0.308844
2018-09-24T23:42:11.826888Z,0.071116,-0.7938649999999999,0.261964
2018-09-24T23:42:12.037888Z,-0.673936,0.043268,-0.418817
2018-09-24T23:42:12.225888Z,-0.9926520000000001,-0.10821900000000001,0.160564
2018-09-24T23:42:12.426888Z,0.068325,-0.435438,0.501529
2018-09-24T23:42:12.643888Z,1.1783549999999998,-0.772726,0.286507
2018-09-24T23:42:12.826888Z,0.8531799999999999,1.397812,0.128719
2018-09-24T23:42:13.028888Z,0.553714,1.252948,0.883024
2018-09-24T23:42:13.228888Z,0.18999100000000002,-0.480854,0.9569709999999999
2018-09-24T23:42:13.426888Z,0.253357,-1.283831,-0.543093
2018-09-24T23:42:13.641888Z,0.14879900000000001,0.5639310000000001,0.367348
2018-09-24T23:42:13.851888Z,1.18182,0.443033,0.706521
2018-09-24T23:42:14.028888Z,0.873237,-0.9436209999999999,0.27508499999999997
2018-09-24T23:42:14.290888Z,0.507146,-0.71916,-1.281759
2018-09-24T23:42:14.428888Z,-0.14189100000000002,0.61842,0.596878
2018-09-24T23:42:14.628888Z,-0.344668,-0.784171,1.084144
2018-09-24T23:42:14.829888Z,-0.002543,-0.792848,-0.662615
2018-09-24T23:42:15.029888Z,0.257866,-0.307666,-0.37849499999999997
2018-09-24T23:42:15.229888Z,1.7155880000000001,0.131994,1.010939
2018-09-24T23:42:15.430888Z,1.438342,-0.547976,-0.197921
2018-09-24T23:42:15.668888Z,1.0432219999999999,-0.40525100000000003,-0.914544
2018-09-24T23:42:15.830888Z,0.050916,0.555808,0.08420599999999999
2018-09-24T23:42:16.030888Z,0.49013,-0.609142,0.601739
2018-09-24T23:42:16.230888Z,0.47014300000000003,-0.620758,-0.8327969999999999
2018-09-24T23:42:16.430888Z,0.50748,0.126933,-0.543622
2018-09-24T23:42:16.630888Z,0.08635599999999999,0.184351,0.726962
2018-09-24T23:42:16.830888Z,0.601793,-0.7304609999999999,-0.32203699999999996
2018-09-24T23:42:17.029888Z,0.6307729999999999,-0.836053,-0.776029
2018-09-24T23:42:17.231888Z,-2.004317,0.33168000000000003,-0.598063
2018-09-24T23:42:17.429888Z,-2.0981400000000003,-1.2322440000000001,1.241334
2018-09-24T23:42:17.631888Z,-2.016171,-1.9168470000000002,0.623972
2018-09-24T23:42:17.831888Z,-0.54482,-1.346909,1.385027
2018-09-24T23:42:18.031888Z,0.419811,-1.461757,1.817636
2018-09-24T23:42:18.232888Z,0.455374,-1.0067629999999999,0.20528200000000002
2018-09-24T23:42:18.431888Z,2.0846560000000003,-0.781529,0.827859
2018-09-24T23:42:18.633888Z,1.512691,-0.48429399999999995,-0.891978
2018-09-24T23:42:18.832888Z,1.5970309999999999,0.090977,0.21079499999999998
2018-09-24T23:42:19.032888Z,0.312593,0.06428500000000001,1.0387819999999999
2018-09-24T23:42:19.241888Z,-0.081934,-1.25312,0.449218
2018-09-24T23:42:19.443888Z,0.385397,-0.633469,-1.0835489999999999
2018-09-24T23:42:19.632888Z,-0.161912,0.33521999999999996,1.2308139999999999
2018-09-24T23:42:19.832888Z,0.407267,-0.049125999999999996,0.786826
2018-09-24T23:42:20.032888Z,1.085109,-0.8474809999999999,-1.343769
2018-09-24T23:42:20.233888Z,0.538912,0.450697,0.454408
2018-09-24T23:42:20.434888Z,0.794665,0.836742,1.14254
2018-09-24T23:42:20.633888Z,-0.34021,0.064674,0.505238
2018-09-24T23:42:20.833888Z,0.39210500000000004,-0.943141,-0.279633
2018-09-24T23:42:21.037888Z,0.771433,0.278605,-0.610169
2018-09-24T23:42:21.232888Z,0.087263,0.22391999999999998,1.353478
2018-09-24T23:42:21.450888Z,-0.248471,-1.140276,0.445981
2018-09-24T23:42:21.634888Z,-0.003034,-0.205227,-0.8193590000000001
2018-09-24T23:42:21.834888Z,0.059047,0.780554,0.2924
2018-09-24T23:42:22.035888Z,-0.139535,0.121,1.665201
2018-09-24T23:42:22.249888Z,-0.050279000000000004,-1.402145,0.811242
2018-09-24T23:42:22.435888Z,0.6145149999999999,-0.565948,-0.401611
2018-09-24T23:42:22.643888Z,0.8951549999999999,0.108752,0.096226
2018-09-24T23:42:22.837888Z,1.1754200000000001,-0.770616,2.128263
2018-09-24T23:42:23.036888Z,2.518893,-1.9396970000000002,0.252023
2018-09-24T23:42:23.251888Z,1.196261,-1.430248,0.636019
2018-09-24T23:42:23.435888Z,0.746822,-0.636568,0.275068
2018-09-24T23:42:23.636888Z,1.093336,-0.175524,0.269244
2018-09-24T23:42:23.851888Z,0.06915299999999999,-1.3646770000000001,0.172729
2018-09-24T23:42:24.038888Z,-0.210869,-1.05968,-0.49799799999999994
2018-09-24T23:42:24.245888Z,0.309112,-0.5030720000000001,0.448729
2018-09-24T23:42:24.436888Z,1.8403630000000002,-1.7814439999999998,1.655802
2018-09-24T23:42:24.636888Z,2.060612,-2.498102,0.641426
2018-09-24T23:42:24.836888Z,0.792004,-1.6988459999999999,0.429108
2018-09-24T23:42:25.036888Z,0.102799,-0.21979400000000002,0.43423999999999996
2018-09-24T23:42:25.237888Z,-0.27934200000000003,-0.162649,1.015247
2018-09-24T23:42:25.438888Z,0.24548699999999998,-0.325845,-0.8687729999999999
2018-09-24T23:42:25.636888Z,-0.021518000000000002,0.12897899999999998,-0.309214
2018-09-24T23:42:25.838888Z,0.009147,-0.773932,1.2365389999999998
2018-09-24T23:42:26.037888Z,0.465438,-0.735138,-0.09500900000000001
2018-09-24T23:42:26.237888Z,0.2805,-0.724689,-0.924701
2018-09-24T23:42:26.437888Z,0.15634800000000001,0.544204,0.51798
2018-09-24T23:42:26.649888Z,0.071786,-0.958992,0.795553
2018-09-24T23:42:26.837888Z,0.183319,-1.0692190000000001,-0.41493500000000005
2018-09-24T23:42:27.037888Z,-0.374855,0.519146,-0.7775350000000001
2018-09-24T23:42:27.238888Z,0.27069099999999996,-0.154099,0.8942549999999999
2018-09-24T23:42:27.438888Z,1.353436,-1.392327,-0.333413
2018-09-24T23:42:27.639888Z,0.787412,-0.450322,-0.515012
2018-09-24T23:42:27.849888Z,0.450546,0.401293,-0.698617
2018-09-24T23:42:28.040888Z,-0.003478,-1.193338,1.9776099999999999
2018-09-24T23:42:28.239888Z,0.242071,-0.9438209999999999,-0.7184649999999999
2018-09-24T23:42:28.438888Z,0.36585300000000004,-0.356966,-0.613047
2018-09-24T23:42:28.638888Z,-0.200613,0.5922189999999999,0.152597
2018-09-24T23:42:28.839888Z,0.086895,-0.9777239999999999,0.281578
2018-09-24T23:42:29.039888Z,-0.15442,-0.733892,-0.19789500000000002
2018-09-24T23:42:29.250888Z,-0.446483,0.306528,-1.137116
2018-09-24T23:42:29.440888Z,-2.310721,0.01799,0.8628020000000001
2018-09-24T23:42:29.640888Z,-1.078595,-1.7809599999999999,0.094881
2018-09-24T23:42:29.840888Z,-0.106751,-0.46107200000000004,0.227057
2018-09-24T23:42:30.041888Z,0.29511,0.001127,0.780245
2018-09-24T23:42:30.240888Z,1.8553680000000001,0.005173,0.9878379999999999
2018-09-24T23:42:30.441888Z,0.750786,-0.586017,-0.538291
2018-09-24T23:42:30.641888Z,0.289562,0.24881199999999998,0.546423
2018-09-24T23:42:30.841888Z,-0.194714,-0.498555,0.733545
2018-09-24T23:42:31.071888Z,0.615847,-0.66925,-0.32910100000000003
2018-09-24T23:42:31.257888Z,0.13860699999999998,0.756958,0.6374489999999999
2018-09-24T23:42:31.440888Z,0.532404,-0.12904100000000002,0.677437
2018-09-24T23:42:31.641888Z,-0.190626,-0.519101,-0.8487180000000001
2018-09-24T23:42:31.841888Z,0.389785,-0.631401,-0.42919300000000005
2018-09-24T23:42:32.042888Z,0.119692,0.763868,1.020407
2018-09-24T23:42:32.242888Z,0.336767,-0.887179,1.029784
2018-09-24T23:42:32.443888Z,0.566357,-0.8434729999999999,-0.686733
2018-09-24T23:42:32.662888Z,0.298061,-0.448563,-0.22604200000000002
2018-09-24T23:42:32.842888Z,0.03866,0.299706,-0.118229
2018-09-24T23:42:33.043888Z,-0.22472399999999998,-0.796139,0.44043699999999997
2018-09-24T23:42:33.245888Z,-0.5157970000000001,-0.9452510000000001,-0.327847
2018-09-24T23:42:33.442888Z,0.527835,0.592226,-0.809178
2018-09-24T23:42:33.643888Z,0.176495,0.23461100000000001,1.8470229999999999
2018-09-24T23:42:33.843888Z,0.879382,-1.99548,0.15548599999999999
2018-09-24T23:42:34.043888Z,0.586438,-0.15643900000000002,-0.712592
2018-09-24T23:42:34.243888Z,0.8700610000000001,-0.169128,0.562159
2018-09-24T23:42:34.443888Z,-0.151807,-0.597929,1.1298620000000001
2018-09-24T23:42:34.643888Z,0.083255,-0.39002,-0.45377700000000004
2018-09-24T23:42:34.843888Z,0.350075,0.21780700000000003,-0.243827
2018-09-24T23:42:35.043888Z,0.741154,0.569753,0.085424
2018-09-24T23:42:35.258888Z,0.26387,-1.058548,0.8050149999999999
2018-09-24T23:42:35.445888Z,0.25096599999999997,-0.586754,-0.814366
2018-09-24T23:42:35.645888Z,0.5057149999999999,-0.053514,0.087399
2018-09-24T23:42:35.845888Z,1.19782,0.766994,0.189506
2018-09-24T23:42:36.129888Z,0.7524310000000001,-0.9724870000000001,-0.229931
2018-09-24T23:42:36.244888Z,0.015021000000000001,-0.138247,-0.327984
2018-09-24T23:42:36.475888Z,-0.17110999999999998,0.621844,0.248638
2018-09-24T23:42:36.644888Z,-1.178795,0.858661,0.691683
2018-09-24T23:42:36.846888Z,-0.21315,-1.416093,-0.218324
2018-09-24T23:42:37.045888Z,-0.005684000000000001,-0.506983,-0.093226
2018-09-24T23:42:37.246888Z,0.384151,0.6907369999999999,-0.204062
2018-09-24T23:42:37.448888Z,-0.7433270000000001,0.45098299999999997,1.243136
2018-09-24T23:42:37.647888Z,0.284033,-0.9946,-0.737422
2018-09-24T23:42:37.846888Z,0.9481360000000001,0.14796900000000002,-0.374131
2018-09-24T23:42:38.059888Z,0.580264,0.414955,1.402025
2018-09-24T23:42:38.247888Z,-0.27258499999999997,-0.095734,0.681437
2018-09-24T23:42:38.445888Z,0.752502,-0.638966,-0.558335
2018-09-24T23:42:38.647888Z,0.48881499999999994,0.183758,-0.19426400000000002
2018-09-24T23:42:38.850888Z,0.568209,0.345981,0.574821
2018-09-24T23:42:39.047888Z,0.400538,-0.606284,0.6932590000000001
2018-09-24T23:42:39.247888Z,0.582256,-1.01691,0.16942000000000002
2018-09-24T23:42:39.448888Z,0.634645,-0.862409,1.092919
2018-09-24T23:42:39.657888Z,0.643811,0.293277,-0.356993
2018-09-24T23:42:39.850888Z,0.489044,0.495468,-0.036387
2018-09-24T23:42:40.051888Z,0.261677,0.070285,0.42589899999999997
2018-09-24T23:42:40.281888Z,0.179288,-0.8391379999999999,-0.483712
2018-09-24T23:42:40.447888Z,-0.161136,-0.873395,0.111956
2018-09-24T23:42:40.661888Z,0.022272999999999998,0.32595799999999997,-0.345143
2018-09-24T23:42:40.849888Z,-0.350269,0.210511,0.175514
2018-09-24T23:42:41.047888Z,-0.40370500000000004,-0.636076,-0.162098
2018-09-24T23:42:41.248888Z,-0.24861100000000003,-0.817697,0.411466
2018-09-24T23:42:41.449888Z,0.439407,-0.311213,-0.0756
2018-09-24T23:42:41.649888Z,-0.21498699999999998,0.31319,1.321328
2018-09-24T23:42:41.863888Z,-0.307178,-0.315803,0.164394
2018-09-24T23:42:42.049888Z,-0.5482090000000001,-0.5371279999999999,-0.514884
2018-09-24T23:42:42.259888Z,-0.082932,0.047718,-0.039922000000000006
2018-09-24T23:42:42.464888Z,0.9319629999999999,0.288918,1.1619389999999998
2018-09-24T23:42:42.651888Z,1.335285,-0.52589,-0.621785
2018-09-24T23:42:42.857888Z,1.0234020000000001,-0.4477,-0.6526270000000001
2018-09-24T23:42:43.050888Z,0.7292,0.407631,-0.101018
2018-09-24T23:42:43.265888Z,0.29397199999999996,-0.140786,1.019655
2018-09-24T23:42:43.450888Z,0.403237,-0.35985,-0.9327559999999999
2018-09-24T23:42:43.651888Z,0.423437,-0.23862199999999997,-0.5551649999999999
2018-09-24T23:42:43.851888Z,0.290923,0.717256,0.779845
2018-09-24T23:42:44.051888Z,0.916067,-0.891382,0.603798
2018-09-24T23:42:44.265888Z,1.021593,-1.081012,-0.637731
2018-09-24T23:42:44.451888Z,0.872201,-0.139324,-0.9567120000000001
2018-09-24T23:42:44.651888Z,0.863186,1.598417,-0.137256
2018-09-24T23:42:44.852888Z,0.23992800000000003,-0.81463,0.06127899999999999
2018-09-24T23:42:45.053888Z,0.502606,-0.571909,-0.42532200000000003
2018-09-24T23:42:45.252888Z,0.661884,0.340571,0.39159
2018-09-24T23:42:45.453888Z,0.455462,1.130603,-0.32427399999999995
2018-09-24T23:42:45.653888Z,0.445328,-1.224621,0.23633400000000002
2018-09-24T23:42:45.852888Z,0.062363999999999996,-0.614608,-1.062351
2018-09-24T23:42:46.052888Z,0.358769,0.350244,-0.798892
2018-09-24T23:42:46.252888Z,-2.843461,0.7441760000000001,0.888436
2018-09-24T23:42:46.453888Z,-1.884125,-0.9708030000000001,-0.040325
2018-09-24T23:42:46.653888Z,-0.750181,-0.288448,0.40991700000000003
2018-09-24T23:42:46.871888Z,0.7687069999999999,-0.176502,0.32018
2018-09-24T23:42:47.053888Z,0.853769,0.28382199999999996,1.631939
2018-09-24T23:42:47.254888Z,0.727392,-0.788874,-0.280326
2018-09-24T23:42:47.454888Z,0.650834,0.08755,-0.250737
2018-09-24T23:42:47.654888Z,1.008255,0.7231989999999999,0.142233
2018-09-24T23:42:47.853888Z,0.43389799999999995,0.45672799999999997,1.468964
2018-09-24T23:42:48.053888Z,0.544502,-1.039283,0.064276
2018-09-24T23:42:48.255888Z,0.6663140000000001,-0.14533900000000002,-0.01787
2018-09-24T23:42:48.458888Z,0.5778260000000001,0.42025100000000004,0.070799
2018-09-24T23:42:48.655888Z,-0.43591899999999995,-0.427853,1.0593920000000001
2018-09-24T23:42:48.854888Z,0.42144899999999996,-0.28364,-0.4416
2018-09-24T23:42:49.067888Z,0.334095,0.212103,-0.091408
2018-09-24T23:42:49.254888Z,0.465883,0.573056,1.0553290000000002
2018-09-24T23:42:49.456888Z,-0.311253,0.099958,1.3295860000000002
2018-09-24T23:42:49.659888Z,0.083031,-0.34356,-0.083411
2018-09-24T23:42:49.854888Z,0.321859,0.20575300000000002,-0.21728899999999998
2018-09-24T23:42:50.054888Z,0.671157,0.278827,-0.651591
2018-09-24T23:42:50.256888Z,0.189032,-0.48349899999999996,0.267379
2018-09-24T23:42:50.470888Z,-0.040966,-0.356097,-0.253731
2018-09-24T23:42:50.655888Z,0.013046,0.093112,-0.51135
2018-09-24T23:42:50.856888Z,-0.6277729999999999,0.080829,0.8967950000000001
2018-09-24T23:42:51.056888Z,-0.679758,-0.520888,1.1108870000000002
2018-09-24T23:42:51.258888Z,-0.297993,-0.8046770000000001,0.107627
2018-09-24T23:42:51.456888Z,0.288509,0.260923,0.252853
2018-09-24T23:42:51.658888Z,1.068474,0.246725,1.0696510000000001
2018-09-24T23:42:51.858888Z,0.061515,-1.4785629999999998,0.3645
2018-09-24T23:42:52.073888Z,1.28145,0.159615,0.271778
2018-09-24T23:42:52.271888Z,1.082937,0.8867709999999999,-0.277308
2018-09-24T23:42:52.460888Z,0.350634,0.369969,0.8622719999999999
2018-09-24T23:42:52.664888Z,-0.150615,-0.7812319999999999,0.202522
2018-09-24T23:42:52.858888Z,0.095848,-0.717857,0.016217
2018-09-24T23:42:53.057888Z,-0.03924,0.081166,-0.7757189999999999
2018-09-24T23:42:53.258888Z,-0.198682,1.153214,-0.308694
2018-09-24T23:42:53.459888Z,0.449139,0.773907,1.177667
2018-09-24T23:42:53.659888Z,0.421969,-1.2269,-0.611392
2018-09-24T23:42:53.859888Z,0.368857,0.072245,-0.36398400000000003
2018-09-24T23:42:54.058888Z,0.3641,0.143932,0.055282000000000005
2018-09-24T23:42:54.258888Z,-0.278474,0.384017,-0.24351799999999998
2018-09-24T23:42:54.460888Z,-0.319827,-0.604341,-0.099186
2018-09-24T23:42:54.659888Z,0.005629,-0.089884,-0.31059699999999996
2018-09-24T23:42:54.859888Z,0.405051,-0.08693200000000001,0.004346
2018-09-24T23:42:55.059888Z,0.012749,0.8133319999999999,0.8779899999999999
2018-09-24T23:42:55.260888Z,-0.097986,-0.674481,-0.212452
2018-09-24T23:42:55.460888Z,-0.166625,0.049151,0.185244
2018-09-24T23:42:55.661888Z,-0.066787,-0.07689700000000001,0.947802
2018-09-24T23:42:55.860888Z,0.177317,-1.0377889999999999,0.374703
2018-09-24T23:42:56.074888Z,0.26209699999999997,-0.18667899999999998,-0.633283
2018-09-24T23:42:56.261888Z,-0.734305,0.140907,0.575029
2018-09-24T23:42:56.461888Z,-1.050486,-2.44786,1.954663
2018-09-24T23:42:56.661888Z,-0.39812600000000004,-2.4443759999999997,0.553863
2018-09-24T23:42:56.861888Z,-0.078824,-2.464857,0.8472
2018-09-24T23:42:57.061888Z,0.690862,-1.6640259999999998,0.770413
2018-09-24T23:42:57.261888Z,0.608962,-1.6830889999999998,0.600413
2018-09-24T23:42:57.461888Z,1.215855,-0.113614,-0.102657
2018-09-24T23:42:57.662888Z,1.903532,-0.542987,1.518412
2018-09-24T23:42:57.862888Z,1.942757,-0.41334499999999996,0.080045
2018-09-24T23:42:58.062888Z,1.726677,0.17879,-0.653742
2018-09-24T23:42:58.276888Z,0.911695,0.261666,0.43103500000000006
2018-09-24T23:42:58.462888Z,0.27274499999999996,-1.292362,0.98401
2018-09-24T23:42:58.662888Z,0.551146,-0.956347,-0.388691
2018-09-24T23:42:58.885888Z,0.554528,-0.516459,-0.5960449999999999
2018-09-24T23:42:59.062888Z,-0.19880599999999998,0.572239,0.357639
2018-09-24T23:42:59.263888Z,0.8304219999999999,-1.114861,0.218781
2018-09-24T23:42:59.462888Z,0.758999,-0.5511,-1.017674
2018-09-24T23:42:59.663888Z,0.606667,0.21106599999999998,0.13353900000000002
2018-09-24T23:42:59.863888Z,0.6879069999999999,0.691761,0.44349799999999995
2018-09-24T23:43:00.063888Z,-0.375712,-1.092013,0.079041
2018-09-24T23:43:00.263888Z,0.215693,-0.084237,-0.45995699999999995
2018-09-24T23:43:00.464888Z,0.03317,0.121886,0.794559
2018-09-24T23:43:00.663888Z,0.6325890000000001,-0.287348,1.093098
2018-09-24T23:43:00.915888Z,0.43389099999999997,-0.902905,-0.742266
2018-09-24T23:43:01.063888Z,0.570705,0.08176599999999999,-0.010417000000000001
2018-09-24T23:43:01.263888Z,0.35523699999999997,0.511208,0.363604
2018-09-24T23:43:01.464888Z,0.32908200000000004,-0.226246,0.8700899999999999
2018-09-24T23:43:01.665888Z,-0.192962,-0.763167,-0.067209
2018-09-24T23:43:01.867888Z,0.357385,0.44754799999999995,-0.180276
2018-09-24T23:43:02.065888Z,0.5443600000000001,-0.186304,0.9648200000000001
2018-09-24T23:43:02.265888Z,1.177904,-1.176727,1.120135
2018-09-24T23:43:02.467888Z,0.642151,-0.508695,-0.545808
2018-09-24T23:43:02.666888Z,0.470814,0.174833,0.322411
2018-09-24T23:43:02.879888Z,0.142147,-0.483425,1.513525
2018-09-24T23:43:03.079888Z,-0.051004,-0.9544290000000001,-0.303625
2018-09-24T23:43:03.273888Z,0.055695,0.051882000000000005,-0.204792
2018-09-24T23:43:03.465888Z,-0.024725999999999998,-0.068912,-0.44228100000000004
2018-09-24T23:43:03.666888Z,-0.004013,-0.265726,1.9618209999999998
2018-09-24T23:43:03.866888Z,-0.41113500000000003,-1.315194,-0.300073
2018-09-24T23:43:04.068888Z,0.506357,0.304203,0.14107
2018-09-24T23:43:04.295888Z,0.064851,0.011939,0.43424300000000005
2018-09-24T23:43:04.467888Z,0.33662800000000004,-0.666786,1.40985
2018-09-24T23:43:04.667888Z,0.031562,-1.597769,-0.288984
2018-09-24T23:43:04.879888Z,-0.0033490000000000004,-0.151569,0.328784
2018-09-24T23:43:05.067888Z,0.13964200000000002,-0.349943,1.103708
2018-09-24T23:43:05.266888Z,0.36339499999999997,-0.913581,0.168659
2018-09-24T23:43:05.483888Z,0.146677,-1.1727450000000001,-0.422893
2018-09-24T23:43:05.669888Z,-0.074534,0.222309,1.106012
2018-09-24T23:43:05.868888Z,0.122056,-1.37053,0.393946
2018-09-24T23:43:06.069888Z,0.460527,-1.253516,-0.794451
2018-09-24T23:43:06.288888Z,0.7071350000000001,-0.259284,-0.33115500000000003
2018-09-24T23:43:06.468888Z,1.057188,-1.410833,1.552245
2018-09-24T23:43:06.747888Z,1.153946,-1.653745,-0.381323
2018-09-24T23:43:06.868888Z,1.232397,-1.361169,-0.027476999999999998
2018-09-24T23:43:07.069888Z,1.239203,-0.548541,0.299089
2018-09-24T23:43:07.269888Z,-0.742364,-0.873616,0.40941
2018-09-24T23:43:07.468888Z,-0.084379,-0.461024,-0.5652010000000001
2018-09-24T23:43:07.669888Z,-0.9033530000000001,0.640442,-0.425996
2018-09-24T23:43:07.869888Z,0.397624,-1.057743,1.6265049999999999
2018-09-24T23:43:08.087888Z,0.19212100000000001,-0.804311,-0.16377
2018-09-24T23:43:08.269888Z,0.047383,-0.603716,-0.710337
2018-09-24T23:43:08.470888Z,0.044792,0.210383,0.19285
2018-09-24T23:43:08.669888Z,-0.078458,0.098622,1.012613
2018-09-24T23:43:08.870888Z,-0.08147599999999999,-1.2225709999999999,-0.115196
2018-09-24T23:43:09.079888Z,0.140489,-0.48003,-0.49401300000000004
2018-09-24T23:43:09.270888Z,0.09508899999999999,0.030151,0.66038
2018-09-24T23:43:09.469888Z,0.496634,-0.743769,0.722112
2018-09-24T23:43:09.670888Z,0.52283,-0.376279,-0.585946
2018-09-24T23:43:09.872888Z,0.035297,0.091338,-0.33206399999999997
2018-09-24T23:43:10.073888Z,-0.19156800000000002,-0.015507,1.704309
2018-09-24T23:43:10.270888Z,-0.139784,-0.995344,-0.357246
2018-09-24T23:43:10.471888Z,-0.348357,0.326044,0.425616
2018-09-24T23:43:10.672888Z,-0.111201,-0.024621,0.995625
2018-09-24T23:43:10.871888Z,0.15626600000000002,-1.333373,-0.12188900000000001
2018-09-24T23:43:11.071888Z,0.141618,-0.9773940000000001,-0.643212
2018-09-24T23:43:11.272888Z,0.552163,0.942124,0.196936
2018-09-24T23:43:11.473888Z,-0.22468400000000002,0.012855000000000002,1.0972
2018-09-24T23:43:11.672888Z,-0.6396229999999999,-1.192658,0.349562
2018-09-24T23:43:11.873888Z,-0.19728900000000002,-0.8790600000000001,-0.919474
2018-09-24T23:43:12.099888Z,-0.364259,0.82535,0.231015
2018-09-24T23:43:12.272888Z,0.22426500000000002,-0.010889,1.0134370000000001
2018-09-24T23:43:12.473888Z,0.411879,-1.126615,-0.076111
2018-09-24T23:43:12.676888Z,0.282848,-0.867732,-1.065868
2018-09-24T23:43:12.873888Z,0.335038,0.948041,0.46743999999999997
2018-09-24T23:43:13.074888Z,0.0031850000000000003,-0.5445720000000001,1.492766
2018-09-24T23:43:13.274888Z,0.04862,-1.189833,-0.7475350000000001
2018-09-24T23:43:13.475888Z,0.194244,0.252446,-0.734019
2018-09-24T23:43:13.674888Z,-0.421645,0.35421199999999997,0.632476
2018-09-24T23:43:13.874888Z,-0.24681599999999998,-1.384585,0.243932
2018-09-24T23:43:14.073888Z,-0.658831,-1.133959,-1.034653
2018-09-24T23:43:14.288888Z,-2.16852,-1.074391,0.00387
2018-09-24T23:43:14.489888Z,-0.543858,-0.6602899999999999,0.17543699999999998
2018-09-24T23:43:14.674888Z,0.243937,-0.147366,-0.239017
2018-09-24T23:43:14.874888Z,0.92956,0.187132,-0.257802
2018-09-24T23:43:15.074888Z,1.470534,2.063226,-0.578692
2018-09-24T23:43:15.275888Z,0.856107,-0.507125,0.5910850000000001
2018-09-24T23:43:15.493888Z,0.5896600000000001,-0.9306399999999999,-0.49790200000000007
2018-09-24T23:43:15.675888Z,0.29039699999999996,-0.187724,-0.667726
2018-09-24T23:43:15.875888Z,-0.535658,0.322164,-0.629491
2018-09-24T23:43:16.077888Z,-1.2136209999999998,-0.896374,0.380764
2018-09-24T23:43:16.276888Z,-0.166509,-0.131957,-0.566369
2018-09-24T23:43:16.479888Z,0.50053,0.0021550000000000002,0.45314099999999996
2018-09-24T23:43:16.677888Z,1.313125,1.273958,0.541895
2018-09-24T23:43:16.876888Z,1.0692540000000001,-1.341801,-0.201022
2018-09-24T23:43:17.079888Z,0.8721200000000001,-0.144608,-1.4925899999999999
2018-09-24T23:43:17.278888Z,0.7715529999999999,0.519597,0.295978
2018-09-24T23:43:17.513888Z,0.757059,1.036834,1.807064
2018-09-24T23:43:17.679888Z,-0.714475,-1.413352,-0.29289499999999996
2018-09-24T23:43:17.877888Z,0.305286,-0.801345,-0.652465
2018-09-24T23:43:18.077888Z,0.150024,0.6509520000000001,0.807156
2018-09-24T23:43:18.277888Z,0.525097,-0.554794,1.0234299999999998
2018-09-24T23:43:18.477888Z,0.36995700000000004,-0.587449,-0.56205
2018-09-24T23:43:18.678888Z,0.901998,0.44624899999999995,0.825984
2018-09-24T23:43:18.880888Z,-0.8142,-0.739378,1.093
2018-09-24T23:43:19.091888Z,0.6198140000000001,-0.378924,-0.922668
2018-09-24T23:43:19.278888Z,0.656771,0.747315,0.42486199999999996
2018-09-24T23:43:19.479888Z,0.630093,-0.093578,1.8879299999999999
2018-09-24T23:43:19.678888Z,0.782688,-1.151902,-0.603666
2018-09-24T23:43:19.880888Z,0.249737,-0.079238,-1.619599
2018-09-24T23:43:20.078888Z,0.335947,-0.25392800000000004,1.728486
2018-09-24T23:43:20.279888Z,-0.122304,-0.873864,-0.100936
2018-09-24T23:43:20.528888Z,0.8858229999999999,-0.352866,-1.316014
2018-09-24T23:43:20.679888Z,-0.033482,-0.001524,0.8438129999999999
2018-09-24T23:43:20.880888Z,1.610534,-0.7778520000000001,-0.29712
2018-09-24T23:43:21.080888Z,1.167535,-0.318662,-0.84015
2018-09-24T23:43:21.292888Z,0.909924,0.8247450000000001,-0.17063499999999998
2018-09-24T23:43:21.480888Z,1.4617280000000001,0.602746,1.1499979999999999
2018-09-24T23:43:21.682888Z,-0.083367,-1.0713110000000001,-0.36386399999999997
2018-09-24T23:43:21.930888Z,0.20406,-0.19639,-1.020536
2018-09-24T23:43:22.094888Z,0.644207,0.376872,1.01041
2018-09-24T23:43:22.296888Z,0.85557,-0.45088100000000003,1.2770299999999999
2018-09-24T23:43:22.484888Z,1.2682,-0.075413,-0.46638999999999997
2018-09-24T23:43:22.681888Z,0.849182,0.5824739999999999,0.91195
2018-09-24T23:43:22.881888Z,-0.38035399999999997,-0.262265,1.8106630000000001
2018-09-24T23:43:23.082888Z,-0.327761,-2.054006,-0.23878400000000002
2018-09-24T23:43:23.281888Z,-0.35279299999999997,-0.083853,1.039701
2018-09-24T23:43:23.482888Z,-0.244925,-0.151082,1.166744
2018-09-24T23:43:23.682888Z,0.115093,-0.9254479999999999,-0.54504
2018-09-24T23:43:23.882888Z,-0.118603,-0.7033020000000001,-0.7153729999999999
2018-09-24T23:43:24.083888Z,-0.15456099999999998,-0.205227,1.06865
2018-09-24T23:43:24.282888Z,-0.345032,-0.9387459999999999,0.21477
2018-09-24T23:43:24.483888Z,0.21942399999999998,-0.652816,-1.139632
2018-09-24T23:43:24.682888Z,-0.289744,-0.319183,0.143064
2018-09-24T23:43:24.882888Z,0.412608,-0.6410319999999999,0.09637799999999999
2018-09-24T23:43:25.083888Z,0.10924600000000001,-0.717478,-0.921492
2018-09-24T23:43:25.283888Z,-0.061975,-0.26049,-0.731878
2018-09-24T23:43:25.482888Z,0.44347,1.320322,0.789034
2018-09-24T23:43:25.683888Z,-0.5968439999999999,-0.7028840000000001,-0.8627549999999999
2018-09-24T23:43:25.883888Z,-0.08229,0.220006,-0.130591
2018-09-24T23:43:26.084888Z,-0.159229,-0.004168,1.312376
2018-09-24T23:43:26.285888Z,0.040713,-0.908868,0.757181
2018-09-24T23:43:26.561888Z,-0.071237,-0.391778,-0.9423219999999999
2018-09-24T23:43:26.684888Z,-0.099696,0.7146060000000001,0.954466
2018-09-24T23:43:26.889888Z,-0.40892,-0.115398,1.1796719999999998
2018-09-24T23:43:27.083888Z,-0.433116,-0.980073,-0.309917
2018-09-24T23:43:27.284888Z,0.426605,0.7920590000000001,-0.020801
2018-09-24T23:43:27.485888Z,-0.22690500000000002,0.26060300000000003,1.632593
2018-09-24T23:43:27.685888Z,0.064239,-1.306519,0.11568099999999999
2018-09-24T23:43:27.886888Z,-0.008838,-0.433874,-1.2874139999999998
2018-09-24T23:43:28.084888Z,0.092749,0.746883,0.574177
2018-09-24T23:43:28.293888Z,-0.398384,-0.180308,0.770692
2018-09-24T23:43:28.485888Z,-0.197204,-1.034456,-0.580231
2018-09-24T23:43:28.685888Z,-0.055821,-0.017026,-0.8788739999999999
2018-09-24T23:43:28.887888Z,0.223286,-0.6015659999999999,0.7335689999999999
2018-09-24T23:43:29.085888Z,0.027825,-0.787557,-0.47808199999999995
2018-09-24T23:43:29.286888Z,-0.35983899999999996,-0.287365,-0.6145609999999999
2018-09-24T23:43:29.486888Z,0.25603000000000004,0.9612040000000001,0.378551
2018-09-24T23:43:29.686888Z,-0.32897600000000005,-0.8079569999999999,-0.40626
2018-09-24T23:43:29.898888Z,-0.182257,-0.625999,-0.478522
2018-09-24T23:43:30.087888Z,-0.335099,0.320868,-0.683371
2018-09-24T23:43:30.287888Z,-0.042756999999999996,0.473297,0.740857
2018-09-24T23:43:30.488888Z,0.311783,-0.410408,-0.759235
2018-09-24T23:43:30.687888Z,-0.126228,-0.322036,-0.120149
2018-09-24T23:43:30.887888Z,0.513522,0.314085,0.572248
2018-09-24T23:43:31.097888Z,0.292089,-0.235459,0.886675
2018-09-24T23:43:31.301888Z,0.622924,-0.320917,-0.344873
2018-09-24T23:43:31.487888Z,1.013416,0.065714,0.519512
2018-09-24T23:43:31.702888Z,1.660025,-0.657801,1.515945
2018-09-24T23:43:31.888888Z,1.47856,-1.078418,-0.444912
2018-09-24T23:43:32.088888Z,-0.18613,-0.6058939999999999,0.7338279999999999
2018-09-24T23:43:32.290888Z,-0.813357,-0.079897,1.454159
2018-09-24T23:43:32.503888Z,-0.9119450000000001,-1.8390950000000001,0.553897
2018-09-24T23:43:32.688888Z,-0.283269,-1.527601,-0.6303880000000001
