Datetime,accx,accy,accz
2018-09-25T23:31:00.861220Z,0.0,0.0,0.0
2018-09-25T23:31:01.094220Z,-0.305958,-0.380641,0.10021000000000001
2018-09-25T23:31:01.341220Z,-0.20533800000000002,0.283114,0.12986
2018-09-25T23:31:01.537220Z,-0.07293999999999999,-0.26172399999999996,0.09170299999999999
2018-09-25T23:31:01.716220Z,0.117021,0.375247,-0.30044299999999996
2018-09-25T23:31:01.932220Z,-0.591334,0.5683189999999999,-0.49067200000000005
2018-09-25T23:31:02.133220Z,0.005605,0.431874,-0.22576
2018-09-25T23:31:02.317220Z,-0.212013,0.10676600000000001,0.427124
2018-09-25T23:31:02.520220Z,-0.34192100000000003,-0.8457899999999999,0.471763
2018-09-25T23:31:02.758220Z,-0.275783,0.189857,-0.41513999999999995
2018-09-25T23:31:02.933220Z,0.556333,0.320142,0.428795
2018-09-25T23:31:03.152220Z,-0.500521,-0.633897,0.32852600000000004
2018-09-25T23:31:03.336220Z,-0.077834,-1.098155,0.565063
2018-09-25T23:31:03.535220Z,1.281015,-0.6665479999999999,0.672289
2018-09-25T23:31:03.718220Z,0.9803069999999999,-0.83388,0.9564389999999999
2018-09-25T23:31:03.936220Z,0.690311,-0.78209,-0.967995
2018-09-25T23:31:04.138220Z,0.30109400000000003,-0.495437,0.17863199999999999
2018-09-25T23:31:04.318220Z,-0.456813,0.26870900000000003,0.795932
2018-09-25T23:31:04.554220Z,-0.41329,-1.053392,1.417543
2018-09-25T23:31:04.735220Z,-0.637791,-1.436447,-0.571182
2018-09-25T23:31:04.933220Z,-0.24266999999999997,-0.8266540000000001,-0.328227
2018-09-25T23:31:05.135220Z,-0.31378,-0.623405,1.51906
2018-09-25T23:31:05.335220Z,0.317544,-1.620576,0.07272200000000001
2018-09-25T23:31:05.530220Z,-0.023663,-0.9762940000000001,-1.116832
2018-09-25T23:31:05.735220Z,-1.56821,0.13121,0.086521
2018-09-25T23:31:05.934220Z,-1.7882630000000002,-1.972089,0.578954
2018-09-25T23:31:06.133220Z,-1.349423,-1.2675239999999999,0.080663
2018-09-25T23:31:06.339220Z,-0.26514,-0.352317,0.80501
2018-09-25T23:31:06.539220Z,0.9447030000000001,-0.075776,0.53285
2018-09-25T23:31:06.728220Z,0.253121,-0.811033,-0.0028179999999999998
2018-09-25T23:31:06.932220Z,1.086056,-0.018859,-1.1301219999999998
2018-09-25T23:31:07.135220Z,0.206877,0.706234,-0.11600799999999999
2018-09-25T23:31:07.336220Z,-0.33658000000000005,0.638745,1.121342
2018-09-25T23:31:07.537220Z,1.417736,-1.700577,-0.142845
2018-09-25T23:31:07.736220Z,1.9618970000000002,-1.0741459999999998,0.414537
2018-09-25T23:31:07.942220Z,1.601721,-1.2927620000000002,0.452204
2018-09-25T23:31:08.138220Z,0.885143,-0.915809,0.835463
2018-09-25T23:31:08.336220Z,-0.41383500000000006,0.041983,0.24626900000000002
2018-09-25T23:31:08.540220Z,-0.507337,0.352774,0.407479
2018-09-25T23:31:08.738220Z,-0.43904899999999997,-0.685761,1.7421229999999999
2018-09-25T23:31:08.972220Z,-0.541602,-1.575761,-0.105234
2018-09-25T23:31:09.137220Z,-0.70545,0.268842,-0.06779299999999999
2018-09-25T23:31:09.343220Z,-0.41828699999999996,0.20211400000000002,0.9709479999999999
2018-09-25T23:31:09.535220Z,0.18005,-1.115958,1.440315
2018-09-25T23:31:09.724220Z,-0.13308499999999998,-0.8355530000000001,-1.635427
2018-09-25T23:31:09.923220Z,-0.113574,0.891692,-0.060269
2018-09-25T23:31:10.124220Z,-0.47488400000000003,0.213567,1.330559
2018-09-25T23:31:10.326220Z,0.687627,-1.523202,1.6966720000000002
2018-09-25T23:31:10.537220Z,0.100897,-1.7255880000000001,-1.765441
2018-09-25T23:31:10.739220Z,-0.373219,0.629724,1.097093
2018-09-25T23:31:10.925220Z,0.343947,-0.581303,0.745007
2018-09-25T23:31:11.134220Z,0.43971000000000005,-1.3848200000000002,-0.43870699999999996
2018-09-25T23:31:11.325220Z,0.475911,-0.277084,-1.055675
2018-09-25T23:31:11.539220Z,-0.13936300000000001,0.314446,1.4023459999999999
2018-09-25T23:31:11.725220Z,0.113731,-1.436988,-0.798793
2018-09-25T23:31:11.937220Z,-0.004268,-1.093504,-0.655245
2018-09-25T23:31:12.125220Z,-0.139514,0.7113189999999999,0.015518
2018-09-25T23:31:12.341220Z,0.068196,-0.886231,0.5676100000000001
2018-09-25T23:31:12.525220Z,-0.011238,-0.6995560000000001,-1.014125
2018-09-25T23:31:12.737220Z,0.668312,-0.28410799999999997,-0.489457
2018-09-25T23:31:12.942220Z,0.201702,1.750274,0.680084
2018-09-25T23:31:13.143220Z,-0.36312300000000003,-1.322437,-0.5849979999999999
2018-09-25T23:31:13.357220Z,0.516309,-1.139151,-0.493026
2018-09-25T23:31:13.537220Z,0.382533,-0.48969399999999996,1.298023
2018-09-25T23:31:13.740220Z,1.325696,0.00215,1.0734700000000001
2018-09-25T23:31:13.927220Z,1.051705,-0.9267200000000001,-0.689217
2018-09-25T23:31:14.127220Z,0.37950700000000004,0.18553,0.515965
2018-09-25T23:31:14.347220Z,-0.295032,0.050910000000000004,1.789434
2018-09-25T23:31:14.538220Z,-0.344583,-1.4356520000000002,0.5524600000000001
2018-09-25T23:31:14.745220Z,-0.03712,-0.348677,-0.5260090000000001
2018-09-25T23:31:14.945220Z,0.291358,-0.181445,1.287248
2018-09-25T23:31:15.145220Z,0.6059260000000001,-0.720388,0.901669
2018-09-25T23:31:15.427220Z,1.339652,-1.103664,-0.384471
2018-09-25T23:31:15.537220Z,0.013099000000000001,0.652988,0.554258
2018-09-25T23:31:15.743220Z,0.422676,-0.6266619999999999,0.624228
2018-09-25T23:31:15.943220Z,0.414758,-1.507536,0.901066
2018-09-25T23:31:16.137220Z,-0.138774,-0.849463,-0.7614449999999999
2018-09-25T23:31:16.339220Z,-0.150837,-0.058837,0.809262
2018-09-25T23:31:16.544220Z,-0.158474,-0.660674,0.909825
2018-09-25T23:31:16.744220Z,0.22477399999999997,-0.896467,-0.661129
2018-09-25T23:31:16.929220Z,0.426676,-0.031548,-0.18778599999999998
2018-09-25T23:31:17.129220Z,-0.154293,-1.22889,0.053299
2018-09-25T23:31:17.341220Z,-0.224534,-0.9493,-0.639522
2018-09-25T23:31:17.546220Z,-0.350172,0.257331,0.054274
2018-09-25T23:31:17.744220Z,-0.171718,0.33825900000000003,0.871099
2018-09-25T23:31:17.940220Z,0.596792,-0.912935,-0.992476
2018-09-25T23:31:18.144220Z,-0.21529299999999998,0.11201400000000002,-0.293433
2018-09-25T23:31:18.348220Z,0.077895,0.8516309999999999,1.013943
2018-09-25T23:31:18.563220Z,0.12421900000000001,-0.821305,1.2005139999999999
2018-09-25T23:31:18.750220Z,0.180883,-0.500438,-0.38416
2018-09-25T23:31:18.950220Z,0.036626,0.04108,0.9573379999999999
2018-09-25T23:31:19.150220Z,-0.053713,-0.172394,0.718286
2018-09-25T23:31:19.356220Z,1.187692,-0.656826,-0.46201099999999995
2018-09-25T23:31:19.550220Z,0.157392,0.709122,0.328013
2018-09-25T23:31:19.731220Z,0.116711,0.042135,1.209814
2018-09-25T23:31:19.931220Z,-0.5294270000000001,-1.338775,0.07345299999999999
2018-09-25T23:31:20.145220Z,-0.352598,-1.272346,-0.9391370000000001
2018-09-25T23:31:20.350220Z,0.22674,0.293772,1.306534
2018-09-25T23:31:20.550220Z,0.5941069999999999,-1.079092,0.166391
2018-09-25T23:31:20.750220Z,0.42292799999999997,-0.974842,-0.494199
2018-09-25T23:31:20.943220Z,0.232654,0.121468,-0.30036599999999997
2018-09-25T23:31:21.142220Z,1.0858809999999999,-0.654669,2.6806
2018-09-25T23:31:21.377220Z,1.904245,-1.5794030000000001,-0.04283
2018-09-25T23:31:21.548220Z,2.445329,-1.735543,-0.187681
2018-09-25T23:31:21.734220Z,0.649353,-0.240385,-0.469398
2018-09-25T23:31:21.948220Z,-0.22702399999999998,-1.042818,1.46032
2018-09-25T23:31:22.151220Z,0.675211,-1.681142,0.435267
2018-09-25T23:31:22.349220Z,0.053205999999999996,-1.016033,-1.040341
2018-09-25T23:31:22.547220Z,-0.833392,-0.32515,0.129571
2018-09-25T23:31:22.734220Z,-0.24360300000000001,-0.89359,0.34354
2018-09-25T23:31:22.948220Z,-0.323266,-0.9638610000000001,-0.272447
2018-09-25T23:31:23.148220Z,-1.030519,0.470837,-0.139953
2018-09-25T23:31:23.352220Z,0.10518399999999999,-0.046127999999999995,1.6754580000000001
2018-09-25T23:31:23.553220Z,0.5762010000000001,-1.7096369999999999,-0.856324
2018-09-25T23:31:23.816220Z,0.273459,-0.6396069999999999,-1.356228
2018-09-25T23:31:23.944220Z,-0.340713,-0.016985,1.3132409999999999
2018-09-25T23:31:24.135220Z,-0.004525,0.231359,1.0510110000000001
2018-09-25T23:31:24.335220Z,0.218061,-0.691438,-0.8934200000000001
2018-09-25T23:31:24.535220Z,-0.002971,-0.29196500000000003,-0.12441400000000001
2018-09-25T23:31:24.736220Z,0.31262,-0.122857,1.356255
2018-09-25T23:31:24.954220Z,1.177079,-1.1348719999999999,1.244795
2018-09-25T23:31:25.154220Z,-0.113125,-0.25710500000000003,-0.027699
2018-09-25T23:31:25.346220Z,0.30695700000000004,-0.117148,1.0631
2018-09-25T23:31:25.562220Z,-0.22368000000000002,-0.925681,0.45520600000000006
2018-09-25T23:31:25.748220Z,0.41548199999999996,-0.8812979999999999,-0.07926799999999999
2018-09-25T23:31:25.949220Z,1.254034,-0.398049,1.411915
2018-09-25T23:31:26.152220Z,1.971599,-1.172617,1.2130459999999998
2018-09-25T23:31:26.354220Z,1.327516,-1.178623,-0.573932
2018-09-25T23:31:26.556220Z,1.2817209999999999,-0.979359,0.173578
2018-09-25T23:31:26.754220Z,-1.0137040000000002,-1.234384,1.343704
2018-09-25T23:31:26.955220Z,-0.017991999999999998,-1.315769,-0.5114770000000001
2018-09-25T23:31:27.169220Z,0.042756,-0.806174,-0.674521
2018-09-25T23:31:27.352220Z,-1.561806,-0.15195699999999998,0.25358200000000003
2018-09-25T23:31:27.547220Z,-1.238033,-1.9978060000000002,0.986035
2018-09-25T23:31:27.749220Z,-2.206603,-2.1810970000000003,-0.001912
2018-09-25T23:31:27.952220Z,-1.134788,-1.985338,1.089913
2018-09-25T23:31:28.155220Z,0.0445,-1.034162,0.6687569999999999
2018-09-25T23:31:28.356220Z,0.586392,0.41548,-0.005815
2018-09-25T23:31:28.558220Z,0.748591,0.71477,-0.302706
2018-09-25T23:31:28.756220Z,0.7306020000000001,0.391237,0.644908
2018-09-25T23:31:28.956220Z,0.39007600000000003,-0.339001,-0.39827399999999996
2018-09-25T23:31:29.138220Z,0.995267,0.97055,0.079114
2018-09-25T23:31:29.354220Z,0.47087299999999993,0.39610100000000004,0.663606
2018-09-25T23:31:29.554220Z,0.342769,-0.703688,1.4927549999999998
2018-09-25T23:31:29.753220Z,0.820976,-1.126207,-0.639949
2018-09-25T23:31:29.951220Z,0.636918,0.62776,0.26969499999999996
2018-09-25T23:31:30.140220Z,0.361122,0.46704799999999996,1.018238
2018-09-25T23:31:30.340220Z,0.400473,-1.268391,0.45071400000000006
2018-09-25T23:31:30.557220Z,0.891926,-0.582808,-0.014941999999999999
2018-09-25T23:31:30.755220Z,0.8963629999999999,-0.036769,-0.13938299999999998
2018-09-25T23:31:30.956220Z,0.9332459999999999,0.5451699999999999,0.28110300000000005
2018-09-25T23:31:31.154220Z,0.561459,0.23451,0.24482600000000002
2018-09-25T23:31:31.342220Z,-0.757178,-0.173689,-0.23046
2018-09-25T23:31:31.555220Z,0.060045,-0.571399,-0.08186399999999999
2018-09-25T23:31:31.742220Z,-0.274463,-0.024429,0.12528699999999998
2018-09-25T23:31:31.949220Z,0.075178,-0.092093,0.41121899999999995
2018-09-25T23:31:32.152220Z,-0.625105,0.174172,-0.48417
2018-09-25T23:31:32.343220Z,0.411761,-0.691623,-0.41237399999999996
2018-09-25T23:31:32.583220Z,0.185014,-0.165165,-0.4916
2018-09-25T23:31:32.783220Z,0.445295,0.413941,0.780173
2018-09-25T23:31:32.984220Z,0.569473,0.260193,0.247579
2018-09-25T23:31:33.183220Z,-0.0025210000000000002,-1.0744,-0.30727
2018-09-25T23:31:33.381220Z,0.249277,-0.460672,-0.668968
2018-09-25T23:31:33.592220Z,-0.247225,-0.0008039999999999999,-0.143101
2018-09-25T23:31:33.779220Z,-0.957418,0.229093,0.525458
2018-09-25T23:31:33.950220Z,-0.44559399999999993,-0.646292,-0.7079979999999999
2018-09-25T23:31:34.159220Z,-0.9138780000000001,-0.214928,-0.181445
2018-09-25T23:31:34.357220Z,-0.628261,0.036289999999999996,0.412357
2018-09-25T23:31:34.559220Z,-0.667607,-0.922376,1.123618
2018-09-25T23:31:34.754220Z,-0.057972,-0.552134,-0.18396400000000002
2018-09-25T23:31:34.954220Z,0.101351,0.380772,-0.012919
2018-09-25T23:31:35.159220Z,0.286781,0.733251,0.7606539999999999
2018-09-25T23:31:35.362220Z,0.536619,-0.608139,1.066288
2018-09-25T23:31:35.560220Z,0.315728,-0.06236799999999999,-1.351084
2018-09-25T23:31:35.757220Z,0.08175,0.42941999999999997,0.276052
2018-09-25T23:31:35.958220Z,-0.346993,0.23416599999999999,0.779233
2018-09-25T23:31:36.144220Z,-0.150257,-0.7474850000000001,0.170318
2018-09-25T23:31:36.360220Z,-0.565159,-0.394437,0.189227
2018-09-25T23:31:36.562220Z,-0.51963,-0.323538,0.595229
2018-09-25T23:31:36.760220Z,-0.282172,-1.2053209999999999,0.717969
2018-09-25T23:31:36.959220Z,-0.23408,-0.728164,-0.064817
2018-09-25T23:31:37.161220Z,0.170808,0.35843200000000003,-0.735861
2018-09-25T23:31:37.359220Z,0.106597,0.798316,-0.443542
2018-09-25T23:31:37.558220Z,-0.06840800000000001,0.91509,0.166827
2018-09-25T23:31:37.759220Z,0.479001,-0.44182899999999997,0.762046
2018-09-25T23:31:37.960220Z,0.232555,-0.626923,-0.586675
2018-09-25T23:31:38.153220Z,0.455164,0.026886,0.026469
2018-09-25T23:31:38.361220Z,0.1933,0.673208,-0.096376
2018-09-25T23:31:38.546220Z,0.596901,0.648529,0.48953199999999997
2018-09-25T23:31:38.759220Z,0.206581,-0.92414,-0.238425
2018-09-25T23:31:38.962220Z,0.305323,-0.158937,0.064532
2018-09-25T23:31:39.164220Z,0.451554,0.218928,-0.188724
2018-09-25T23:31:39.346220Z,0.095364,0.307863,-0.635428
2018-09-25T23:31:39.559220Z,0.35486999999999996,0.67088,0.34205399999999997
2018-09-25T23:31:39.762220Z,0.361668,-0.577998,0.718626
2018-09-25T23:31:39.947220Z,0.558365,-0.838967,-0.32001999999999997
2018-09-25T23:31:40.158220Z,0.201997,0.29835700000000004,-1.208779
2018-09-25T23:31:40.361220Z,0.618364,-0.23870300000000003,0.49513199999999996
2018-09-25T23:31:40.566220Z,0.507452,-0.43080100000000005,-0.130858
2018-09-25T23:31:40.766220Z,-0.287054,0.053835,-0.418983
2018-09-25T23:31:40.949220Z,-0.7225590000000001,0.671715,-0.45076700000000003
2018-09-25T23:31:41.149220Z,-0.486926,-0.41067600000000004,0.6708069999999999
2018-09-25T23:31:41.347220Z,0.076777,-1.5540559999999999,-0.015194
2018-09-25T23:31:41.564220Z,-0.020257,-0.394563,-1.020505
2018-09-25T23:31:41.766220Z,-0.15393099999999998,0.578939,0.518306
2018-09-25T23:31:41.963220Z,0.045901,-0.48123,1.386492
2018-09-25T23:31:42.159220Z,0.19761199999999998,-1.091242,-0.6581239999999999
2018-09-25T23:31:42.363220Z,0.315246,0.174823,-1.202939
2018-09-25T23:31:42.586220Z,-0.029151,0.454071,0.047909
2018-09-25T23:31:42.765220Z,-0.133967,-1.085149,0.808922
2018-09-25T23:31:42.963220Z,0.339331,-0.995232,0.026912000000000002
2018-09-25T23:31:43.171220Z,0.237098,0.048339,-0.993134
2018-09-25T23:31:43.363220Z,-0.852462,0.135995,1.054166
2018-09-25T23:31:43.550220Z,-0.492001,0.07874400000000001,0.763935
2018-09-25T23:31:43.761220Z,0.505332,-1.235842,0.257804
2018-09-25T23:31:43.972220Z,-0.29247399999999996,-0.38909699999999997,-0.436996
2018-09-25T23:31:44.161220Z,0.074658,0.27921,-0.051522000000000005
2018-09-25T23:31:44.350220Z,-0.052665,0.800632,0.724143
2018-09-25T23:31:44.551220Z,-0.084229,-0.696018,0.7345189999999999
2018-09-25T23:31:44.752220Z,-0.25219400000000003,-0.841032,-0.9861629999999999
2018-09-25T23:31:44.952220Z,-0.424505,-0.196155,-0.20784499999999997
2018-09-25T23:31:45.170220Z,0.087103,0.316021,0.461363
2018-09-25T23:31:45.351220Z,0.43677,-1.168852,0.31695
2018-09-25T23:31:45.551220Z,0.090919,0.381261,-1.2613020000000001
2018-09-25T23:31:45.768220Z,-0.039062,0.391882,0.176326
2018-09-25T23:31:45.951220Z,-0.039102,-0.039185000000000005,1.103861
2018-09-25T23:31:46.163220Z,-0.795078,-0.881868,0.234116
2018-09-25T23:31:46.367220Z,-0.6319130000000001,-0.32006999999999997,-0.539998
2018-09-25T23:31:46.553220Z,-0.14391099999999998,0.435621,0.033237
2018-09-25T23:31:46.768220Z,0.0008269999999999999,-0.566236,0.29453
2018-09-25T23:31:46.970220Z,0.12644,-0.5279159999999999,-0.767161
2018-09-25T23:31:47.172220Z,-0.119897,0.626613,-0.451682
2018-09-25T23:31:47.370220Z,0.49842600000000004,0.828001,-0.301632
2018-09-25T23:31:47.568220Z,0.0044,-0.829575,1.1413440000000001
2018-09-25T23:31:47.753220Z,0.562271,-0.83142,-0.766918
2018-09-25T23:31:47.985220Z,0.298437,-0.002712,-1.004399
2018-09-25T23:31:48.154220Z,0.197171,0.303318,1.841981
2018-09-25T23:31:48.354220Z,2.145047,-1.260134,0.150864
2018-09-25T23:31:48.597220Z,0.752572,-0.7243390000000001,-0.5002
2018-09-25T23:31:48.768220Z,0.29541100000000003,0.053038,0.13331199999999999
2018-09-25T23:31:48.955220Z,-1.404711,0.615171,1.9321990000000002
2018-09-25T23:31:49.174220Z,-0.206056,-1.4425729999999999,-0.422513
2018-09-25T23:31:49.372220Z,0.128412,-0.154379,0.125209
2018-09-25T23:31:49.566220Z,-0.069998,0.12536,1.746922
2018-09-25T23:31:49.767220Z,-0.128828,-0.571915,-0.35878699999999997
2018-09-25T23:31:49.971220Z,0.271298,-0.50448,-0.362081
2018-09-25T23:31:50.172220Z,0.202215,0.32968000000000003,0.19411
2018-09-25T23:31:50.371220Z,0.12981900000000002,0.655999,0.7182470000000001
2018-09-25T23:31:50.571220Z,-0.05851699999999999,-0.678027,1.064185
2018-09-25T23:31:50.774220Z,-0.088014,-0.594058,-0.652911
2018-09-25T23:31:50.976220Z,-0.44298000000000004,0.365019,0.362182
2018-09-25T23:31:51.173220Z,0.577561,0.373458,1.82795
2018-09-25T23:31:51.373220Z,0.46434,-2.129469,0.687021
2018-09-25T23:31:51.574220Z,0.294523,-0.406622,-0.865975
2018-09-25T23:31:51.782220Z,-0.165055,0.128863,0.093736
2018-09-25T23:31:51.972220Z,-0.9591049999999999,-0.195069,1.610957
2018-09-25T23:31:52.176220Z,-0.8376290000000001,-0.869339,-0.383121
2018-09-25T23:31:52.361220Z,-0.035245,0.165828,0.619848
2018-09-25T23:31:52.567220Z,-0.359491,-0.07255,0.744093
2018-09-25T23:31:52.775220Z,0.497101,-1.744259,1.1942959999999998
2018-09-25T23:31:52.975220Z,0.7217640000000001,-0.114656,-1.593228
2018-09-25T23:31:53.159220Z,0.23897800000000002,0.658423,0.845183
2018-09-25T23:31:53.380220Z,-0.23489899999999997,-0.31638099999999997,1.049652
2018-09-25T23:31:53.578220Z,-0.22551300000000002,-1.1821780000000002,-1.436432
2018-09-25T23:31:53.774220Z,-0.851924,-0.5166,-0.062225
2018-09-25T23:31:53.974220Z,-0.0544,-0.20674299999999998,0.653772
2018-09-25T23:31:54.171220Z,0.41205699999999995,-0.809706,0.09654299999999999
2018-09-25T23:31:54.372220Z,-0.028406,0.026287,-0.580923
2018-09-25T23:31:54.574220Z,0.160438,0.36457399999999995,-0.274486
2018-09-25T23:31:54.777220Z,-1.011728,-0.5116689999999999,1.1256030000000001
2018-09-25T23:31:54.974220Z,-0.337196,-0.6996560000000001,-1.137053
2018-09-25T23:31:55.176220Z,0.0233,-0.534626,0.418254
2018-09-25T23:31:55.360220Z,0.46488,-0.27532399999999996,0.884856
2018-09-25T23:31:55.571220Z,1.517321,-0.248415,0.631038
2018-09-25T23:31:55.778220Z,0.950664,0.004344,-0.47606099999999996
2018-09-25T23:31:55.976220Z,0.711229,-0.726854,0.9391149999999999
2018-09-25T23:31:56.176220Z,2.1240810000000003,-0.390965,1.265909
2018-09-25T23:31:56.378220Z,0.081599,-1.170008,1.086958
2018-09-25T23:31:56.574220Z,-0.937067,-0.769104,0.043724
2018-09-25T23:31:56.779220Z,-1.55582,-0.155255,0.589607
2018-09-25T23:31:56.976220Z,-0.49185,-0.137423,0.569638
2018-09-25T23:31:57.171220Z,0.374267,-1.435408,-0.49477899999999997
2018-09-25T23:31:57.379220Z,0.20064300000000002,-0.9266639999999999,-0.172019
2018-09-25T23:31:57.575220Z,0.15012999999999999,-0.12617899999999999,-0.28018699999999996
2018-09-25T23:31:57.775220Z,-0.200486,0.33071300000000003,1.127805
2018-09-25T23:31:57.976220Z,-0.271404,-1.742473,-0.37418
2018-09-25T23:31:58.172220Z,0.292119,-0.835089,-0.329968
2018-09-25T23:31:58.362220Z,0.69681,-0.8353959999999999,1.236224
2018-09-25T23:31:58.575220Z,0.773107,-0.735096,2.178875
2018-09-25T23:31:58.780220Z,0.7695850000000001,-0.380726,-0.294053
2018-09-25T23:31:58.980220Z,1.363446,-0.04261,0.325196
2018-09-25T23:31:59.179220Z,-0.570054,0.041586,0.729118
2018-09-25T23:31:59.375220Z,-0.715979,-1.479365,0.29775999999999997
2018-09-25T23:31:59.576220Z,0.106957,-1.048571,-0.613514
2018-09-25T23:31:59.763220Z,-0.674222,-0.286592,0.036476
2018-09-25T23:31:59.977220Z,-0.8490969999999999,0.5895060000000001,-0.535556
2018-09-25T23:32:00.174220Z,0.65789,-1.286565,1.450596
2018-09-25T23:32:00.378220Z,0.12145,-0.40221,-0.349414
2018-09-25T23:32:00.581220Z,0.186552,0.341632,-0.022532
2018-09-25T23:32:00.781220Z,0.04105,0.204225,1.2086620000000001
2018-09-25T23:32:00.982220Z,-0.530701,-1.09874,1.339574
2018-09-25T23:32:01.174220Z,0.16204000000000002,-0.541031,-1.295656
2018-09-25T23:32:01.385220Z,-0.178485,0.33779000000000003,-0.219625
2018-09-25T23:32:01.574220Z,-0.242071,0.587287,1.581768
2018-09-25T23:32:01.779220Z,0.512985,-1.9051349999999998,0.664799
2018-09-25T23:32:01.969220Z,0.288679,-0.340317,-0.512882
2018-09-25T23:32:02.210220Z,0.017081,0.7714409999999999,0.5254800000000001
2018-09-25T23:32:02.408220Z,-1.229183,0.291039,0.510962
2018-09-25T23:32:02.608220Z,0.16930699999999999,-1.84685,0.135158
2018-09-25T23:32:02.809220Z,-0.018739,-0.00808,-0.55665
2018-09-25T23:32:03.006220Z,0.148523,0.356453,0.936825
2018-09-25T23:32:03.218220Z,0.456269,-0.632365,1.111229
2018-09-25T23:32:03.476220Z,0.8491569999999999,-0.5610149999999999,-0.8834629999999999
2018-09-25T23:32:03.576220Z,0.15900999999999998,0.7797310000000001,0.153282
2018-09-25T23:32:03.806220Z,-0.066236,-0.304794,1.567739
2018-09-25T23:32:03.977220Z,-0.665864,-1.454138,-0.128071
2018-09-25T23:32:04.178220Z,-0.066708,-0.8548020000000001,-0.815058
2018-09-25T23:32:04.380220Z,0.07569400000000001,0.404098,-0.061021000000000006
2018-09-25T23:32:04.587220Z,-0.267851,-0.832383,1.238564
2018-09-25T23:32:04.785220Z,-0.035565,-0.24623299999999998,-0.8231139999999999
2018-09-25T23:32:04.968220Z,0.181572,-0.50351,-0.61143
2018-09-25T23:32:05.241220Z,-0.165545,0.013222999999999999,-0.035705
2018-09-25T23:32:05.380220Z,0.310098,-1.033575,1.438713
2018-09-25T23:32:05.579220Z,0.771221,-1.397775,0.524284
2018-09-25T23:32:05.783220Z,1.830925,-1.067109,0.242919
2018-09-25T23:32:05.982220Z,1.332812,-1.14306,1.099435
2018-09-25T23:32:06.187220Z,0.118183,-0.625624,-0.221142
2018-09-25T23:32:06.368220Z,0.24627399999999997,-0.448506,-0.013500999999999999
2018-09-25T23:32:06.571220Z,-0.5716180000000001,-0.5622,0.811587
2018-09-25T23:32:06.787220Z,-0.776363,-0.74074,-0.243694
2018-09-25T23:32:06.970220Z,-1.370775,-0.510544,0.016862000000000002
2018-09-25T23:32:07.183220Z,-0.806343,-0.22828800000000002,-0.45133599999999996
2018-09-25T23:32:07.385220Z,-1.783064,-0.039785,0.512001
2018-09-25T23:32:07.584220Z,-1.554941,-1.532594,-0.478742
2018-09-25T23:32:07.783220Z,-0.820142,-0.554802,0.18790199999999999
2018-09-25T23:32:07.999220Z,-0.444837,-0.389815,0.06226
2018-09-25T23:32:08.184220Z,-1.839089,-1.140668,0.8764649999999999
2018-09-25T23:32:08.385220Z,0.322351,-0.266912,-0.418667
2018-09-25T23:32:08.586220Z,1.383217,0.143262,0.660007
2018-09-25T23:32:08.784220Z,1.29283,0.253618,0.673817
2018-09-25T23:32:08.989220Z,1.531554,0.027902,-0.885826
2018-09-25T23:32:09.191220Z,-0.064871,0.649566,0.14753
2018-09-25T23:32:09.385220Z,-0.765737,-0.334337,1.2677200000000002
2018-09-25T23:32:09.587220Z,-0.503021,-0.510999,-0.29623
2018-09-25T23:32:09.785220Z,0.379664,-0.14513399999999999,-0.910467
2018-09-25T23:32:09.999220Z,0.815925,0.847197,1.137214
2018-09-25T23:32:10.188220Z,2.3588400000000003,-0.746826,1.310848
2018-09-25T23:32:10.385220Z,1.594292,-0.06628400000000001,-1.496051
2018-09-25T23:32:10.581220Z,0.778022,0.08860900000000001,-0.595644
2018-09-25T23:32:10.785220Z,-0.365606,0.065,0.44388999999999995
2018-09-25T23:32:10.990220Z,-0.24080700000000002,-0.792409,-0.581327
2018-09-25T23:32:11.190220Z,-0.17381,0.284376,-0.51167
2018-09-25T23:32:11.373220Z,0.52554,0.25099299999999997,0.9777299999999999
2018-09-25T23:32:11.572220Z,0.098942,-0.898783,-0.9758819999999999
2018-09-25T23:32:11.773220Z,0.047365,0.224846,-0.454309
2018-09-25T23:32:11.973220Z,-0.074796,0.6218279999999999,0.7444189999999999
2018-09-25T23:32:12.175220Z,-0.30286,-0.084675,0.31119
2018-09-25T23:32:12.385220Z,0.056572000000000004,-0.097063,-1.14297
2018-09-25T23:32:12.588220Z,-0.353471,0.137499,0.46145
2018-09-25T23:32:12.791220Z,-0.006101,0.040621,0.731945
2018-09-25T23:32:12.991220Z,1.1164020000000001,-1.111516,0.464983
2018-09-25T23:32:13.191220Z,0.152595,-0.16955,0.034562999999999997
2018-09-25T23:32:13.390220Z,-0.091501,0.223115,1.0169030000000001
2018-09-25T23:32:13.574220Z,-1.7008580000000002,-1.323467,0.628884
2018-09-25T23:32:13.795220Z,0.807469,-0.9618049999999999,-0.046350999999999996
2018-09-25T23:32:13.974220Z,0.209081,-0.117852,0.709267
2018-09-25T23:32:14.192220Z,-3.8e-05,-0.658352,0.304965
2018-09-25T23:32:14.435220Z,0.6150399999999999,-0.210883,-0.5344260000000001
2018-09-25T23:32:14.590220Z,-0.8367319999999999,0.084368,0.06629299999999999
2018-09-25T23:32:14.786220Z,0.357408,-0.665216,-0.044683999999999995
2018-09-25T23:32:14.990220Z,-0.07959,-0.700729,0.21059099999999997
2018-09-25T23:32:15.190220Z,-0.694933,-0.17360899999999999,-0.125577
2018-09-25T23:32:15.403220Z,-1.357,-0.047647,-0.130676
2018-09-25T23:32:15.590220Z,-1.514253,0.030713,-0.173408
2018-09-25T23:32:15.794220Z,-0.39957800000000004,0.326119,-0.420285
2018-09-25T23:32:15.995220Z,0.280066,0.595915,0.35880500000000004
2018-09-25T23:32:16.192220Z,0.135312,0.49720299999999995,0.5184439999999999
2018-09-25T23:32:16.395220Z,0.704216,-0.376965,-0.339574
2018-09-25T23:32:16.592220Z,0.682571,0.006716,-0.7320979999999999
2018-09-25T23:32:16.786220Z,0.345918,1.060569,-0.729504
2018-09-25T23:32:16.990220Z,-0.014994,0.6543140000000001,1.256433
2018-09-25T23:32:17.191220Z,0.19148199999999999,-0.8907299999999999,-1.0487389999999999
2018-09-25T23:32:17.392220Z,0.07963300000000001,0.21166500000000002,-0.671121
2018-09-25T23:32:17.594220Z,-0.07036,0.768763,0.539555
2018-09-25T23:32:17.795220Z,-0.323151,0.253521,0.761545
2018-09-25T23:32:17.996220Z,0.012604,-1.063962,-0.400001
2018-09-25T23:32:18.192220Z,0.541181,0.003933,-0.61427
2018-09-25T23:32:18.389220Z,0.70717,0.542932,0.573671
2018-09-25T23:32:18.597220Z,1.365334,-0.748635,1.443591
2018-09-25T23:32:18.823220Z,1.690798,-1.181665,-0.12779300000000002
2018-09-25T23:32:18.992220Z,0.211037,-0.361702,-0.317994
2018-09-25T23:32:19.197220Z,-0.46006800000000003,0.161442,0.511498
2018-09-25T23:32:19.397220Z,-0.082601,-0.968642,1.23806
2018-09-25T23:32:19.597220Z,0.146294,-1.217307,0.07094500000000001
2018-09-25T23:32:19.790220Z,-0.275658,-0.791274,-0.204473
2018-09-25T23:32:19.995220Z,-0.866251,-0.034888999999999996,-0.777551
2018-09-25T23:32:20.198220Z,-2.434877,-1.240756,0.865742
2018-09-25T23:32:20.394220Z,-2.450699,-2.822884,0.183554
2018-09-25T23:32:20.594220Z,-0.437567,-1.7846240000000002,0.668311
2018-09-25T23:32:20.781220Z,0.220067,-1.308124,0.550179
2018-09-25T23:32:20.995220Z,-0.251209,-1.136003,0.446272
2018-09-25T23:32:21.198220Z,1.8987740000000002,0.179056,0.230688
2018-09-25T23:32:21.392220Z,2.024969,0.338054,-0.461185
2018-09-25T23:32:21.593220Z,1.476624,0.8810620000000001,-0.299369
2018-09-25T23:32:21.800220Z,0.651271,0.68614,0.813793
2018-09-25T23:32:22.000220Z,0.907223,0.208002,-0.42487299999999995
2018-09-25T23:32:22.229220Z,0.45112299999999994,0.450058,-1.111321
2018-09-25T23:32:22.397220Z,-0.030645,0.41371,1.1603370000000002
2018-09-25T23:32:22.595220Z,1.0820809999999998,-0.236554,0.8882459999999999
2018-09-25T23:32:22.793220Z,0.74452,0.260468,-1.049417
2018-09-25T23:32:22.994220Z,0.395541,0.6180979999999999,0.625406
2018-09-25T23:32:23.201220Z,-0.9017809999999999,-0.203403,1.818128
2018-09-25T23:32:23.399220Z,1.148837,-1.162457,-0.8672040000000001
2018-09-25T23:32:23.583220Z,0.735874,0.293116,-0.285594
2018-09-25T23:32:23.799220Z,0.21736100000000003,0.47124099999999997,0.969093
2018-09-25T23:32:23.996220Z,2.054854,-0.863041,0.8453459999999999
2018-09-25T23:32:24.196220Z,1.714961,-0.319673,-0.565945
2018-09-25T23:32:24.398220Z,1.410548,-0.669442,1.7161819999999999
2018-09-25T23:32:24.592220Z,1.128234,-1.3709799999999999,0.722498
2018-09-25T23:32:24.784220Z,0.91774,-1.090849,0.106885
2018-09-25T23:32:25.001220Z,0.20522100000000001,-0.277808,-0.414078
2018-09-25T23:32:25.184220Z,-0.197853,-0.384175,0.9860540000000001
2018-09-25T23:32:25.383220Z,0.731745,-2.15371,1.2185860000000002
2018-09-25T23:32:25.583220Z,0.324364,-1.277012,-1.329966
2018-09-25T23:32:25.784220Z,0.46401099999999995,-0.560567,0.660852
2018-09-25T23:32:25.985220Z,-0.051172,-1.185426,1.812787
2018-09-25T23:32:26.283220Z,0.43815699999999996,-1.550237,0.256442
2018-09-25T23:32:26.393220Z,0.438258,-0.666633,-0.103557
2018-09-25T23:32:26.599220Z,0.6219640000000001,0.219596,0.02642
2018-09-25T23:32:26.785220Z,0.309685,-0.48389399999999994,1.1172950000000001
2018-09-25T23:32:27.001220Z,0.82776,-1.34219,0.236485
2018-09-25T23:32:27.203220Z,0.604233,-0.720019,-0.33113200000000004
2018-09-25T23:32:27.405220Z,0.365246,-0.06214,0.333523
2018-09-25T23:32:27.603220Z,-0.563659,-0.806457,0.6962430000000001
2018-09-25T23:32:27.785220Z,0.19129300000000002,-0.5740529999999999,-1.334962
2018-09-25T23:32:28.005220Z,0.22423400000000002,0.176845,0.24018699999999998
2018-09-25T23:32:28.186220Z,0.619727,0.027688,2.0445130000000002
2018-09-25T23:32:28.387220Z,0.740805,-0.9945950000000001,-1.4984540000000002
2018-09-25T23:32:28.595220Z,0.184256,0.21175500000000003,-0.147095
2018-09-25T23:32:28.786220Z,0.511195,1.272738,1.8276
2018-09-25T23:32:28.989220Z,0.199977,-1.223014,0.75026
2018-09-25T23:32:29.187220Z,-0.185952,0.240162,0.536317
2018-09-25T23:32:29.387220Z,0.2501,0.5088020000000001,0.882689
2018-09-25T23:32:29.601220Z,0.867498,-2.166317,0.098083
2018-09-25T23:32:29.797220Z,0.496467,-0.711691,-1.546931
2018-09-25T23:32:30.001220Z,-0.42326199999999997,-0.658924,2.487108
2018-09-25T23:32:30.210220Z,0.22430799999999998,-1.299542,-1.7976900000000002
2018-09-25T23:32:30.401220Z,0.290752,-0.29733000000000004,-1.413517
2018-09-25T23:32:30.607220Z,-0.333913,0.658351,2.373191
2018-09-25T23:32:30.804220Z,0.9743069999999999,-0.5535479999999999,-2.89765
2018-09-25T23:32:30.998220Z,0.064625,0.09867100000000001,0.971872
2018-09-25T23:32:31.206220Z,-0.59933,-1.012054,2.1419479999999997
2018-09-25T23:32:31.403220Z,0.2446,-1.6250040000000001,-0.250802
2018-09-25T23:32:31.611220Z,0.374931,0.20751599999999998,0.866858
2018-09-25T23:32:31.789220Z,1.482225,-0.702883,1.72338
2018-09-25T23:32:32.012220Z,1.6408900000000002,-1.7311150000000002,-0.231461
2018-09-25T23:32:32.239220Z,1.357475,-1.466289,-0.185367
2018-09-25T23:32:32.389220Z,2.091989,-1.50631,1.337552
2018-09-25T23:32:32.590220Z,1.366431,-0.741358,-0.614244
2018-09-25T23:32:32.803220Z,-0.041809,-0.275281,0.082587
2018-09-25T23:32:33.004220Z,-0.306168,-0.582495,1.163437
2018-09-25T23:32:33.245220Z,-0.113001,-0.8312940000000001,-1.1650340000000001
2018-09-25T23:32:33.428220Z,0.16261099999999998,0.017199000000000002,0.396753
2018-09-25T23:32:33.591220Z,-0.9208850000000001,-0.599754,1.389001
2018-09-25T23:32:33.792220Z,-0.170023,-1.3248,0.37464200000000003
2018-09-25T23:32:33.992220Z,0.09794800000000001,-0.328862,0.009977
2018-09-25T23:32:34.235220Z,-0.10896099999999999,-0.504596,1.340783
2018-09-25T23:32:34.471220Z,0.24763400000000002,-0.927163,0.753551
2018-09-25T23:32:34.602220Z,-0.300266,-1.221644,-0.6455350000000001
2018-09-25T23:32:34.807220Z,-0.06528400000000001,0.209325,0.024915
2018-09-25T23:32:34.995220Z,0.132892,0.5035810000000001,0.104675
2018-09-25T23:32:35.207220Z,-0.14916400000000002,-0.701412,1.542399
2018-09-25T23:32:35.405220Z,-0.15508,-1.266174,-0.616884
2018-09-25T23:32:35.606220Z,0.034617,0.43223,-0.156918
2018-09-25T23:32:35.806220Z,0.22903099999999998,0.26355500000000004,0.947364
2018-09-25T23:32:36.009220Z,0.5079899999999999,-0.28556,0.291594
2018-09-25T23:32:36.202220Z,0.608768,-0.469875,-0.944399
2018-09-25T23:32:36.393220Z,0.21905,0.597834,0.5806720000000001
2018-09-25T23:32:36.610220Z,0.131754,-0.346161,1.621138
2018-09-25T23:32:36.831220Z,-0.247973,-1.1210959999999999,-0.7803
2018-09-25T23:32:37.006220Z,-0.059837,-0.486389,-0.963874
2018-09-25T23:32:37.208220Z,-0.170929,0.008983,0.45079600000000003
2018-09-25T23:32:37.403220Z,0.078099,-0.92158,1.129506
2018-09-25T23:32:37.608220Z,0.6815680000000001,-0.609904,-1.247161
2018-09-25T23:32:37.808220Z,0.10325,0.464372,-0.680772
2018-09-25T23:32:38.010220Z,0.119816,-0.206554,0.887655
2018-09-25T23:32:38.214220Z,-0.401793,-0.8275110000000001,0.217052
2018-09-25T23:32:38.422220Z,-0.320268,-0.32187,-1.325691
2018-09-25T23:32:38.608220Z,-0.112695,0.6152340000000001,0.785593
2018-09-25T23:32:38.809220Z,0.494749,-0.948923,-0.63067
2018-09-25T23:32:39.006220Z,0.049967000000000004,-0.28529099999999996,-0.751901
2018-09-25T23:32:39.204220Z,-0.010812,0.425887,-0.00928
2018-09-25T23:32:39.394220Z,0.152642,0.709616,0.852734
2018-09-25T23:32:39.614220Z,0.561901,-1.4941360000000001,-0.009433
2018-09-25T23:32:39.796220Z,0.672832,-0.53841,-0.9547950000000001
2018-09-25T23:32:40.013220Z,-0.140559,0.36842600000000003,0.44637200000000005
2018-09-25T23:32:40.213220Z,-0.239914,0.5335529999999999,0.9520700000000001
2018-09-25T23:32:40.397220Z,0.34428600000000004,-1.218913,0.30082
2018-09-25T23:32:40.620220Z,-0.005082,-0.687293,-0.597843
2018-09-25T23:32:40.863220Z,0.091546,0.058526,-0.748935
2018-09-25T23:32:40.995220Z,-0.205973,0.470879,0.079582
2018-09-25T23:32:41.198220Z,-1.294416,-0.7708010000000001,0.6124470000000001
2018-09-25T23:32:41.407220Z,-0.935199,-0.782968,0.013183000000000002
2018-09-25T23:32:41.612220Z,-0.722022,0.327493,-1.090476
2018-09-25T23:32:41.812220Z,-0.656438,0.161386,0.7460289999999999
2018-09-25T23:32:42.015220Z,0.9043479999999999,-0.7895260000000001,1.178447
2018-09-25T23:32:42.215220Z,0.51777,-0.670938,-0.8969090000000001
2018-09-25T23:32:42.417220Z,0.012169,0.188139,-0.6032390000000001
2018-09-25T23:32:42.613220Z,0.6538229999999999,0.8751389999999999,0.6033970000000001
2018-09-25T23:32:42.816220Z,-0.048797,-0.776301,0.092801
2018-09-25T23:32:43.022220Z,-0.346465,-0.352256,-0.6718109999999999
2018-09-25T23:32:43.199220Z,-0.537263,0.523601,0.081772
2018-09-25T23:32:43.398220Z,0.170593,0.330554,0.7492439999999999
2018-09-25T23:32:43.609220Z,0.21893800000000002,-0.48141000000000006,-0.46261800000000003
2018-09-25T23:32:43.809220Z,-0.09549400000000001,0.46525,-0.975442
2018-09-25T23:32:44.015220Z,0.019761,1.113116,0.21608400000000003
2018-09-25T23:32:44.217220Z,-0.310068,0.42937600000000004,1.1516680000000001
2018-09-25T23:32:44.400220Z,-0.028939999999999997,-1.166772,-0.55424
2018-09-25T23:32:44.613220Z,0.038846,-0.277789,-0.988827
2018-09-25T23:32:44.815220Z,-0.18531,0.49583,0.8345239999999999
2018-09-25T23:32:45.013220Z,0.286869,0.25088,1.341964
2018-09-25T23:32:45.215220Z,0.633319,-0.035727999999999996,-0.522642
2018-09-25T23:32:45.413220Z,-0.22935999999999998,0.192429,-0.46172399999999997
2018-09-25T23:32:45.598220Z,0.308212,1.271565,0.24540399999999998
2018-09-25T23:32:45.813220Z,-0.380477,0.755189,0.689837
2018-09-25T23:32:46.000220Z,0.031800999999999996,-0.814557,-0.721961
2018-09-25T23:32:46.217220Z,0.25506,0.261533,-0.54777
2018-09-25T23:32:46.419220Z,0.258185,-0.066811,0.768154
2018-09-25T23:32:46.600220Z,0.23295,-0.5026079999999999,0.8583559999999999
2018-09-25T23:32:46.811220Z,0.244598,-0.08284,-1.042054
2018-09-25T23:32:47.010220Z,0.067436,0.74271,0.32769499999999996
2018-09-25T23:32:47.218220Z,-0.385965,0.198747,1.377389
2018-09-25T23:32:47.415220Z,-1.087481,-1.510443,0.054778
2018-09-25T23:32:47.616220Z,-0.369313,0.041803,-1.147068
2018-09-25T23:32:47.814220Z,-0.6698,0.120847,1.049716
2018-09-25T23:32:48.021220Z,0.346492,0.055424,0.5287
2018-09-25T23:32:48.202220Z,1.111748,-0.948428,-0.104323
2018-09-25T23:32:48.403220Z,0.618557,0.511079,-0.06589600000000001
2018-09-25T23:32:48.603220Z,0.308763,0.786747,1.051567
2018-09-25T23:32:48.821220Z,-0.14051,-0.7117020000000001,0.537085
2018-09-25T23:32:49.015220Z,0.087448,-0.606959,-0.6880189999999999
2018-09-25T23:32:49.203220Z,-0.092691,0.324292,0.085979
2018-09-25T23:32:49.447220Z,0.373498,-0.505128,-0.055749
2018-09-25T23:32:49.621220Z,-0.20712600000000003,-0.59907,0.270596
2018-09-25T23:32:49.818220Z,-0.85882,-0.5511689999999999,-0.658557
2018-09-25T23:32:50.004220Z,-1.471,-0.569303,0.789944
2018-09-25T23:32:50.214220Z,-1.668304,-0.482946,-0.94532
2018-09-25T23:32:50.404220Z,-0.915143,-0.507247,0.48908500000000005
2018-09-25T23:32:50.618220Z,-0.45428599999999997,-0.017922,0.32691
2018-09-25T23:32:50.822220Z,0.992291,0.170414,1.118044
2018-09-25T23:32:51.021220Z,0.921034,-0.152739,-1.5531110000000001
2018-09-25T23:32:51.224220Z,0.5197039999999999,0.5729989999999999,-1.293297
2018-09-25T23:32:51.422220Z,0.291576,1.0121790000000002,0.8683069999999999
2018-09-25T23:32:51.620220Z,0.145,-1.4508370000000002,-0.405055
2018-09-25T23:32:51.819220Z,0.580128,-0.53855,-0.8583559999999999
2018-09-25T23:32:52.005220Z,0.360165,-0.019216,-0.197127
2018-09-25T23:32:52.219220Z,0.448248,0.016091,1.414488
2018-09-25T23:32:52.415220Z,-0.529632,0.080871,-0.216403
2018-09-25T23:32:52.620220Z,-0.656783,0.302873,0.353759
2018-09-25T23:32:52.819220Z,-0.770799,-0.39668600000000004,0.6356689999999999
2018-09-25T23:32:53.016220Z,-0.842685,-0.589541,-0.494729
2018-09-25T23:32:53.225220Z,-0.299448,0.3962,0.10736300000000001
2018-09-25T23:32:53.424220Z,0.682675,0.409127,0.802724
2018-09-25T23:32:53.625220Z,1.084249,-0.5868800000000001,0.967549
2018-09-25T23:32:53.817220Z,1.5816379999999999,-0.282658,-0.544374
2018-09-25T23:32:54.027220Z,1.183003,0.953656,0.23374099999999998
2018-09-25T23:32:54.224220Z,1.915888,-0.271642,0.90061
2018-09-25T23:32:54.425220Z,1.471127,-1.560051,0.063157
2018-09-25T23:32:54.617220Z,2.796218,-0.282077,0.243004
2018-09-25T23:32:54.824220Z,0.200073,0.136654,0.226241
2018-09-25T23:32:55.022220Z,-0.367052,0.582723,-0.21451399999999998
2018-09-25T23:32:55.226220Z,-0.387496,0.779566,-0.46652899999999997
2018-09-25T23:32:55.435220Z,0.117846,-0.786663,1.007682
2018-09-25T23:32:55.624220Z,0.34943,-2.046975,-0.5721109999999999
2018-09-25T23:32:55.822220Z,-0.099595,-1.272368,0.590274
2018-09-25T23:32:56.023220Z,0.283792,-0.601489,0.261736
2018-09-25T23:32:56.223220Z,0.620721,0.631142,0.34408099999999997
2018-09-25T23:32:56.426220Z,-0.564416,0.138045,-0.436008
2018-09-25T23:32:56.621220Z,-0.589316,-0.164144,0.936117
2018-09-25T23:32:56.828220Z,0.20463199999999998,-0.850392,-1.095704
2018-09-25T23:32:57.022220Z,0.316231,-0.231402,-0.760709
2018-09-25T23:32:57.224220Z,0.491137,-1.6508880000000001,1.487627
2018-09-25T23:32:57.422220Z,1.195942,-1.295894,-0.696508
2018-09-25T23:32:57.621220Z,0.264704,-1.153425,0.222448
2018-09-25T23:32:57.820220Z,-0.486721,-0.004696,-0.82229
2018-09-25T23:32:58.024220Z,-0.217588,0.179532,1.437406
2018-09-25T23:32:58.227220Z,-0.128511,-0.777729,0.407289
2018-09-25T23:32:58.425220Z,-0.095213,-0.616735,-0.726326
2018-09-25T23:32:58.629220Z,-0.191648,-0.392997,-0.08053300000000001
2018-09-25T23:32:58.830220Z,-0.11399400000000001,-1.306438,0.197739
2018-09-25T23:32:59.039220Z,-0.14039300000000002,-0.770724,-1.053258
2018-09-25T23:32:59.211220Z,-1.00116,-0.285873,0.55043
2018-09-25T23:32:59.425220Z,-1.8372549999999999,-0.6531359999999999,0.980619
2018-09-25T23:32:59.622220Z,-0.455697,-1.441285,-0.6047819999999999
2018-09-25T23:32:59.827220Z,-0.050677,-0.126252,-0.15606
2018-09-25T23:33:00.026220Z,0.258625,-0.103861,0.670652
2018-09-25T23:33:00.229220Z,0.813018,-1.1311870000000002,1.6569720000000001
2018-09-25T23:33:00.430220Z,0.071952,0.826051,-0.9526319999999999
2018-09-25T23:33:00.706220Z,0.466837,1.000089,-0.40670500000000004
2018-09-25T23:33:00.812220Z,-0.507221,0.22860999999999998,2.1000970000000003
2018-09-25T23:33:01.036220Z,-0.413764,-1.089941,0.056729999999999996
2018-09-25T23:33:01.213220Z,0.10950499999999999,0.013953,-0.412171
2018-09-25T23:33:01.431220Z,-0.187605,0.286893,0.226014
2018-09-25T23:33:01.625220Z,0.500229,-0.594805,1.00247
2018-09-25T23:33:01.830220Z,0.523308,-0.7082109999999999,-0.274162
2018-09-25T23:33:02.032220Z,-0.771688,0.561183,0.7781060000000001
2018-09-25T23:33:02.230220Z,-0.638289,-0.928736,0.560203
2018-09-25T23:33:02.431220Z,0.42653100000000005,-0.428624,-1.207785
2018-09-25T23:33:02.666220Z,0.388077,0.476968,-1.0547030000000002
2018-09-25T23:33:02.827220Z,0.314573,-0.164305,1.229827
2018-09-25T23:33:03.054220Z,0.720788,-0.406869,-1.6589990000000001
2018-09-25T23:33:03.225220Z,0.11098499999999999,0.059262,-0.763968
2018-09-25T23:33:03.428220Z,-0.031657,1.620008,0.34425900000000004
2018-09-25T23:33:03.632220Z,-0.18020999999999998,-1.45014,-0.447334
2018-09-25T23:33:03.834220Z,-0.342089,-0.41806000000000004,-0.696032
2018-09-25T23:33:04.034220Z,-0.596404,0.5472239999999999,0.46855399999999997
2018-09-25T23:33:04.227220Z,-0.526054,0.34628000000000003,1.140418
2018-09-25T23:33:04.459220Z,-0.410469,-1.0391780000000002,-0.744985
2018-09-25T23:33:04.626220Z,-1.047518,-0.8431200000000001,0.78937
2018-09-25T23:33:04.830220Z,-1.1475520000000001,-1.808619,1.0795620000000001
2018-09-25T23:33:05.030220Z,0.49071400000000004,-1.073112,0.293147
2018-09-25T23:33:05.230220Z,1.035657,0.278928,0.700105
2018-09-25T23:33:05.439220Z,0.9194530000000001,0.089335,0.966743
2018-09-25T23:33:05.617220Z,1.325696,-0.21591999999999997,-0.40575900000000004
2018-09-25T23:33:05.833220Z,1.045287,0.23339899999999997,-0.280439
2018-09-25T23:33:06.031220Z,0.703058,1.737334,-0.279742
2018-09-25T23:33:06.234220Z,-0.515675,0.538201,0.881034
2018-09-25T23:33:06.436220Z,-0.202568,-0.55787,0.285636
2018-09-25T23:33:06.634220Z,0.645849,-1.078351,-0.521304
2018-09-25T23:33:06.836220Z,0.7832720000000001,-0.031047,-0.230413
2018-09-25T23:33:07.035220Z,0.8220649999999999,0.062707,0.297547
2018-09-25T23:33:07.220220Z,0.944851,-0.5001,0.591857
2018-09-25T23:33:07.430220Z,0.21056799999999998,-1.837286,1.262839
2018-09-25T23:33:07.633220Z,0.651203,0.31506300000000004,-0.476866
2018-09-25T23:33:07.833220Z,0.6136189999999999,0.034466000000000004,0.018603
2018-09-25T23:33:08.025220Z,1.03138,-0.101287,-0.425378
2018-09-25T23:33:08.234220Z,0.543673,-0.017313,0.24091300000000002
2018-09-25T23:33:08.435220Z,0.40834699999999996,-0.020956,-0.662365
2018-09-25T23:33:08.633220Z,-0.415558,-0.064131,0.077861
2018-09-25T23:33:08.832220Z,-1.367052,-0.282053,-0.535524
2018-09-25T23:33:09.037220Z,-1.060729,-0.219746,-0.25104699999999996
2018-09-25T23:33:09.237220Z,1.076208,0.324015,1.2111370000000001
2018-09-25T23:33:09.437220Z,1.893916,-0.091223,0.271276
2018-09-25T23:33:09.636220Z,2.069445,-0.087469,-1.352076
2018-09-25T23:33:09.820220Z,1.3406209999999998,0.378634,-0.407319
2018-09-25T23:33:10.031220Z,0.162494,-0.6954899999999999,1.562519
2018-09-25T23:33:10.235220Z,0.191921,-0.921054,-0.18259
2018-09-25T23:33:10.434220Z,0.526347,-0.7337520000000001,-0.25846399999999997
2018-09-25T23:33:10.636220Z,-0.555425,0.212635,-0.42734099999999997
2018-09-25T23:33:10.846220Z,0.52496,-1.7299790000000002,0.304885
2018-09-25T23:33:11.022220Z,0.568344,-0.8853479999999999,0.185722
2018-09-25T23:33:11.229220Z,-0.177235,-0.10490799999999999,0.319374
2018-09-25T23:33:11.440220Z,-1.052629,-0.42439399999999994,-0.193985
2018-09-25T23:33:11.620220Z,2.374547,0.170268,-0.891874
2018-09-25T23:33:11.824220Z,1.045703,0.5116930000000001,0.35447399999999996
2018-09-25T23:33:12.037220Z,0.47296000000000005,0.26297,1.6757970000000002
2018-09-25T23:33:12.239220Z,-0.105621,-0.061604,1.943688
2018-09-25T23:33:12.440220Z,0.755035,-0.253128,-1.243731
2018-09-25T23:33:12.641220Z,0.259236,-0.873117,0.915451
2018-09-25T23:33:12.840220Z,0.810718,-0.448384,1.203429
2018-09-25T23:33:13.023220Z,1.052535,-0.207494,-1.313291
2018-09-25T23:33:13.246220Z,-0.16400599999999999,0.800779,-0.023551
2018-09-25T23:33:13.436220Z,-1.5998780000000001,-0.445496,1.453143
2018-09-25T23:33:13.636220Z,-0.9068809999999999,-1.6847419999999997,-0.114534
2018-09-25T23:33:13.836220Z,-0.11678699999999999,-0.641223,-1.102127
2018-09-25T23:33:14.037220Z,0.22781700000000002,0.9735149999999999,0.49431899999999995
2018-09-25T23:33:14.241220Z,0.29062899999999997,-0.523323,1.3531959999999998
2018-09-25T23:33:14.460220Z,0.951111,-0.7675270000000001,-0.442801
2018-09-25T23:33:14.632220Z,0.689291,-0.092918,-0.880942
2018-09-25T23:33:14.822220Z,0.625421,0.738993,-1.131038
2018-09-25T23:33:15.030220Z,-0.48323299999999997,-0.086025,1.877175
2018-09-25T23:33:15.226220Z,-1.6783540000000001,-2.362654,1.118288
2018-09-25T23:33:15.431220Z,-0.71685,-1.797598,-0.32632
2018-09-25T23:33:15.623220Z,0.368273,-0.473106,0.458838
2018-09-25T23:33:15.844220Z,0.8573649999999999,-0.648835,-0.167446
2018-09-25T23:33:16.042220Z,1.2885719999999998,-0.147814,0.27855599999999997
2018-09-25T23:33:16.239220Z,0.9790559999999999,0.365191,-0.8128529999999999
2018-09-25T23:33:16.434220Z,0.489803,0.9164979999999999,1.0879889999999999
2018-09-25T23:33:16.641220Z,-0.09561900000000001,-0.592599,0.9246190000000001
2018-09-25T23:33:16.839220Z,0.45893599999999996,-0.7836529999999999,-0.910093
2018-09-25T23:33:17.036220Z,0.44257700000000005,-0.361476,-0.9635319999999999
2018-09-25T23:33:17.225220Z,1.181318,-0.421155,1.278612
2018-09-25T23:33:17.444220Z,1.55288,-0.261705,-0.44781099999999996
2018-09-25T23:33:17.644220Z,1.64642,-0.507542,0.033735
2018-09-25T23:33:17.888220Z,1.010569,0.907402,-1.2666600000000001
2018-09-25T23:33:18.041220Z,0.32873,-0.880782,0.7941699999999999
2018-09-25T23:33:18.240220Z,0.709096,-0.719201,-0.70131
2018-09-25T23:33:18.439220Z,0.6569010000000001,0.08960900000000001,-0.200875
2018-09-25T23:33:18.638220Z,-0.583012,0.8199059999999999,0.37268
2018-09-25T23:33:18.826220Z,1.289377,-0.059495000000000006,-0.668031
2018-09-25T23:33:19.044220Z,1.027612,0.133832,-0.56776
2018-09-25T23:33:19.243220Z,0.315259,-0.032177,1.541375
2018-09-25T23:33:19.437220Z,0.783734,-1.336892,1.8719569999999999
2018-09-25T23:33:19.638220Z,0.565475,-0.230814,-0.199383
2018-09-25T23:33:19.827220Z,0.751939,0.228296,0.8385950000000001
2018-09-25T23:33:20.050220Z,0.5602590000000001,-0.729718,1.096482
2018-09-25T23:33:20.239220Z,0.791981,-0.498986,-0.695055
2018-09-25T23:33:20.441220Z,0.03075,0.054393,1.1159
2018-09-25T23:33:20.637220Z,-0.138431,-0.700083,1.2383
2018-09-25T23:33:20.843220Z,-0.036205,-0.981543,-0.834573
2018-09-25T23:33:21.032220Z,-0.115784,-0.61063,-0.48090600000000006
2018-09-25T23:33:21.232220Z,-0.013496000000000001,-0.347668,1.1753870000000002
2018-09-25T23:33:21.434220Z,0.06612,-1.122162,0.051154000000000005
2018-09-25T23:33:21.630220Z,0.295967,-0.11832899999999999,-0.168431
2018-09-25T23:33:21.843220Z,0.175022,-0.044589,-0.06251
2018-09-25T23:33:22.044220Z,0.118591,-0.974259,-0.224735
2018-09-25T23:33:22.242220Z,0.037712999999999997,-0.5485899999999999,-0.218662
2018-09-25T23:33:22.450220Z,0.187864,0.22233899999999998,-0.100137
2018-09-25T23:33:22.648220Z,-0.08819600000000001,-0.12833599999999998,1.410696
2018-09-25T23:33:22.849220Z,0.341533,-1.365193,-0.33579000000000003
2018-09-25T23:33:23.048220Z,0.474641,-0.714345,-0.066403
2018-09-25T23:33:23.244220Z,0.498471,0.15158,0.366117
2018-09-25T23:33:23.445220Z,-0.027884,-0.736842,1.295907
2018-09-25T23:33:23.646220Z,0.741618,-0.6792560000000001,-0.24516500000000002
2018-09-25T23:33:23.843220Z,0.24651900000000002,-0.144872,-0.267861
2018-09-25T23:33:24.030220Z,-0.305675,-1.0912030000000001,1.635122
2018-09-25T23:33:24.245220Z,0.027257,-0.4468,-0.002999
2018-09-25T23:33:24.450220Z,0.387384,-0.069009,0.020019
2018-09-25T23:33:24.649220Z,0.237006,0.543602,0.950991
2018-09-25T23:33:24.883220Z,-0.107491,-1.111465,0.530133
2018-09-25T23:33:25.061220Z,-0.328117,-1.655014,0.5225350000000001
2018-09-25T23:33:25.245220Z,0.502576,-0.18317,-0.347146
2018-09-25T23:33:25.443220Z,-0.020509,0.548496,0.629488
2018-09-25T23:33:25.647220Z,0.24919299999999997,-0.790188,1.357335
2018-09-25T23:33:25.850220Z,1.407091,-1.01965,-0.9124260000000001
2018-09-25T23:33:26.050220Z,0.28962899999999997,-0.151256,0.22780999999999998
2018-09-25T23:33:26.259220Z,0.165354,-0.596191,1.286224
2018-09-25T23:33:26.432220Z,0.958152,-1.6049209999999998,-0.14253
2018-09-25T23:33:26.643220Z,1.149973,-0.676096,-1.098643
2018-09-25T23:33:26.849220Z,2.282045,-1.143664,2.044461
2018-09-25T23:33:27.048220Z,2.39208,-1.789351,-0.586596
2018-09-25T23:33:27.248220Z,1.364824,-0.9205409999999999,0.02733
2018-09-25T23:33:27.453220Z,0.68011,-0.177872,0.6513720000000001
2018-09-25T23:33:27.652220Z,-0.29833200000000004,-2.079939,0.09165
2018-09-25T23:33:27.848220Z,0.13259400000000002,-0.729464,-0.615159
2018-09-25T23:33:28.045220Z,0.078023,0.100449,0.363148
2018-09-25T23:33:28.234220Z,0.23400700000000002,-0.056499,0.8604790000000001
2018-09-25T23:33:28.446220Z,0.296482,-0.9518709999999999,-0.92099
2018-09-25T23:33:28.648220Z,0.515608,-0.111275,-0.815284
2018-09-25T23:33:28.849220Z,-0.001999,0.44905900000000004,1.779353
2018-09-25T23:33:29.036220Z,-0.331899,-0.725544,0.7631600000000001
2018-09-25T23:33:29.276220Z,0.241218,-0.41834899999999997,-0.271228
2018-09-25T23:33:29.477220Z,0.419013,-0.443974,0.5791390000000001
2018-09-25T23:33:29.675220Z,0.650596,-0.9587709999999999,0.689815
2018-09-25T23:33:29.836220Z,0.527001,-0.773361,-1.011655
2018-09-25T23:33:30.037220Z,0.053064,0.311707,0.9933209999999999
2018-09-25T23:33:30.276220Z,-0.648043,-0.791796,1.089426
2018-09-25T23:33:30.473220Z,0.123173,-1.3834110000000002,-0.469354
2018-09-25T23:33:30.636220Z,0.1594,-1.014742,-0.283463
2018-09-25T23:33:30.847220Z,-0.20006400000000002,0.272489,0.8828440000000001
2018-09-25T23:33:31.051220Z,0.031161,-0.883396,1.028677
2018-09-25T23:33:31.251220Z,0.43023199999999995,0.10901400000000001,-0.48386
2018-09-25T23:33:31.455220Z,0.546724,-0.530593,-0.342708
2018-09-25T23:33:31.648220Z,-0.040487999999999996,-0.083732,0.553307
2018-09-25T23:33:31.851220Z,-0.082488,-1.084018,0.580968
2018-09-25T23:33:32.050220Z,0.379132,-0.448292,-1.100587
2018-09-25T23:33:32.249220Z,0.544007,0.049116,-0.38308600000000004
2018-09-25T23:33:32.453220Z,0.9047360000000001,-0.154645,0.9236110000000001
2018-09-25T23:33:32.656220Z,1.282024,-0.928643,-0.5608529999999999
2018-09-25T23:33:32.856220Z,0.800237,0.076811,-0.666818
2018-09-25T23:33:33.058220Z,-0.237154,1.077242,0.6943630000000001
2018-09-25T23:33:33.256220Z,-0.826418,-1.0248959999999998,0.13935799999999998
2018-09-25T23:33:33.450220Z,-0.181325,-0.805814,-0.496692
2018-09-25T23:33:33.649220Z,-0.9704659999999999,-0.307076,0.05107
2018-09-25T23:33:33.854220Z,-1.856611,-1.205098,0.889908
2018-09-25T23:33:34.038220Z,-0.9858450000000001,-2.126158,-0.217493
2018-09-25T23:33:34.249220Z,1.007719,-1.214385,0.04943
2018-09-25T23:33:34.453220Z,2.297315,1.5516590000000001,-0.323314
2018-09-25T23:33:34.654220Z,1.077872,1.7044669999999997,0.06218099999999999
2018-09-25T23:33:34.859220Z,-0.334529,-0.250191,0.07736900000000001
2018-09-25T23:33:35.067220Z,-0.127718,0.099631,-0.411384
2018-09-25T23:33:35.256220Z,0.069925,0.9572370000000001,-0.51659
2018-09-25T23:33:35.450220Z,-0.21389299999999997,0.892632,0.382454
2018-09-25T23:33:35.651220Z,-0.7334350000000001,-1.176863,0.464872
2018-09-25T23:33:35.841220Z,-0.68205,-1.191499,-1.038913
2018-09-25T23:33:36.056220Z,0.158228,-0.209894,-0.143272
2018-09-25T23:33:36.256220Z,0.851513,0.599399,0.394376
2018-09-25T23:33:36.459220Z,0.456207,-0.45704700000000004,1.0872620000000002
2018-09-25T23:33:36.656220Z,0.6249170000000001,-0.235348,-1.017205
2018-09-25T23:33:36.858220Z,0.898691,0.162975,0.06085700000000001
2018-09-25T23:33:37.059220Z,1.232676,0.38398000000000004,0.773882
2018-09-25T23:33:37.260220Z,1.61263,-0.00386,-1.088956
2018-09-25T23:33:37.475220Z,1.102584,-0.105558,-1.233906
2018-09-25T23:33:37.654220Z,-0.816474,0.866289,1.502975
2018-09-25T23:33:37.855220Z,-0.13774,-1.0341129999999998,2.021421
2018-09-25T23:33:38.052220Z,0.368738,-0.24811399999999997,-0.42662
2018-09-25T23:33:38.256220Z,0.53072,0.347933,0.217707
2018-09-25T23:33:38.459220Z,1.381006,0.280906,1.369887
2018-09-25T23:33:38.662220Z,1.418663,-0.886375,-0.200999
2018-09-25T23:33:38.860220Z,0.688684,0.124722,0.243432
2018-09-25T23:33:39.060220Z,0.145171,-0.149973,1.6953049999999998
2018-09-25T23:33:39.307220Z,0.22242699999999999,-0.73435,-0.675359
2018-09-25T23:33:39.456220Z,0.022413,-0.6411899999999999,-0.733416
2018-09-25T23:33:39.666220Z,1.323916,0.016722,1.524907
2018-09-25T23:33:39.858220Z,1.173029,-0.651514,-0.9832110000000001
2018-09-25T23:33:40.058220Z,0.563823,-0.21821100000000002,-0.815209
2018-09-25T23:33:40.245220Z,0.6214390000000001,0.727399,0.314617
2018-09-25T23:33:40.462220Z,-0.332762,-0.604139,-0.30391799999999997
2018-09-25T23:33:40.657220Z,0.8320629999999999,-0.4356,-1.087382
2018-09-25T23:33:40.846220Z,0.27215500000000004,-0.020413,0.25750100000000004
2018-09-25T23:33:41.045220Z,0.503984,0.765896,1.242292
2018-09-25T23:33:41.260220Z,0.9760270000000001,-0.67048,-0.704196
2018-09-25T23:33:41.457220Z,0.847758,0.06632300000000001,-1.156101
2018-09-25T23:33:41.660220Z,0.539767,1.4322540000000001,0.529732
2018-09-25T23:33:41.864220Z,-1.116681,0.131958,1.9598419999999999
2018-09-25T23:33:42.064220Z,0.561814,-0.9061030000000001,-1.115616
2018-09-25T23:33:42.312220Z,0.7533340000000001,0.331843,-0.661401
2018-09-25T23:33:42.458220Z,0.941766,-0.32408200000000004,2.532731
2018-09-25T23:33:42.661220Z,1.7209729999999999,-1.609665,0.163991
2018-09-25T23:33:42.862220Z,0.855187,-0.13026600000000002,-0.12096900000000001
2018-09-25T23:33:43.046220Z,0.805859,0.287988,0.66118
2018-09-25T23:33:43.261220Z,0.227756,0.219788,0.422307
2018-09-25T23:33:43.466220Z,-1.31395,-1.7660810000000002,0.64551
2018-09-25T23:33:43.649220Z,0.160065,-0.018243000000000002,-0.056385000000000005
2018-09-25T23:33:43.936220Z,0.617516,-0.40998999999999997,1.015702
2018-09-25T23:33:44.059220Z,0.546471,-1.1482,0.3672
2018-09-25T23:33:44.277220Z,0.8584620000000001,-0.956015,-0.9538209999999999
2018-09-25T23:33:44.467220Z,0.313338,0.177644,1.226659
2018-09-25T23:33:44.662220Z,-0.48571899999999996,-0.215889,1.0418040000000002
2018-09-25T23:33:44.865220Z,-1.106324,-1.612853,-0.580873
2018-09-25T23:33:45.057220Z,0.309782,-1.042902,-0.692262
2018-09-25T23:33:45.258220Z,-0.191354,-0.406775,1.5789030000000002
2018-09-25T23:33:45.465220Z,0.8535149999999999,-1.115241,0.072978
2018-09-25T23:33:45.665220Z,0.031,-0.633748,-1.12176
2018-09-25T23:33:45.849220Z,0.326401,0.07938300000000001,-0.19629000000000002
2018-09-25T23:33:46.063220Z,-0.8679549999999999,-0.503305,0.586916
2018-09-25T23:33:46.263220Z,-0.084131,-1.023047,-0.512714
2018-09-25T23:33:46.464220Z,-0.10506199999999999,-0.045327,-0.678525
2018-09-25T23:33:46.668220Z,0.055876,0.5203399999999999,0.874742
2018-09-25T23:33:46.866220Z,0.569102,-0.8888940000000001,-1.12225
2018-09-25T23:33:47.060220Z,0.389986,0.10266600000000001,-0.7960189999999999
2018-09-25T23:33:47.264220Z,0.101995,0.8420979999999999,1.351897
2018-09-25T23:33:47.466220Z,-0.58632,-0.397378,0.8452040000000001
2018-09-25T23:33:47.659220Z,-0.075891,-0.010516,-0.9527030000000001
2018-09-25T23:33:47.864220Z,0.116166,0.919323,0.739355
2018-09-25T23:33:48.071220Z,0.222124,-0.28321199999999996,1.984132
2018-09-25T23:33:48.270220Z,1.219166,-1.3566690000000001,-1.274802
2018-09-25T23:33:48.468220Z,0.11607100000000001,0.516922,0.356013
2018-09-25T23:33:48.670220Z,-0.579104,0.09160800000000001,1.243939
2018-09-25T23:33:48.870220Z,-0.271309,-0.8863219999999999,-0.567611
2018-09-25T23:33:49.067220Z,-0.35049600000000003,-1.017314,-0.015864
2018-09-25T23:33:49.265220Z,0.396884,0.15773099999999998,1.021206
2018-09-25T23:33:49.465220Z,0.575886,-1.189079,0.32307800000000003
2018-09-25T23:33:49.651220Z,-0.399998,0.30553,-1.432984
2018-09-25T23:33:49.851220Z,0.047458,-0.41688800000000004,0.335082
2018-09-25T23:33:50.052220Z,-0.680351,-0.538081,0.125469
2018-09-25T23:33:50.266220Z,0.095177,-0.259772,-0.9717040000000001
2018-09-25T23:33:50.478220Z,0.029486000000000002,0.271437,-0.687236
2018-09-25T23:33:50.665220Z,-0.028964,0.68398,1.2255209999999999
2018-09-25T23:33:50.854220Z,0.339973,-0.961224,-0.905711
2018-09-25T23:33:51.068220Z,0.14793399999999998,0.047998,-1.190057
2018-09-25T23:33:51.275220Z,-0.050544,0.772471,0.619876
2018-09-25T23:33:51.471220Z,-0.835909,0.155972,1.4387809999999999
2018-09-25T23:33:51.673220Z,0.201353,-0.658515,-1.064656
2018-09-25T23:33:51.876220Z,0.349429,0.06996799999999999,-0.430755
2018-09-25T23:33:52.067220Z,0.552035,0.5216029999999999,1.5736059999999998
2018-09-25T23:33:52.272220Z,1.8415279999999998,-1.3825,1.27211
2018-09-25T23:33:52.468220Z,1.7698909999999999,-0.881128,0.059477999999999996
2018-09-25T23:33:52.671220Z,0.626347,0.047536,0.560422
2018-09-25T23:33:52.872220Z,-0.677449,-1.504508,1.6469479999999999
2018-09-25T23:33:53.074220Z,0.187112,-1.479123,-0.152501
2018-09-25T23:33:53.271220Z,0.28873499999999996,0.044855,0.269696
2018-09-25T23:33:53.470220Z,0.276888,-0.949498,1.157999
