Datetime,accx,accy,accz
2018-10-20T18:42:51.715040Z,-0.347595,0.21557600000000002,-0.334473
2018-10-20T18:42:51.915040Z,-0.635803,0.232239,0.12353499999999999
2018-10-20T18:42:52.116040Z,-0.08630399999999999,0.199158,-0.286011
2018-10-20T18:42:52.515040Z,-0.712708,0.7243649999999999,0.051575
2018-10-20T18:42:52.715040Z,-0.460266,0.647766,-0.782166
2018-10-20T18:42:52.916040Z,-1.323242,0.7600100000000001,-0.780701
2018-10-20T18:42:53.116040Z,-0.701782,0.661926,0.06189
2018-10-20T18:42:53.314040Z,-0.138245,-1.205627,1.5196530000000001
2018-10-20T18:42:53.514040Z,0.732483,-1.384155,-0.170776
2018-10-20T18:42:53.713040Z,0.63739,-0.567505,0.008362
2018-10-20T18:42:53.914040Z,0.594666,-1.3348389999999999,-1.234375
2018-10-20T18:42:54.113040Z,0.015381,-2.539124,1.595703
2018-10-20T18:42:54.314040Z,0.144897,-2.0032959999999997,0.8864139999999999
2018-10-20T18:42:54.524040Z,0.45062299999999994,-1.119446,-0.291321
2018-10-20T18:42:54.714040Z,0.940735,-0.612305,1.8363040000000002
2018-10-20T18:42:54.914040Z,0.60144,-0.817688,-0.136963
2018-10-20T18:42:55.115040Z,0.8471069999999999,0.039795,0.41876199999999997
2018-10-20T18:42:55.315040Z,0.085815,0.7485350000000001,-3.242371
2018-10-20T18:42:55.516040Z,0.5112300000000001,0.100708,-0.34259
2018-10-20T18:42:55.715040Z,0.43878199999999995,0.09149199999999999,-0.10022
2018-10-20T18:42:55.915040Z,0.431946,0.27813699999999997,0.074402
2018-10-20T18:42:56.118040Z,0.14898699999999998,0.069458,-0.198486
2018-10-20T18:42:56.322040Z,0.43633999999999995,0.276733,0.06475800000000001
2018-10-20T18:42:56.525040Z,0.668701,0.190063,-0.272949
2018-10-20T18:42:56.714040Z,0.066223,0.21844499999999997,0.15118399999999999
2018-10-20T18:42:56.914040Z,0.068604,-0.020203,0.306213
2018-10-20T18:42:57.114040Z,0.449829,0.06323200000000001,-0.450317
2018-10-20T18:42:57.401040Z,0.598755,-0.102234,-0.364319
2018-10-20T18:42:57.514040Z,-0.059509000000000006,-0.183533,-0.673523
2018-10-20T18:42:57.717040Z,0.183472,-0.086243,-0.29931599999999997
2018-10-20T18:42:57.916040Z,0.206421,-0.000305,-0.405457
2018-10-20T18:42:58.114040Z,0.443604,0.343567,-0.883972
2018-10-20T18:42:58.314040Z,0.8765870000000001,1.023376,-0.809265
2018-10-20T18:42:58.514040Z,0.682617,1.3828120000000002,0.092529
2018-10-20T18:42:58.714040Z,0.14325,0.8297120000000001,-0.686462
2018-10-20T18:42:58.915040Z,-0.191772,-1.895447,-0.9626459999999999
2018-10-20T18:42:59.114040Z,-0.645691,-1.2612299999999999,-1.592407
2018-10-20T18:42:59.323040Z,-0.457397,0.111877,-0.26123
2018-10-20T18:42:59.516040Z,0.531555,0.746521,0.803589
2018-10-20T18:42:59.719040Z,0.430725,-1.375,-0.21581999999999998
2018-10-20T18:42:59.915040Z,0.363831,0.076904,-1.014709
2018-10-20T18:43:00.115040Z,0.322693,0.537048,-0.633179
2018-10-20T18:43:00.315040Z,-0.785095,-0.8658450000000001,1.776123
2018-10-20T18:43:00.514040Z,-1.449463,-2.095581,0.039734
2018-10-20T18:43:00.714040Z,-0.750977,-1.220703,-0.557922
2018-10-20T18:43:00.914040Z,-0.321899,-0.892517,0.7660520000000001
2018-10-20T18:43:01.176040Z,-0.066589,0.054138,0.425171
2018-10-20T18:43:01.314040Z,-0.821045,-1.3118290000000001,-1.0081790000000002
2018-10-20T18:43:01.514040Z,-0.757812,-0.525513,0.390991
2018-10-20T18:43:01.716040Z,-2.21582,0.03302,-1.1761469999999998
2018-10-20T18:43:01.914040Z,-1.987915,1.318726,0.36730999999999997
2018-10-20T18:43:02.115040Z,-2.209595,0.287231,-0.7032470000000001
2018-10-20T18:43:02.315040Z,-0.625977,-0.725403,0.856873
2018-10-20T18:43:02.515040Z,-0.198914,-1.185425,-2.16394
2018-10-20T18:43:02.714040Z,-0.58429,0.647766,0.202209
2018-10-20T18:43:02.915040Z,-0.812134,-0.036682,1.16095
2018-10-20T18:43:03.116040Z,-0.978577,-1.861877,1.2036129999999998
2018-10-20T18:43:03.339040Z,-1.220032,-1.487671,-1.088074
2018-10-20T18:43:03.515040Z,-0.200928,0.12548800000000002,-0.055237
2018-10-20T18:43:03.714040Z,-2.373169,-1.9182130000000002,1.96405
2018-10-20T18:43:03.917040Z,-0.859253,-0.52179,-0.108948
2018-10-20T18:43:04.114040Z,-0.791565,0.09967000000000001,0.390137
2018-10-20T18:43:04.316040Z,-0.033202999999999996,0.209351,-0.9829709999999999
2018-10-20T18:43:04.518040Z,0.779846,0.5316770000000001,-0.534485
2018-10-20T18:43:04.714040Z,1.0939940000000001,-0.560852,-0.9665530000000001
2018-10-20T18:43:04.914040Z,2.25647,2.463684,1.603699
2018-10-20T18:43:05.114040Z,-2.5047,-1.133057,1.200256
2018-10-20T18:43:05.314040Z,-0.555176,-2.2029419999999997,-0.9104610000000001
2018-10-20T18:43:05.514040Z,-0.256775,-0.768188,-0.645813
2018-10-20T18:43:05.715040Z,-0.09411599999999999,0.969849,-1.397766
2018-10-20T18:43:05.915040Z,0.5849,0.6908569999999999,0.438354
2018-10-20T18:43:06.115040Z,1.579834,-0.842407,0.338379
2018-10-20T18:43:06.315040Z,-0.554932,-0.5358890000000001,-3.679993
2018-10-20T18:43:06.518040Z,0.771606,0.364624,-0.253052
2018-10-20T18:43:06.715040Z,1.216492,0.015747,-0.295532
2018-10-20T18:43:06.920040Z,1.082031,0.23663299999999998,-0.619568
2018-10-20T18:43:07.115040Z,0.47753900000000005,0.592834,-0.076843
2018-10-20T18:43:07.314040Z,1.118347,0.987671,-0.202515
2018-10-20T18:43:07.514040Z,-0.20282,0.671509,1.826538
2018-10-20T18:43:07.714040Z,-2.004028,-0.7657470000000001,1.377686
2018-10-20T18:43:07.914040Z,-1.343933,-0.13555899999999999,-0.284851
2018-10-20T18:43:08.314040Z,-0.886719,1.651184,-0.614746
2018-10-20T18:43:08.513040Z,-0.32409699999999997,1.07074,-0.72937
2018-10-20T18:43:08.714040Z,-2.162964,-0.288879,1.964722
2018-10-20T18:43:08.986040Z,-0.811157,-1.128418,-0.192688
2018-10-20T18:43:09.114040Z,-1.195618,0.037415,1.2379149999999999
2018-10-20T18:43:09.315040Z,-0.38500999999999996,-0.8538819999999999,0.158997
2018-10-20T18:43:09.516040Z,-1.3901370000000002,-1.123474,-0.509949
2018-10-20T18:43:09.715040Z,-1.5512700000000001,-0.034973000000000004,-0.17572000000000002
2018-10-20T18:43:09.916040Z,-1.7840580000000001,1.039246,-0.268005
2018-10-20T18:43:10.117040Z,-1.334534,0.8937379999999999,1.193909
2018-10-20T18:43:10.322040Z,0.351929,-1.6184690000000002,-1.074524
2018-10-20T18:43:10.515040Z,0.592529,0.174744,-1.5783690000000001
2018-10-20T18:43:10.714040Z,-0.729492,1.003784,0.063416
2018-10-20T18:43:10.915040Z,-1.105164,0.047363,0.133179
2018-10-20T18:43:11.116040Z,-1.388733,-1.051208,-0.18457
2018-10-20T18:43:11.318040Z,-1.139343,-0.634583,-0.725464
2018-10-20T18:43:11.513040Z,-0.334595,1.043884,1.9927979999999998
2018-10-20T18:43:11.714040Z,-1.353394,-0.033936,1.1431879999999999
2018-10-20T18:43:11.914040Z,-1.293213,-1.123718,-0.169128
2018-10-20T18:43:12.114040Z,-1.117981,0.227356,-0.39318800000000004
2018-10-20T18:43:12.365040Z,0.303894,0.11444100000000001,1.539795
2018-10-20T18:43:12.516040Z,-0.112427,-0.517517,-0.949707
2018-10-20T18:43:12.718040Z,-1.010376,-0.43286099999999994,0.423096
2018-10-20T18:43:12.921040Z,-1.506775,0.6580199999999999,0.49853500000000006
2018-10-20T18:43:13.115040Z,-1.468018,0.480713,-0.033691000000000006
2018-10-20T18:43:13.315040Z,-0.360596,1.454224,-0.761841
2018-10-20T18:43:13.514040Z,-0.69165,1.083618,0.416687
2018-10-20T18:43:13.717040Z,1.5894780000000002,-1.098328,-0.19927999999999998
2018-10-20T18:43:13.925040Z,1.218384,0.342346,-1.612549
2018-10-20T18:43:14.116040Z,-0.873291,1.380371,0.330261
2018-10-20T18:43:14.316040Z,-1.350647,-1.196472,-0.33886700000000003
2018-10-20T18:43:14.514040Z,-1.204285,-0.704712,-1.234924
2018-10-20T18:43:14.714040Z,-1.027405,-0.040588,-0.527771
2018-10-20T18:43:14.934040Z,-1.032776,-0.44470200000000004,2.454895
2018-10-20T18:43:15.114040Z,-0.750305,-0.741821,0.384094
2018-10-20T18:43:15.314040Z,0.723572,0.107117,-0.9387209999999999
2018-10-20T18:43:15.514040Z,0.08862300000000001,1.312927,-0.38305700000000004
2018-10-20T18:43:15.723040Z,0.028198,0.30938699999999997,1.138672
2018-10-20T18:43:15.927040Z,-0.634338,-1.665405,-0.321777
2018-10-20T18:43:16.116040Z,-1.526062,-0.190735,-1.164917
2018-10-20T18:43:16.315040Z,-0.625366,0.677002,-0.567383
2018-10-20T18:43:16.515040Z,-0.45605500000000004,-0.836182,0.774963
2018-10-20T18:43:16.715040Z,-0.221802,0.040405,-1.140686
2018-10-20T18:43:16.915040Z,-0.305298,0.912292,0.548035
2018-10-20T18:43:17.115040Z,0.66864,-1.5874629999999998,-0.035583
2018-10-20T18:43:17.314040Z,-0.23797600000000002,-1.349792,-0.591553
2018-10-20T18:43:17.514040Z,-0.376709,-0.39502,-0.34863299999999997
2018-10-20T18:43:17.714040Z,-0.33624299999999996,-0.12371800000000001,-0.150574
2018-10-20T18:43:17.914040Z,-0.894958,-0.648193,1.231506
2018-10-20T18:43:18.114040Z,0.026733,-0.764709,-0.07366900000000001
2018-10-20T18:43:18.314040Z,0.313782,-0.55835,0.131226
2018-10-20T18:43:18.516040Z,-0.098694,-0.482666,0.252808
2018-10-20T18:43:18.714040Z,-0.091675,0.54071,-0.877136
2018-10-20T18:43:18.914040Z,0.131775,1.0576780000000001,-1.206299
2018-10-20T18:43:19.114040Z,-0.009094,0.8851319999999999,0.604065
2018-10-20T18:43:19.314040Z,-1.142456,-1.088684,0.829834
2018-10-20T18:43:19.514040Z,-0.76947,-0.21044899999999997,-0.595093
2018-10-20T18:43:19.789040Z,-0.223877,1.012451,-0.707947
2018-10-20T18:43:19.915040Z,-0.664917,-0.181824,1.593323
2018-10-20T18:43:20.117040Z,0.44635,-0.384094,-1.524475
2018-10-20T18:43:20.321040Z,-0.239258,0.773926,-0.019653
2018-10-20T18:43:20.514040Z,-0.301147,0.549622,-0.035338999999999995
2018-10-20T18:43:20.715040Z,-0.276062,-0.621887,-0.8197629999999999
2018-10-20T18:43:20.916040Z,-0.30090300000000003,-0.41656499999999996,-0.458557
2018-10-20T18:43:21.117040Z,-0.798767,0.49731400000000003,-0.250488
2018-10-20T18:43:21.514040Z,-0.665283,-0.17938199999999999,1.783691
2018-10-20T18:43:21.716040Z,-0.8200069999999999,-0.104675,-1.285583
2018-10-20T18:43:21.915040Z,-2.1670529999999997,-0.306396,-0.350159
2018-10-20T18:43:22.117040Z,-0.462769,0.159302,1.089905
2018-10-20T18:43:22.334040Z,-1.0158690000000001,-1.213867,1.584167
2018-10-20T18:43:22.514040Z,-1.687805,-1.53064,0.768616
2018-10-20T18:43:22.714040Z,-0.663391,-0.822876,-0.26855500000000004
2018-10-20T18:43:22.917040Z,-1.0511469999999998,0.150635,0.355469
2018-10-20T18:43:23.131040Z,-1.8168330000000001,0.008667,-0.948792
2018-10-20T18:43:23.314040Z,-1.237976,0.933838,0.295898
2018-10-20T18:43:23.514040Z,-0.34259,0.22143600000000002,0.002014
2018-10-20T18:43:23.716040Z,0.051514,-0.9038700000000001,-0.660339
2018-10-20T18:43:23.915040Z,0.687805,0.681519,-1.3889770000000001
2018-10-20T18:43:24.114040Z,-0.34570300000000004,1.781006,-0.6115109999999999
2018-10-20T18:43:24.315040Z,-1.420166,0.218018,2.3286130000000003
2018-10-20T18:43:24.545040Z,-1.364563,-1.100647,-1.30188
2018-10-20T18:43:24.727040Z,-1.645203,0.496155,-0.44244399999999995
2018-10-20T18:43:24.914040Z,-1.1723629999999998,-0.48724399999999995,1.483154
2018-10-20T18:43:25.114040Z,-1.437134,-0.127441,-0.347656
2018-10-20T18:43:25.319040Z,-1.483582,0.672058,-0.242981
2018-10-20T18:43:25.517040Z,-2.015564,0.32373,1.160706
2018-10-20T18:43:25.721040Z,-1.29187,-1.137634,-0.69342
2018-10-20T18:43:25.915040Z,-0.405029,0.301636,-0.927673
2018-10-20T18:43:26.115040Z,-0.59613,-0.309875,0.246704
2018-10-20T18:43:26.315040Z,-1.262756,0.006287,-1.046265
2018-10-20T18:43:26.514040Z,-1.300781,0.9110719999999999,1.6148069999999999
2018-10-20T18:43:26.716040Z,-1.623291,-1.0584719999999999,0.40802
2018-10-20T18:43:26.915040Z,-1.805908,0.11871300000000001,-0.9457399999999999
2018-10-20T18:43:27.119040Z,-0.092407,1.3634030000000001,0.473145
2018-10-20T18:43:27.321040Z,-1.0944209999999999,0.078308,1.651184
2018-10-20T18:43:27.515040Z,-0.796875,-0.201965,-2.009583
2018-10-20T18:43:27.714040Z,-1.102783,1.4349370000000001,0.339539
2018-10-20T18:43:27.915040Z,-1.5930790000000001,-0.5297850000000001,0.914307
2018-10-20T18:43:28.115040Z,-1.511841,-0.84491,-1.5385739999999999
2018-10-20T18:43:28.315040Z,-0.48498500000000005,0.342773,-0.219421
2018-10-20T18:43:28.514040Z,-2.8109740000000003,-0.7409060000000001,4.651367
2018-10-20T18:43:28.715040Z,-1.1828,-0.9182739999999999,-1.204224
2018-10-20T18:43:28.928040Z,-1.621277,-0.769043,0.048401
2018-10-20T18:43:29.117040Z,-1.0844120000000002,-1.14978,-0.307861
2018-10-20T18:43:29.314040Z,-0.8255,-0.496033,-0.033752
2018-10-20T18:43:29.514040Z,-1.0576780000000001,0.235779,-0.044982999999999995
2018-10-20T18:43:29.714040Z,-0.441406,0.584961,-0.06957999999999999
2018-10-20T18:43:29.914040Z,-0.44213900000000006,0.371582,-0.238281
2018-10-20T18:43:30.114040Z,-0.116638,0.643188,-0.527832
2018-10-20T18:43:30.314040Z,0.297729,0.359863,0.27887
2018-10-20T18:43:30.514040Z,0.545288,-1.134644,-0.29657
2018-10-20T18:43:30.715040Z,0.8250120000000001,0.40325900000000003,-1.0523069999999999
2018-10-20T18:43:30.915040Z,0.485046,1.501282,-0.585693
2018-10-20T18:43:31.116040Z,0.486633,0.270081,1.26825
2018-10-20T18:43:31.315040Z,-0.651306,-2.107422,0.478149
2018-10-20T18:43:31.519040Z,-0.379333,-0.689453,-0.352722
2018-10-20T18:43:31.714040Z,0.038147,-0.2854,-0.898438
2018-10-20T18:43:31.915040Z,-0.401611,1.0635379999999999,-0.498596
2018-10-20T18:43:32.114040Z,-0.977295,-1.8857419999999998,3.182617
2018-10-20T18:43:32.314040Z,0.73407,-0.858093,-1.255554
2018-10-20T18:43:32.513040Z,0.453064,-0.586304,0.9468989999999999
2018-10-20T18:43:32.735040Z,1.253723,-0.5766600000000001,0.27002
2018-10-20T18:43:32.928040Z,0.180176,-0.623596,0.06897
2018-10-20T18:43:33.125040Z,0.5177609999999999,0.0672,-0.096252
2018-10-20T18:43:33.324040Z,1.792114,0.503296,-0.0037229999999999997
2018-10-20T18:43:33.530040Z,0.711731,0.308594,-0.451172
2018-10-20T18:43:33.729040Z,0.258728,1.648682,0.298584
2018-10-20T18:43:33.930040Z,-1.9940799999999999,-0.733704,0.280273
2018-10-20T18:43:34.125040Z,-1.038879,-0.783569,-0.16430699999999998
2018-10-20T18:43:34.324040Z,-0.8832399999999999,-0.016907,-1.028198
2018-10-20T18:43:34.524040Z,-0.298523,1.2254639999999999,-0.664307
2018-10-20T18:43:34.725040Z,0.022644,-0.294678,-0.51886
2018-10-20T18:43:34.924040Z,-0.704346,-0.302063,0.086487
2018-10-20T18:43:35.125040Z,-0.46154799999999996,0.295959,0.08038300000000001
2018-10-20T18:43:35.377040Z,1.069763,0.792725,0.15087899999999999
2018-10-20T18:43:35.531040Z,0.147034,0.484253,0.466736
2018-10-20T18:43:35.730040Z,-0.6427,-0.636658,-0.15802
2018-10-20T18:43:35.930040Z,-0.309021,-0.302979,-0.170044
2018-10-20T18:43:36.123040Z,-0.120422,0.8220209999999999,-0.36499000000000004
2018-10-20T18:43:36.323040Z,-0.397827,1.467834,0.7954100000000001
2018-10-20T18:43:36.525040Z,0.542114,-0.9261469999999999,-0.20697
2018-10-20T18:43:36.725040Z,1.117859,0.222656,-1.305847
2018-10-20T18:43:36.925040Z,0.300659,1.629211,0.061646000000000006
2018-10-20T18:43:37.324040Z,-0.282288,0.44873,1.090576
2018-10-20T18:43:37.524040Z,0.146729,-0.8848879999999999,0.220032
2018-10-20T18:43:37.724040Z,-1.3553469999999999,-0.353027,-3.528198
2018-10-20T18:43:37.924040Z,-0.078064,1.206482,-0.735229
2018-10-20T18:43:38.124040Z,-0.553711,-0.153809,1.4803469999999999
2018-10-20T18:43:38.326040Z,-0.80304,-0.705078,-0.587769
2018-10-20T18:43:38.523040Z,0.542053,0.7147220000000001,1.861816
2018-10-20T18:43:38.725040Z,0.785339,0.034363,-0.31427
2018-10-20T18:43:38.924040Z,0.169189,-0.7288819999999999,-0.388245
2018-10-20T18:43:39.124040Z,-0.462585,-0.25506599999999996,-0.477966
2018-10-20T18:43:39.324040Z,0.302673,0.817078,-0.757935
2018-10-20T18:43:39.549040Z,0.171753,-0.015808000000000003,0.922852
2018-10-20T18:43:39.729040Z,0.239441,0.07928500000000001,-1.919434
2018-10-20T18:43:39.923040Z,-0.684631,1.012268,0.9488530000000001
2018-10-20T18:43:40.125040Z,-0.847656,-0.5570069999999999,1.212341
2018-10-20T18:43:40.385040Z,-1.724609,-1.100525,0.32428
2018-10-20T18:43:40.524040Z,-0.531433,-0.487671,1.13269
2018-10-20T18:43:40.725040Z,-1.369995,-0.7887569999999999,0.669373
2018-10-20T18:43:40.925040Z,-1.174316,0.063721,-0.9530639999999999
2018-10-20T18:43:41.136040Z,-1.7894900000000002,0.177368,0.623718
2018-10-20T18:43:41.327040Z,-1.334534,-0.781738,-0.02887
2018-10-20T18:43:41.535040Z,-2.174744,0.08709700000000001,-0.9599
2018-10-20T18:43:41.727040Z,-0.979126,0.476501,1.001709
2018-10-20T18:43:41.924040Z,-0.45526099999999997,-1.220032,0.548279
2018-10-20T18:43:42.124040Z,-1.443726,0.395752,-0.6738890000000001
2018-10-20T18:43:42.324040Z,-1.6420290000000002,0.804871,0.406555
2018-10-20T18:43:42.524040Z,-2.22168,-1.002075,2.878662
2018-10-20T18:43:42.725040Z,-2.314392,-0.149231,-0.062561
2018-10-20T18:43:42.956040Z,-0.899109,0.404541,0.675171
2018-10-20T18:43:43.123040Z,-1.152527,1.107117,-1.094482
2018-10-20T18:43:43.324040Z,-2.239319,1.677429,-1.369141
2018-10-20T18:43:43.524040Z,-2.173523,1.346069,-0.308228
2018-10-20T18:43:43.725040Z,-1.180725,0.21936,-0.5783689999999999
2018-10-20T18:43:43.925040Z,0.321594,0.901001,-0.91571
2018-10-20T18:43:44.125040Z,-0.796326,1.864624,-0.674561
2018-10-20T18:43:44.325040Z,-0.542175,1.0610959999999998,-0.037108999999999996
2018-10-20T18:43:44.526040Z,-0.8858030000000001,-0.518494,-1.244507
2018-10-20T18:43:44.726040Z,-1.6779169999999999,-0.658203,-4.182251
2018-10-20T18:43:44.925040Z,-1.371765,-0.300476,0.226318
2018-10-20T18:43:45.125040Z,-0.980469,-0.6921390000000001,1.355042
2018-10-20T18:43:45.362040Z,-0.207031,0.36425799999999997,0.059387
2018-10-20T18:43:45.525040Z,-0.977356,0.42486599999999997,-0.35022
2018-10-20T18:43:45.724040Z,-1.151367,-0.095337,0.125671
2018-10-20T18:43:45.934040Z,-1.973816,0.13281199999999999,-0.129211
2018-10-20T18:43:46.126040Z,-2.302917,1.32782,0.102234
2018-10-20T18:43:46.324040Z,-0.9607540000000001,1.609314,-0.29632600000000003
2018-10-20T18:43:46.540040Z,0.630249,0.334229,1.078918
2018-10-20T18:43:46.724040Z,-1.383484,-0.838623,-0.209412
2018-10-20T18:43:46.927040Z,-0.602356,0.803589,-0.538696
2018-10-20T18:43:47.125040Z,-0.5504760000000001,0.646057,0.5878909999999999
2018-10-20T18:43:47.325040Z,-1.2753299999999999,-1.271606,0.8783569999999999
2018-10-20T18:43:47.528040Z,-1.426575,0.149048,-1.392395
2018-10-20T18:43:47.725040Z,-1.160706,0.934875,0.20318599999999998
2018-10-20T18:43:47.925040Z,-0.8974,-0.5939939999999999,0.81604
2018-10-20T18:43:48.126040Z,-0.910645,0.291077,-0.587341
2018-10-20T18:43:48.419040Z,-0.716064,1.413025,2.583557
2018-10-20T18:43:48.524040Z,-1.747314,-0.7877810000000001,0.902954
2018-10-20T18:43:48.727040Z,-2.675842,-0.374512,0.07696499999999999
2018-10-20T18:43:48.927040Z,-2.0539549999999998,0.730164,0.200317
2018-10-20T18:43:49.124040Z,-0.9085690000000001,1.142456,-0.748169
2018-10-20T18:43:49.324040Z,-0.877258,0.6016239999999999,0.139771
2018-10-20T18:43:49.525040Z,-0.46972700000000006,-0.368652,0.496338
2018-10-20T18:43:49.724040Z,-1.207886,0.269958,-0.6328739999999999
2018-10-20T18:43:49.924040Z,-0.174561,1.1519780000000002,-1.288269
2018-10-20T18:43:50.129040Z,-0.886841,-0.9646610000000001,0.169922
2018-10-20T18:43:50.331040Z,-1.139343,-0.338501,-0.036377
2018-10-20T18:43:50.530040Z,-1.106262,-0.169128,0.037903
2018-10-20T18:43:50.730040Z,-1.882324,0.86908,-0.7775880000000001
2018-10-20T18:43:50.925040Z,-1.686035,-0.381958,0.6921390000000001
2018-10-20T18:43:51.124040Z,-0.8046260000000001,-0.286194,0.052917
2018-10-20T18:43:51.324040Z,-0.682129,0.032776,0.371155
2018-10-20T18:43:51.526040Z,0.155579,0.254272,0.21600300000000003
2018-10-20T18:43:51.740040Z,-0.380859,-0.013366999999999999,0.143127
2018-10-20T18:43:52.128040Z,-1.456543,-0.161926,0.077637
2018-10-20T18:43:52.324040Z,-1.526184,-0.647583,0.37512199999999996
2018-10-20T18:43:52.524040Z,-0.41918900000000003,0.253296,-0.7867430000000001
2018-10-20T18:43:52.724040Z,-0.921082,0.9649049999999999,0.27313200000000004
2018-10-20T18:43:52.924040Z,-1.3070680000000001,0.521362,0.817322
2018-10-20T18:43:53.124040Z,0.715698,-0.491699,-0.914917
2018-10-20T18:43:53.323040Z,0.703857,0.730103,-1.180542
2018-10-20T18:43:53.524040Z,0.62146,1.399231,0.371094
2018-10-20T18:43:53.724040Z,-0.572876,0.310425,0.25195300000000004
2018-10-20T18:43:53.924040Z,-0.7226560000000001,-0.9017940000000001,0.180115
2018-10-20T18:43:54.125040Z,-0.332703,0.568665,-0.34692399999999995
2018-10-20T18:43:54.326040Z,-0.787659,0.73938,0.063171
2018-10-20T18:43:54.525040Z,-0.818176,-0.978943,0.290894
2018-10-20T18:43:54.737040Z,0.25945999999999997,-0.445984,-1.03064
2018-10-20T18:43:54.926040Z,-0.366028,0.814697,0.003296
2018-10-20T18:43:55.125040Z,-0.568665,-0.331665,0.743225
2018-10-20T18:43:55.326040Z,-0.811096,-1.047485,-0.302551
2018-10-20T18:43:55.524040Z,-0.641785,0.425354,-1.056152
2018-10-20T18:43:55.724040Z,0.44036899999999995,0.48913599999999996,0.712769
2018-10-20T18:43:55.924040Z,0.401306,-1.1651,0.048279
2018-10-20T18:43:56.124040Z,0.15478499999999998,0.39093,-1.229065
2018-10-20T18:43:56.324040Z,0.072327,0.9893190000000001,0.522095
2018-10-20T18:43:56.525040Z,-0.462769,-1.474243,0.160889
2018-10-20T18:43:56.724040Z,-0.062622,0.0014039999999999999,-0.193298
2018-10-20T18:43:56.924040Z,-0.08569299999999999,0.63208,-0.740662
2018-10-20T18:43:57.160040Z,-0.101074,-0.643372,1.298401
2018-10-20T18:43:57.328040Z,-1.0584719999999999,-0.289551,-1.196716
2018-10-20T18:43:57.528040Z,-0.441467,1.2817379999999998,0.140503
2018-10-20T18:43:57.725040Z,-0.950989,-0.23034699999999997,1.3481450000000001
2018-10-20T18:43:57.926040Z,-1.321655,-1.610107,-0.484436
2018-10-20T18:43:58.125040Z,-1.2470700000000001,-0.15124500000000002,-0.144348
2018-10-20T18:43:58.325040Z,0.44238299999999997,-0.5432739999999999,0.5268550000000001
2018-10-20T18:43:58.564040Z,-0.289429,-0.75531,0.039368
2018-10-20T18:43:58.725040Z,-1.6748049999999999,0.26355,0.525146
2018-10-20T18:43:58.924040Z,-3.8253779999999997,-1.244934,1.55249
2018-10-20T18:43:59.125040Z,-1.7294919999999998,-0.8441770000000001,-1.096741
2018-10-20T18:43:59.333040Z,-1.817078,0.131775,0.301331
2018-10-20T18:43:59.524040Z,-0.248962,-0.157349,0.320923
2018-10-20T18:43:59.724040Z,-1.102722,-1.328552,0.82135
2018-10-20T18:43:59.924040Z,-0.890503,0.670349,-0.42608599999999996
2018-10-20T18:44:00.124040Z,-1.127014,1.0142209999999998,0.44250500000000004
2018-10-20T18:44:00.324040Z,-0.885925,-0.839355,-1.3793950000000001
2018-10-20T18:44:00.528040Z,-1.215881,-0.322449,-0.489807
2018-10-20T18:44:00.724040Z,-0.9169309999999999,0.46051000000000003,0.687134
2018-10-20T18:44:00.925040Z,-0.291138,-0.590454,-0.739502
2018-10-20T18:44:01.126040Z,-0.786804,0.6487430000000001,-1.40741
2018-10-20T18:44:01.325040Z,-1.8394169999999999,1.037659,0.7906489999999999
2018-10-20T18:44:01.525040Z,-2.464355,-0.729309,0.11035199999999999
2018-10-20T18:44:01.726040Z,-1.495056,-0.577942,-1.8383180000000001
2018-10-20T18:44:01.924040Z,-1.6763310000000002,0.351196,0.05127
2018-10-20T18:44:02.124040Z,-2.0493770000000002,-0.35754400000000003,1.578308
2018-10-20T18:44:02.325040Z,-1.275208,0.32195999999999997,-0.9112549999999999
2018-10-20T18:44:02.558040Z,-0.7326050000000001,1.375732,0.954407
2018-10-20T18:44:02.724040Z,-1.2729489999999999,0.569275,0.276978
2018-10-20T18:44:02.924040Z,-2.428528,0.14111300000000002,-1.8275759999999999
2018-10-20T18:44:03.131040Z,-2.4338990000000003,0.676086,-0.6206050000000001
2018-10-20T18:44:03.333040Z,-1.014465,0.9526370000000001,-0.20165999999999998
2018-10-20T18:44:03.524040Z,-2.073975,0.513794,1.111572
2018-10-20T18:44:03.724040Z,-1.5224,0.47766099999999995,-1.280884
2018-10-20T18:44:03.926040Z,-1.079468,0.90509,0.109375
2018-10-20T18:44:04.124040Z,-0.1875,1.462097,-0.265198
2018-10-20T18:44:04.337040Z,-1.765381,-0.7361449999999999,-0.11444100000000001
2018-10-20T18:44:04.525040Z,-1.476379,0.604187,-2.215637
2018-10-20T18:44:04.725040Z,-0.72113,0.9844360000000001,-0.073608
2018-10-20T18:44:04.926040Z,-1.335632,-0.163635,0.510071
2018-10-20T18:44:05.325040Z,-1.523254,0.05835,-2.375427
2018-10-20T18:44:05.527040Z,-1.6805419999999998,2.040955,-0.365845
2018-10-20T18:44:05.725040Z,-2.084473,0.33905,3.029419
2018-10-20T18:44:05.925040Z,-0.868469,-0.798218,-1.9021
2018-10-20T18:44:06.124040Z,-1.3990479999999998,0.903015,-0.721985
2018-10-20T18:44:06.324040Z,0.19043,1.073059,0.42871099999999995
2018-10-20T18:44:06.532040Z,-1.812134,-0.5872189999999999,-4.385132
2018-10-20T18:44:06.724040Z,-1.512146,0.763672,-0.8479610000000001
2018-10-20T18:44:06.924040Z,-1.1102290000000001,1.312195,0.040527
2018-10-20T18:44:07.124040Z,-2.26416,-0.441284,0.92627
2018-10-20T18:44:07.325040Z,-1.261902,0.256897,0.272034
2018-10-20T18:44:07.524040Z,-1.023987,0.750061,0.671875
2018-10-20T18:44:07.729040Z,-0.544434,0.6525270000000001,-2.138
2018-10-20T18:44:07.929040Z,-0.940796,1.719543,-1.675598
2018-10-20T18:44:08.126040Z,-1.123413,1.6473389999999999,0.167969
2018-10-20T18:44:08.325040Z,-0.849426,0.38250700000000004,1.045776
2018-10-20T18:44:08.525040Z,-2.2059330000000004,-0.723633,-0.163452
2018-10-20T18:44:08.724040Z,-2.1690669999999996,1.161743,-0.217468
2018-10-20T18:44:08.926040Z,-1.138,1.939758,-0.32806399999999997
2018-10-20T18:44:09.125040Z,-2.901306,-0.0448,0.8624879999999999
2018-10-20T18:44:09.326040Z,-0.603638,0.385986,-1.348083
2018-10-20T18:44:09.533040Z,-1.011108,1.218811,-0.626709
2018-10-20T18:44:09.727040Z,-0.512329,0.568298,-0.088013
2018-10-20T18:44:09.925040Z,-0.41308599999999995,-0.435486,-0.562988
2018-10-20T18:44:10.124040Z,-1.488342,0.510315,-0.47936999999999996
2018-10-20T18:44:10.324040Z,-1.683777,1.237976,-1.03302
2018-10-20T18:44:10.526040Z,-0.23303200000000002,2.052551,-0.200073
2018-10-20T18:44:10.728040Z,0.00885,1.305542,-0.08843999999999999
2018-10-20T18:44:10.924040Z,1.030457,-0.8593139999999999,-0.505127
2018-10-20T18:44:11.125040Z,0.521423,0.596008,-1.1499629999999998
2018-10-20T18:44:11.326040Z,-0.413696,1.502441,0.063416
2018-10-20T18:44:11.525040Z,-0.892395,0.443604,1.614563
2018-10-20T18:44:11.725040Z,-1.5321040000000001,-1.158875,-0.128479
2018-10-20T18:44:11.931040Z,-1.071655,-0.682434,-0.7462770000000001
2018-10-20T18:44:12.124040Z,-0.463501,0.47210699999999994,-1.237183
2018-10-20T18:44:12.325040Z,-0.027527,0.31561300000000003,-0.397095
2018-10-20T18:44:12.527040Z,0.35083000000000003,-1.124451,0.459167
2018-10-20T18:44:12.725040Z,0.410767,0.9297489999999999,-0.330933
2018-10-20T18:44:12.925040Z,0.183533,0.9744870000000001,-0.11907999999999999
2018-10-20T18:44:13.124040Z,-1.714966,-0.80896,1.879028
2018-10-20T18:44:13.331040Z,-0.627441,-1.1640620000000002,-0.376221
2018-10-20T18:44:13.524040Z,0.14679,-0.435608,0.204773
2018-10-20T18:44:13.724040Z,-0.371399,0.47467,-0.108154
2018-10-20T18:44:13.927040Z,-0.08520499999999999,-0.663452,0.903198
2018-10-20T18:44:14.125040Z,-0.20282,-0.8436889999999999,-0.647461
2018-10-20T18:44:14.325040Z,-0.22894299999999998,0.167664,0.285889
2018-10-20T18:44:14.524040Z,-0.14856,0.10229500000000001,-0.2677
2018-10-20T18:44:14.724040Z,-0.293457,0.022095,-0.575562
2018-10-20T18:44:14.925040Z,-0.101685,0.36340300000000003,-0.305176
2018-10-20T18:44:15.127040Z,-0.148804,0.07482899999999999,-0.43859899999999996
2018-10-20T18:44:15.326040Z,-0.245667,0.311707,0.22845500000000002
2018-10-20T18:44:15.527040Z,-0.110779,0.33618200000000004,-0.20861799999999997
2018-10-20T18:44:15.727040Z,-0.11731,0.222717,-0.530457
2018-10-20T18:44:15.924040Z,-0.126038,0.15423599999999998,-0.333923
2018-10-20T18:44:16.124040Z,0.091797,0.495483,1.7483520000000001
2018-10-20T18:44:16.325040Z,-0.504578,0.15618900000000002,0.19805899999999999
2018-10-20T18:44:16.524040Z,-0.038757,0.14965799999999999,-0.047057999999999996
2018-10-20T18:44:16.724040Z,0.399231,0.254089,-0.294006
2018-10-20T18:44:16.924040Z,0.022949,0.236328,0.17791700000000002
2018-10-20T18:44:17.124040Z,-0.211914,0.22296100000000002,-0.036864999999999995
2018-10-20T18:44:17.324040Z,0.048096,-0.081787,-0.090088
2018-10-20T18:44:17.524040Z,0.18829300000000002,0.250977,-0.44061300000000003
2018-10-20T18:44:17.724040Z,-0.365723,-0.304077,-0.651062
2018-10-20T18:44:17.924040Z,0.461121,0.385803,0.20483400000000002
2018-10-20T18:44:18.140040Z,0.762939,0.751099,2.738159
2018-10-20T18:44:18.328040Z,-0.08618200000000001,-0.333252,0.294739
2018-10-20T18:44:18.725040Z,-0.010498,0.680603,-0.9531860000000001
2018-10-20T18:44:18.925040Z,0.641418,-0.052063,-0.660034
2018-10-20T18:44:19.126040Z,-0.5524899999999999,0.365295,-0.137695
2018-10-20T18:44:19.326040Z,0.5367430000000001,-0.296692,0.357056
2018-10-20T18:44:19.525040Z,-0.278503,1.455811,-0.7967529999999999
2018-10-20T18:44:19.725040Z,0.520142,2.5534060000000003,0.215637
2018-10-20T18:44:19.924040Z,0.13915999999999998,-0.681458,0.672729
2018-10-20T18:44:20.124040Z,-0.492493,-2.191223,-1.828552
2018-10-20T18:44:20.324040Z,0.233948,1.175842,0.291748
2018-10-20T18:44:20.524040Z,-0.13269,1.134033,-0.22033699999999998
2018-10-20T18:44:20.724040Z,-0.310425,-0.8344729999999999,0.21923800000000002
2018-10-20T18:44:20.924040Z,-0.39325,0.254456,-0.888489
2018-10-20T18:44:21.132040Z,-0.123169,0.715637,0.381592
2018-10-20T18:44:21.324040Z,0.207947,0.341248,1.8907470000000002
2018-10-20T18:44:21.524040Z,-0.775208,-0.828003,-0.788452
2018-10-20T18:44:21.726040Z,-0.700134,-0.567078,-0.049438
2018-10-20T18:44:21.924040Z,-0.021544999999999998,0.482361,1.044922
2018-10-20T18:44:22.124040Z,0.354919,-0.096375,-0.658997
2018-10-20T18:44:22.347040Z,-0.10424800000000001,-0.144043,-1.03064
2018-10-20T18:44:22.531040Z,-1.615601,-0.786621,-0.758301
2018-10-20T18:44:22.731040Z,0.47906499999999996,0.328796,-0.182312
2018-10-20T18:44:22.925040Z,0.341492,0.43115200000000004,-0.45697
2018-10-20T18:44:23.132040Z,0.10363800000000001,0.8394780000000001,0.174561
2018-10-20T18:44:23.324040Z,-2.356384,-1.24176,0.607544
2018-10-20T18:44:23.523040Z,-1.292725,-1.371277,-0.641296
2018-10-20T18:44:23.724040Z,-0.61615,0.26178,-0.48492399999999997
2018-10-20T18:44:23.927040Z,0.384888,-0.039612,0.474182
2018-10-20T18:44:24.124040Z,0.42492700000000005,-1.136902,-0.309692
2018-10-20T18:44:24.335040Z,-0.915588,-0.704163,0.430176
2018-10-20T18:44:24.524040Z,-0.179626,-0.53418,0.787964
2018-10-20T18:44:24.725040Z,-0.892151,-1.697815,0.830566
2018-10-20T18:44:24.925040Z,0.674744,-0.201599,-1.959412
2018-10-20T18:44:25.125040Z,-0.41674799999999995,0.414734,-0.08728
2018-10-20T18:44:25.327040Z,-0.743408,0.261719,-0.996948
2018-10-20T18:44:25.544040Z,-0.311646,0.290588,-0.720581
2018-10-20T18:44:25.732040Z,1.5016479999999999,-1.8876950000000001,-0.778015
2018-10-20T18:44:25.926040Z,1.0266110000000002,-1.8706049999999999,-0.576965
2018-10-20T18:44:26.124040Z,-0.13555899999999999,-1.493958,1.470032
2018-10-20T18:44:26.325040Z,1.110901,-0.580627,-0.308655
2018-10-20T18:44:26.524040Z,0.109009,1.5126950000000001,-0.571106
2018-10-20T18:44:26.725040Z,-1.783325,1.342651,-1.855286
2018-10-20T18:44:26.924040Z,-1.091675,1.608582,-0.25805700000000004
2018-10-20T18:44:27.124040Z,0.5919800000000001,1.670532,0.12506099999999998
2018-10-20T18:44:27.324040Z,1.505493,-1.0692139999999999,-0.600159
2018-10-20T18:44:27.527040Z,-0.334167,1.2276610000000001,0.058472
2018-10-20T18:44:27.724040Z,0.223694,1.1091309999999999,0.088318
2018-10-20T18:44:27.925040Z,-0.879883,-1.3515620000000002,0.9863280000000001
2018-10-20T18:44:28.124040Z,-0.882324,-0.76825,-0.388123
2018-10-20T18:44:28.338040Z,0.266663,-0.395752,-0.080872
2018-10-20T18:44:28.525040Z,-0.5502319999999999,-0.965576,0.698669
2018-10-20T18:44:28.725040Z,-0.9941409999999999,-0.622559,-0.193176
2018-10-20T18:44:28.925040Z,-0.555542,-0.169312,0.292236
2018-10-20T18:44:29.125040Z,0.006531,-0.696289,-0.8399049999999999
2018-10-20T18:44:29.325040Z,0.014893,-0.342102,-0.384155
2018-10-20T18:44:29.524040Z,-0.328369,-0.170593,0.721313
2018-10-20T18:44:29.726040Z,-0.65094,-0.643738,0.360779
2018-10-20T18:44:29.925040Z,-0.794922,0.012268000000000001,-0.044312
2018-10-20T18:44:30.125040Z,-0.664307,-0.394348,-0.318542
2018-10-20T18:44:30.403040Z,0.169312,-0.011719,0.6933590000000001
2018-10-20T18:44:30.524040Z,-0.7188720000000001,-0.35791,-0.41296400000000005
2018-10-20T18:44:30.724040Z,0.09716799999999999,-0.24945100000000003,0.186523
2018-10-20T18:44:30.925040Z,-0.387878,-0.076477,-0.352173
2018-10-20T18:44:31.324040Z,-0.304749,0.7153930000000001,-1.124268
2018-10-20T18:44:31.524040Z,-0.743225,1.139465,-0.409119
2018-10-20T18:44:31.724040Z,-0.861633,1.1160889999999999,-0.9819950000000001
2018-10-20T18:44:31.925040Z,0.594666,0.049377,0.242798
2018-10-20T18:44:32.124040Z,-0.7141109999999999,-2.1675419999999996,0.35638400000000003
2018-10-20T18:44:32.325040Z,-0.49823,-1.4692379999999998,-0.779663
2018-10-20T18:44:32.527040Z,-0.728271,-0.30743400000000004,1.252441
2018-10-20T18:44:32.822040Z,-1.220215,-2.605225,-1.141602
2018-10-20T18:44:32.926040Z,-1.740845,-1.5883180000000001,0.9664309999999999
2018-10-20T18:44:33.128040Z,-2.5314330000000003,-0.7147220000000001,0.310303
2018-10-20T18:44:33.328040Z,-2.872131,-0.22601300000000002,-0.42132600000000003
2018-10-20T18:44:33.525040Z,-1.720337,0.43218999999999996,-0.2052
2018-10-20T18:44:33.724040Z,-1.375977,-0.584106,2.5582279999999997
2018-10-20T18:44:33.924040Z,0.392761,-0.747925,-1.768188
2018-10-20T18:44:34.125040Z,-0.707214,-0.039978,-0.150085
2018-10-20T18:44:34.324040Z,-0.794067,-0.715942,2.104797
2018-10-20T18:44:34.532040Z,-1.158264,-1.448975,1.400513
2018-10-20T18:44:34.728040Z,-0.655151,-0.644409,-0.358765
2018-10-20T18:44:34.924040Z,0.294556,-1.236694,-0.07989500000000001
2018-10-20T18:44:35.124040Z,1.285767,-1.1621700000000001,1.010376
2018-10-20T18:44:35.324040Z,0.8609620000000001,-0.083923,-0.22833299999999998
2018-10-20T18:44:35.525040Z,0.680054,0.74884,0.063416
2018-10-20T18:44:35.727040Z,0.29284699999999997,0.607544,0.314392
2018-10-20T18:44:36.975040Z,-0.23968499999999998,-1.355164,0.24768099999999998
2018-10-20T18:44:36.981040Z,-0.744324,-0.221375,-1.4622190000000002
2018-10-20T18:44:36.987040Z,0.46106,0.669617,1.013855
2018-10-20T18:44:36.993040Z,1.152832,-1.3209229999999998,0.025939999999999998
2018-10-20T18:44:36.999040Z,0.284973,0.327148,-1.1735229999999999
2018-10-20T18:44:37.005040Z,-0.170593,0.765808,0.923767
2018-10-20T18:44:37.124040Z,-1.380737,-2.0612790000000003,0.7224729999999999
2018-10-20T18:44:37.325040Z,-0.762451,-1.9605709999999998,0.163635
2018-10-20T18:44:37.525040Z,-0.14856,-0.815063,0.6984859999999999
2018-10-20T18:44:37.724040Z,0.22229000000000002,-0.197998,0.082886
2018-10-20T18:44:37.924040Z,-1.529541,0.421875,-0.5780029999999999
2018-10-20T18:44:38.123040Z,-1.38446,0.588318,-0.197632
2018-10-20T18:44:38.323040Z,-0.837463,0.03009,-0.414734
2018-10-20T18:44:38.524040Z,-1.456177,0.226746,-0.32519499999999996
2018-10-20T18:44:38.724040Z,-0.233215,-0.9268190000000001,1.8894650000000002
2018-10-20T18:44:38.924040Z,-0.09021,-1.211182,-0.029785000000000002
2018-10-20T18:44:39.131040Z,-0.36322,-0.255737,-0.316711
2018-10-20T18:44:39.328040Z,-0.719971,0.10485799999999999,1.001831
2018-10-20T18:44:39.578040Z,-0.608826,-1.542542,-0.310791
2018-10-20T18:44:39.725040Z,-1.8671259999999998,-1.3760379999999999,-1.0202639999999998
2018-10-20T18:44:39.925040Z,-1.184021,-0.031616000000000005,-0.323669
2018-10-20T18:44:40.126040Z,-0.881042,0.349976,0.5314939999999999
2018-10-20T18:44:40.324040Z,0.127563,-1.196777,0.56134
2018-10-20T18:44:40.525040Z,-0.35498,-0.332947,-0.167664
2018-10-20T18:44:40.723040Z,0.8442379999999999,0.190369,1.516785
2018-10-20T18:44:40.925040Z,0.361633,-2.069702,0.9443360000000001
2018-10-20T18:44:41.124040Z,0.631958,-2.337891,-0.453979
2018-10-20T18:44:41.325040Z,-0.500549,-1.106567,0.45605500000000004
2018-10-20T18:44:41.526040Z,0.702942,-1.2047729999999999,1.514343
2018-10-20T18:44:41.724040Z,1.168579,-0.522034,-1.6876220000000002
2018-10-20T18:44:41.924040Z,1.5183719999999998,1.513306,0.553711
2018-10-20T18:44:42.124040Z,0.657104,1.3052979999999998,-0.315002
2018-10-20T18:44:42.325040Z,0.112061,-0.66272,-0.179871
2018-10-20T18:44:42.524040Z,-0.719666,-0.149475,-1.313477
2018-10-20T18:44:42.725040Z,0.167664,1.513123,-0.695312
2018-10-20T18:44:42.924040Z,-0.35742199999999996,0.148926,1.383789
2018-10-20T18:44:43.125040Z,0.5936279999999999,0.635376,-1.942993
2018-10-20T18:44:43.326040Z,0.5158689999999999,1.158264,-0.19134500000000002
2018-10-20T18:44:43.729040Z,1.326843,0.202454,-0.11969
2018-10-20T18:44:43.924040Z,-1.542419,-1.470093,1.593689
2018-10-20T18:44:44.129040Z,0.406067,-1.1129149999999999,-0.7252810000000001
2018-10-20T18:44:44.325040Z,1.312134,-0.32824699999999996,0.332336
2018-10-20T18:44:44.524040Z,1.9019169999999999,-1.8884279999999998,-0.81134
2018-10-20T18:44:44.724040Z,3.766296,0.9437260000000001,-0.048706
2018-10-20T18:44:44.924040Z,0.115784,2.766418,0.488159
2018-10-20T18:44:45.124040Z,-0.451416,1.208313,-1.3677979999999998
2018-10-20T18:44:45.323040Z,-0.848633,0.149841,-0.44055200000000005
2018-10-20T18:44:45.523040Z,0.022522,1.5951540000000002,-0.49408
2018-10-20T18:44:45.735040Z,-0.243835,1.732666,-1.675232
2018-10-20T18:44:45.927040Z,0.6152340000000001,0.8337399999999999,-0.952393
2018-10-20T18:44:46.125040Z,0.144897,0.630188,-0.46166999999999997
2018-10-20T18:44:46.324040Z,0.151428,1.995178,-1.331177
2018-10-20T18:44:46.525040Z,0.7437739999999999,2.303528,-0.389343
2018-10-20T18:44:46.725040Z,-1.2495120000000002,0.145874,1.360962
2018-10-20T18:44:46.932040Z,-0.175171,0.241577,-2.150696
2018-10-20T18:44:47.124040Z,-0.157898,1.434509,-0.058838
2018-10-20T18:44:47.324040Z,0.192749,2.2837520000000002,-0.8356319999999999
2018-10-20T18:44:47.551040Z,-1.460083,-0.453125,0.7619020000000001
2018-10-20T18:44:47.724040Z,-1.21698,-0.25854499999999997,-1.055908
2018-10-20T18:44:47.924040Z,-0.630676,0.376221,-0.561096
2018-10-20T18:44:48.129040Z,0.45025600000000005,0.027832,-1.483643
2018-10-20T18:44:48.324040Z,-0.141602,0.103577,-0.744751
2018-10-20T18:44:48.524040Z,0.018982,0.923218,0.169128
2018-10-20T18:44:48.724040Z,-0.370239,0.657349,-0.32629400000000003
2018-10-20T18:44:48.924040Z,-0.372498,0.555603,-0.8387450000000001
2018-10-20T18:44:49.131040Z,-0.331665,0.756409,-0.548401
2018-10-20T18:44:49.325040Z,0.08038300000000001,0.394348,-0.264648
2018-10-20T18:44:49.528040Z,-0.13623,0.351074,-0.40612800000000004
2018-10-20T18:44:49.734040Z,0.014832,0.374512,-0.752747
2018-10-20T18:44:49.924040Z,-0.41931199999999996,1.083374,-0.365173
2018-10-20T18:44:50.125040Z,0.164917,1.422058,-1.7050169999999998
2018-10-20T18:44:50.324040Z,-0.43884300000000004,1.976318,-0.688904
2018-10-20T18:44:50.525040Z,-0.237183,1.111084,0.50238
2018-10-20T18:44:50.725040Z,0.166687,-1.0726930000000001,-0.021544999999999998
2018-10-20T18:44:50.926040Z,0.360352,-0.016541,-1.243408
2018-10-20T18:44:51.176040Z,0.005981,-0.193848,-0.13153099999999998
2018-10-20T18:44:51.325040Z,-1.602966,-0.526367,-0.810242
2018-10-20T18:44:51.525040Z,-1.412903,-1.0181879999999999,-0.027832
2018-10-20T18:44:51.724040Z,-0.8726809999999999,-0.396912,-0.021240000000000002
2018-10-20T18:44:51.924040Z,-0.71405,-0.44970699999999997,-0.6624760000000001
2018-10-20T18:44:52.125040Z,-1.266907,1.017944,-0.741943
2018-10-20T18:44:52.324040Z,-1.9159549999999999,1.569397,-0.344971
2018-10-20T18:44:52.524040Z,-0.764709,-0.768372,0.985535
2018-10-20T18:44:52.724040Z,-0.829407,-0.185425,-1.6614380000000002
2018-10-20T18:44:52.925040Z,-2.0300290000000003,-0.653992,0.79718
2018-10-20T18:44:53.125040Z,-0.991699,-0.251648,0.96283
2018-10-20T18:44:53.326040Z,-0.337524,-1.612549,-0.9835209999999999
2018-10-20T18:44:53.525040Z,-1.8050540000000002,-0.47009300000000004,-0.21472199999999997
2018-10-20T18:44:53.724040Z,-2.001465,0.31781,-0.322754
2018-10-20T18:44:53.925040Z,-1.4639280000000001,0.608398,0.132935
2018-10-20T18:44:54.125040Z,-1.698547,0.732056,-0.8814700000000001
2018-10-20T18:44:54.333040Z,-1.29071,0.9776,0.333557
2018-10-20T18:44:54.525040Z,-1.5865479999999998,-0.957764,-0.400452
2018-10-20T18:44:54.724040Z,-1.394348,0.07110599999999999,-0.184387
2018-10-20T18:44:55.124040Z,-1.320068,1.610291,-0.90625
2018-10-20T18:44:55.324040Z,-1.262634,2.154968,-1.355652
2018-10-20T18:44:55.525040Z,-1.465576,1.510376,-0.594849
2018-10-20T18:44:55.724040Z,-1.044983,-0.647705,1.409851
2018-10-20T18:44:55.924040Z,-0.24353000000000002,-1.57196,-1.068665
2018-10-20T18:44:56.125040Z,-0.719666,0.028748000000000003,-0.081848
2018-10-20T18:44:56.325040Z,0.32074,1.3372190000000002,0.289917
2018-10-20T18:44:56.525040Z,-0.614624,-0.552612,1.8624880000000001
2018-10-20T18:44:56.726040Z,-2.354126,-1.969666,0.543884
2018-10-20T18:44:56.976040Z,-1.7022709999999999,-0.875183,0.161072
2018-10-20T18:44:57.124040Z,-0.555359,-0.473022,-0.24847399999999997
2018-10-20T18:44:57.325040Z,-0.9332280000000001,-2.005005,-0.476562
2018-10-20T18:44:57.524040Z,-2.220032,-0.263916,-0.099487
2018-10-20T18:44:57.725040Z,-1.064331,0.462158,-2.20282
2018-10-20T18:44:57.924040Z,-1.6488650000000002,1.255798,-1.305725
2018-10-20T18:44:58.124040Z,-0.42431599999999997,-0.22821,0.10504200000000001
2018-10-20T18:44:58.324040Z,0.15686,-1.682434,0.611328
2018-10-20T18:44:58.524040Z,-0.40118400000000004,-0.312256,-0.674805
2018-10-20T18:44:58.728040Z,-0.512756,-0.005554,0.404602
2018-10-20T18:44:58.924040Z,-0.42651400000000006,-1.327393,-0.092407
2018-10-20T18:44:59.150040Z,-1.043091,-1.89917,-0.27111799999999997
2018-10-20T18:44:59.329040Z,-0.9320069999999999,-0.933472,0.970886
2018-10-20T18:44:59.531040Z,-0.9839479999999999,0.024841,0.17871099999999998
2018-10-20T18:44:59.725040Z,0.65686,-0.6286010000000001,-0.801453
2018-10-20T18:44:59.925040Z,1.111328,-0.600891,-0.123779
2018-10-20T18:45:00.124040Z,0.329834,-0.524963,1.556885
2018-10-20T18:45:00.325040Z,1.568481,0.635742,-0.06225599999999999
2018-10-20T18:45:00.525040Z,-0.039368,1.2700200000000001,1.7277220000000002
2018-10-20T18:45:00.724040Z,0.885925,-0.24231,-0.809204
2018-10-20T18:45:00.924040Z,-0.072327,0.651672,-1.513794
2018-10-20T18:45:01.126040Z,-0.085632,1.526917,-0.677185
2018-10-20T18:45:01.326040Z,0.007506999999999999,-0.15033,1.7716669999999999
2018-10-20T18:45:01.524040Z,-1.2645870000000001,-0.274597,-0.8419190000000001
2018-10-20T18:45:01.728040Z,-0.051636,0.5817869999999999,-0.310974
2018-10-20T18:45:01.924040Z,0.073242,-0.0018920000000000002,0.780457
2018-10-20T18:45:02.125040Z,0.072266,-1.104248,0.210754
2018-10-20T18:45:02.324040Z,-1.516968,-0.495544,-0.476685
2018-10-20T18:45:02.524040Z,-2.360962,-1.068604,0.304199
2018-10-20T18:45:02.724040Z,-1.131592,0.818481,-0.151367
2018-10-20T18:45:02.925040Z,-0.806519,-0.03949,-0.014893
2018-10-20T18:45:03.125040Z,0.147705,-1.7932740000000003,0.522766
2018-10-20T18:45:03.325040Z,-0.421387,-0.7636109999999999,-1.134521
2018-10-20T18:45:03.524040Z,-0.665588,0.24054,-0.265381
2018-10-20T18:45:03.797040Z,-0.10131799999999999,0.358093,0.11138900000000002
2018-10-20T18:45:03.924040Z,-2.159607,-1.2387700000000001,-0.9249879999999999
2018-10-20T18:45:04.128040Z,-1.763611,-0.357788,-2.185425
2018-10-20T18:45:04.333040Z,-0.649292,1.269104,-0.543091
2018-10-20T18:45:04.524040Z,-1.087585,-0.667175,2.660034
2018-10-20T18:45:04.725040Z,-1.623108,-0.953308,-2.090027
2018-10-20T18:45:04.924040Z,-1.603699,0.89679,1.032471
2018-10-20T18:45:05.128040Z,-1.537903,-0.395203,2.6190189999999998
2018-10-20T18:45:05.324040Z,0.118835,-2.814209,1.0142209999999998
2018-10-20T18:45:05.540040Z,-0.30175799999999997,-1.33374,-0.42889399999999994
2018-10-20T18:45:05.724040Z,-1.099243,-0.530701,0.616028
2018-10-20T18:45:05.924040Z,-0.92865,-1.9774779999999998,1.5660399999999999
2018-10-20T18:45:06.124040Z,1.579895,-0.19927999999999998,-0.72583
2018-10-20T18:45:06.324040Z,0.669067,0.9743040000000001,-0.012573
2018-10-20T18:45:06.525040Z,-1.5210569999999999,-1.0726930000000001,3.7719730000000005
2018-10-20T18:45:06.725040Z,-0.09411599999999999,-1.864929,-1.041565
2018-10-20T18:45:06.924040Z,-0.156067,0.026855,-0.739136
2018-10-20T18:45:07.128040Z,0.19873,1.3218379999999998,0.744995
2018-10-20T18:45:07.329040Z,1.078918,-0.21099899999999996,0.51239
2018-10-20T18:45:07.525040Z,0.482788,-1.8125,-1.7264400000000002
2018-10-20T18:45:07.752040Z,1.584106,-0.307129,0.32195999999999997
2018-10-20T18:45:07.924040Z,0.858276,1.027649,-0.19574
2018-10-20T18:45:08.324040Z,0.474915,1.170349,-0.285217
2018-10-20T18:45:08.524040Z,0.677124,1.0245360000000001,0.366821
2018-10-20T18:45:08.724040Z,-0.064331,-0.743286,0.179504
2018-10-20T18:45:08.924040Z,-0.498169,-1.524841,-0.66156
2018-10-20T18:45:09.124040Z,-0.281555,-0.171265,-0.713684
2018-10-20T18:45:09.324040Z,0.884949,1.27948,0.05304
2018-10-20T18:45:09.527040Z,0.860352,-0.319336,0.359619
2018-10-20T18:45:09.726040Z,0.67572,-1.25946,-1.676086
2018-10-20T18:45:09.924040Z,0.5639649999999999,-0.781982,-0.363464
2018-10-20T18:45:10.127040Z,-0.268433,-0.279602,0.038391
2018-10-20T18:45:10.325040Z,0.828674,-0.10919200000000001,0.289001
2018-10-20T18:45:10.524040Z,1.050964,0.9065549999999999,-0.302002
2018-10-20T18:45:10.725040Z,0.32757600000000003,0.676147,-0.18512
2018-10-20T18:45:10.926040Z,0.032715,0.997375,1.333008
2018-10-20T18:45:11.125040Z,-0.752991,-2.320801,0.7556149999999999
2018-10-20T18:45:11.324040Z,-0.19250499999999998,-0.645996,-1.11438
2018-10-20T18:45:11.524040Z,-0.958923,0.696655,0.16802999999999998
2018-10-20T18:45:11.730040Z,0.16351300000000002,-0.480408,1.8141479999999999
2018-10-20T18:45:11.924040Z,-0.052734,-1.274353,-1.078125
2018-10-20T18:45:12.124040Z,0.043518,0.078247,0.309692
2018-10-20T18:45:12.324040Z,0.514709,-0.059998,1.034729
2018-10-20T18:45:12.529040Z,-0.007690000000000001,-1.459351,1.223999
2018-10-20T18:45:12.724040Z,-0.423584,-1.952332,0.34429899999999997
2018-10-20T18:45:12.925040Z,-0.265259,-0.460999,-0.124268
2018-10-20T18:45:13.125040Z,-0.689087,0.236267,-0.46136499999999997
2018-10-20T18:45:13.323040Z,-0.6547850000000001,0.935364,-0.637817
2018-10-20T18:45:13.524040Z,-0.9048459999999999,-0.730591,1.886597
2018-10-20T18:45:13.725040Z,-0.517029,-2.075073,0.049866
2018-10-20T18:45:13.924040Z,0.125122,-0.23053,-0.312683
2018-10-20T18:45:14.125040Z,0.12329100000000001,0.505554,0.621155
2018-10-20T18:45:14.324040Z,-0.031555,-0.752686,-1.505859
2018-10-20T18:45:14.525040Z,-1.493042,-1.9536740000000001,-0.559631
2018-10-20T18:45:14.729040Z,-1.847778,-1.828857,0.072021
2018-10-20T18:45:14.924040Z,-1.3515620000000002,-1.441956,1.873291
2018-10-20T18:45:15.124040Z,-0.9472659999999999,-1.265686,-0.383972
2018-10-20T18:45:15.325040Z,-1.129944,-0.49499499999999996,0.461243
2018-10-20T18:45:15.530040Z,-1.057312,-0.6149899999999999,-0.052795
2018-10-20T18:45:15.725040Z,-1.8642580000000002,-0.15020799999999998,0.27533
2018-10-20T18:45:15.924040Z,-0.936768,0.068604,0.010193
2018-10-20T18:45:16.124040Z,-1.766663,-0.051330999999999995,-0.11682100000000001
2018-10-20T18:45:16.324040Z,-0.186646,-1.013367,1.716248
2018-10-20T18:45:16.524040Z,0.991699,-2.863037,1.081726
2018-10-20T18:45:16.724040Z,1.261658,-1.079956,0.542419
2018-10-20T18:45:16.924040Z,0.386902,-1.236328,1.4176030000000002
2018-10-20T18:45:17.124040Z,-0.260925,-1.093628,1.002502
2018-10-20T18:45:17.324040Z,-1.824646,-2.045593,1.9888919999999999
2018-10-20T18:45:17.524040Z,-1.7699580000000001,-2.048584,1.156311
2018-10-20T18:45:17.725040Z,-1.244629,-1.481689,0.8588870000000001
2018-10-20T18:45:17.925040Z,-1.8131709999999999,-0.37506100000000003,-0.632263
2018-10-20T18:45:18.124040Z,-0.916626,-0.737122,0.524231
2018-10-20T18:45:18.324040Z,0.197632,-0.5431520000000001,0.23095700000000002
2018-10-20T18:45:18.524040Z,-0.8325809999999999,-0.803467,0.287842
2018-10-20T18:45:18.724040Z,-0.524597,-0.7188720000000001,0.630676
2018-10-20T18:45:18.924040Z,-0.791321,-0.571411,-0.151367
2018-10-20T18:45:19.124040Z,-0.614502,-0.432068,-4.027588
2018-10-20T18:45:19.324040Z,-0.10845899999999999,-0.24969499999999997,-0.319824
2018-10-20T18:45:19.524040Z,-0.84845,-0.480713,-0.252747
2018-10-20T18:45:19.724040Z,-0.38250700000000004,0.082397,0.204102
2018-10-20T18:45:19.979040Z,-0.786011,-0.519104,0.377197
2018-10-20T18:45:20.125040Z,-0.535767,-0.248108,0.064514
2018-10-20T18:45:20.328040Z,-0.8875120000000001,0.156433,-0.233398
2018-10-20T18:45:20.527040Z,-1.077515,0.6857300000000001,-0.602661
2018-10-20T18:45:20.724040Z,-0.508057,0.403931,0.575684
2018-10-20T18:45:20.924040Z,-0.139648,-0.221375,-0.09429900000000001
2018-10-20T18:45:21.126040Z,-0.373413,-0.73822,1.207458
2018-10-20T18:45:21.324040Z,-0.066711,-0.622192,0.117371
2018-10-20T18:45:21.736040Z,-0.315552,-0.24853499999999998,-0.168152
2018-10-20T18:45:21.928040Z,-0.431396,-0.8408200000000001,2.023315
2018-10-20T18:45:22.129040Z,-0.637756,-1.938477,0.10681199999999999
2018-10-20T18:45:22.324040Z,-1.291931,-0.46240200000000004,-0.372498
2018-10-20T18:45:22.525040Z,-0.75293,0.157593,-0.840698
2018-10-20T18:45:22.724040Z,-1.127502,0.490601,0.15686
2018-10-20T18:45:22.924040Z,-0.008911,-1.211975,0.595276
2018-10-20T18:45:23.145040Z,-0.021667,-0.597046,-0.7619630000000001
2018-10-20T18:45:23.328040Z,-0.148621,-0.079712,-0.502441
2018-10-20T18:45:23.528040Z,-0.171326,0.16095,0.179321
2018-10-20T18:45:23.724040Z,-0.9024049999999999,-2.736328,0.8941040000000001
2018-10-20T18:45:23.924040Z,0.292786,-1.9520259999999998,0.148315
2018-10-20T18:45:24.125040Z,-0.013244999999999998,-1.6914060000000002,1.629761
2018-10-20T18:45:24.325040Z,1.403992,-2.0491330000000003,0.030029000000000004
2018-10-20T18:45:24.525040Z,0.401917,-0.565552,-1.171265
2018-10-20T18:45:24.725040Z,0.024902,0.827148,-0.076782
2018-10-20T18:45:24.925040Z,0.27331500000000003,2.489502,1.4838870000000002
2018-10-20T18:45:25.124040Z,-0.476379,0.27887,-0.695496
2018-10-20T18:45:25.326040Z,-0.294189,-1.399109,-1.046814
2018-10-20T18:45:25.525040Z,0.41131599999999996,0.174316,-1.636902
2018-10-20T18:45:25.724040Z,0.074524,1.413147,2.8966060000000002
2018-10-20T18:45:25.924040Z,0.81897,0.24462899999999999,-0.261292
2018-10-20T18:45:26.124040Z,0.835815,-1.104492,-0.716003
2018-10-20T18:45:26.325040Z,0.779175,0.303284,-0.350403
2018-10-20T18:45:26.527040Z,0.506042,0.71106,0.11322
2018-10-20T18:45:26.724040Z,0.630371,0.049927,1.1119379999999999
2018-10-20T18:45:26.924040Z,0.354126,0.155029,-0.626404
2018-10-20T18:45:27.124040Z,0.23284899999999997,-0.16003399999999998,-0.42645299999999997
2018-10-20T18:45:27.348040Z,0.544373,-0.362976,-0.097351
2018-10-20T18:45:27.525040Z,0.530579,0.19354200000000002,-0.034546
2018-10-20T18:45:27.727040Z,0.024902,-0.401001,-0.8797
2018-10-20T18:45:27.925040Z,0.031127999999999996,0.563782,0.510315
2018-10-20T18:45:28.125040Z,0.015137000000000001,0.27111799999999997,-0.210632
2018-10-20T18:45:28.325040Z,-0.5467529999999999,0.348938,-0.172485
2018-10-20T18:45:28.524040Z,-0.5082399999999999,0.181396,-0.852234
2018-10-20T18:45:28.725040Z,-0.50061,0.214417,-1.602234
2018-10-20T18:45:28.925040Z,-0.8479,1.286926,7.414246
2018-10-20T18:45:29.125040Z,1.223999,-0.8316040000000001,-5.805237
2018-10-20T18:45:29.324040Z,-1.1759030000000001,-0.334656,4.033752
2018-10-20T18:45:29.524040Z,0.482788,0.043884,-2.36438
2018-10-20T18:45:29.724040Z,1.118652,0.13006600000000001,-0.741577
2018-10-20T18:45:29.924040Z,3.245605,0.322266,0.9343870000000001
2018-10-20T18:45:30.124040Z,1.4170530000000001,-0.9512940000000001,0.37695300000000004
2018-10-20T18:45:30.324040Z,0.863281,0.032654,1.549683
2018-10-20T18:45:30.524040Z,1.2318120000000001,0.322815,-0.44207799999999997
2018-10-20T18:45:30.736040Z,0.970825,0.674438,1.639893
2018-10-20T18:45:30.928040Z,0.734741,0.41705299999999995,-1.194519
2018-10-20T18:45:31.126040Z,0.570312,-0.31243899999999997,-1.160339
2018-10-20T18:45:31.325040Z,1.7144169999999999,1.388855,0.715332
2018-10-20T18:45:31.525040Z,1.1853639999999999,2.567078,-1.6893919999999998
2018-10-20T18:45:31.726040Z,0.334412,2.7078860000000002,-1.365051
2018-10-20T18:45:31.924040Z,-3.2127689999999998,1.8768310000000001,2.151672
2018-10-20T18:45:32.125040Z,-0.267151,-4.667053,-4.041504
2018-10-20T18:45:32.327040Z,-0.656738,-2.3884279999999998,-2.635437
2018-10-20T18:45:32.525040Z,-1.101807,0.043396,2.835571
2018-10-20T18:45:32.724040Z,0.26574699999999996,-0.576965,-0.102112
2018-10-20T18:45:32.979040Z,-0.273865,-1.0981450000000001,0.797791
2018-10-20T18:45:33.124040Z,1.01062,0.353271,-0.195129
2018-10-20T18:45:33.324040Z,1.7087400000000001,-0.473145,0.32605
2018-10-20T18:45:33.525040Z,2.305298,-6.1e-05,-0.090637
2018-10-20T18:45:33.724040Z,2.088196,0.916565,0.098999
2018-10-20T18:45:33.924040Z,0.325928,1.13855,-0.414551
2018-10-20T18:45:34.127040Z,-1.615784,-0.894958,0.37323
2018-10-20T18:45:34.325040Z,-0.660583,0.698792,-1.7488400000000002
2018-10-20T18:45:34.525040Z,-0.806335,0.9782709999999999,-0.862549
2018-10-20T18:45:34.725040Z,1.1918950000000001,0.26568600000000003,-0.420349
2018-10-20T18:45:34.925040Z,1.755127,0.083557,-1.111389
2018-10-20T18:45:35.125040Z,1.143799,1.160034,-0.37445100000000003
2018-10-20T18:45:35.526040Z,0.397766,1.301025,-0.310852
2018-10-20T18:45:35.826040Z,-0.494568,-0.53894,-1.367615
2018-10-20T18:45:35.926040Z,-0.412476,0.16162100000000001,0.666748
2018-10-20T18:45:36.132040Z,-0.10040299999999999,1.056763,-1.083008
2018-10-20T18:45:36.325040Z,0.269409,1.8320919999999998,-0.103577
2018-10-20T18:45:36.524040Z,-0.465149,0.513733,1.275452
2018-10-20T18:45:36.724040Z,-0.117798,-0.189697,-0.723755
2018-10-20T18:45:36.924040Z,0.228821,1.038208,0.063965
2018-10-20T18:45:37.124040Z,0.27880900000000003,1.493164,-0.12286400000000001
2018-10-20T18:45:37.324040Z,-0.34075900000000003,-0.417419,-0.379333
2018-10-20T18:45:37.525040Z,0.00885,-0.174683,-1.109497
2018-10-20T18:45:37.730040Z,-0.309753,0.124268,0.211853
2018-10-20T18:45:37.925040Z,-0.35827600000000004,0.857239,-0.9922489999999999
2018-10-20T18:45:38.127040Z,-1.307007,0.25708000000000003,0.565613
2018-10-20T18:45:38.324040Z,-0.084473,0.306824,-0.753967
2018-10-20T18:45:38.524040Z,-0.575806,0.319397,-0.44244399999999995
2018-10-20T18:45:38.724040Z,0.20959499999999998,0.672424,-0.6704100000000001
2018-10-20T18:45:38.926040Z,-0.541565,0.994324,0.1604
2018-10-20T18:45:39.125040Z,-1.994507,-1.6323239999999999,-1.256165
2018-10-20T18:45:39.324040Z,-1.264343,-0.429443,-1.2769780000000002
2018-10-20T18:45:39.532040Z,-0.45184300000000005,0.322937,0.818665
2018-10-20T18:45:39.730040Z,-1.03064,-0.802307,-0.421814
2018-10-20T18:45:39.924040Z,-1.479309,-0.027587999999999998,-0.655029
2018-10-20T18:45:40.124040Z,-1.084961,0.21453899999999998,0.46740699999999996
2018-10-20T18:45:40.324040Z,-1.408142,-0.715332,1.700867
2018-10-20T18:45:40.524040Z,-1.5913700000000002,-0.756836,0.172791
2018-10-20T18:45:40.724040Z,-2.167358,-0.321228,-0.14562999999999998
2018-10-20T18:45:40.926040Z,-2.3740229999999998,0.372192,0.630188
2018-10-20T18:45:41.125040Z,-1.678223,0.9835209999999999,-0.35791
2018-10-20T18:45:41.325040Z,-0.9978030000000001,0.735474,-0.557129
2018-10-20T18:45:41.524040Z,-1.208923,-0.633606,0.949219
2018-10-20T18:45:41.726040Z,-0.27831999999999996,-0.7833859999999999,-1.053772
2018-10-20T18:45:41.926040Z,-0.835144,0.0755,-1.2691649999999999
2018-10-20T18:45:42.125040Z,-0.043945,0.647522,0.429749
2018-10-20T18:45:42.327040Z,-1.4459229999999998,-0.5428470000000001,1.173767
2018-10-20T18:45:42.527040Z,-1.694824,-0.897644,-0.030883999999999998
2018-10-20T18:45:42.759040Z,-1.12677,0.507141,-0.806396
2018-10-20T18:45:42.924040Z,-0.515686,0.5620729999999999,-0.26855500000000004
2018-10-20T18:45:43.125040Z,-1.174561,-1.40686,1.31366
2018-10-20T18:45:43.324040Z,0.138794,-2.391357,-1.194519
2018-10-20T18:45:43.525040Z,-0.050903,0.100952,0.6755979999999999
2018-10-20T18:45:43.724040Z,0.48053,0.6721189999999999,-0.322205
2018-10-20T18:45:43.924040Z,0.649353,0.295288,0.862549
2018-10-20T18:45:44.124040Z,-1.9182130000000002,-0.807068,0.969666
2018-10-20T18:45:44.324040Z,-0.9586790000000001,-0.41937299999999994,-1.442993
2018-10-20T18:45:44.524040Z,-1.294434,-0.165649,0.891357
2018-10-20T18:45:44.724040Z,-1.179138,-1.3815309999999998,0.514404
2018-10-20T18:45:44.926040Z,-0.46728500000000006,-0.602661,-0.202209
2018-10-20T18:45:45.125040Z,0.11114500000000001,0.256836,0.349487
2018-10-20T18:45:45.324040Z,-0.046814,-0.144714,-0.496094
2018-10-20T18:45:45.524040Z,-0.059265,-0.096497,0.13269
2018-10-20T18:45:45.724040Z,0.355713,0.144043,0.023743
2018-10-20T18:45:45.924040Z,-0.350525,0.430359,-0.14819300000000002
2018-10-20T18:45:46.124040Z,-0.10308800000000001,0.026123,-0.671021
2018-10-20T18:45:46.325040Z,-0.01593,0.10491900000000001,-0.411987
2018-10-20T18:45:46.531040Z,0.930542,0.569153,0.576843
2018-10-20T18:45:46.724040Z,-0.249756,0.079346,-0.261475
2018-10-20T18:45:46.924040Z,0.130981,-0.009705,-0.349304
2018-10-20T18:45:47.124040Z,-0.008971999999999999,0.143433,-1.253235
2018-10-20T18:45:47.324040Z,-0.1651,-0.314575,-0.245117
2018-10-20T18:45:47.526040Z,0.041199,0.260437,0.022522
2018-10-20T18:45:47.727040Z,0.267822,0.051758000000000005,-0.328735
2018-10-20T18:45:47.924040Z,-0.213562,0.239075,-0.056029999999999996
2018-10-20T18:45:48.132040Z,-0.13092,0.24585,-2.0710450000000002
2018-10-20T18:45:48.324040Z,-0.055175999999999996,0.046752999999999996,-0.510803
2018-10-20T18:45:48.524040Z,-0.052551,0.230652,0.026244999999999997
2018-10-20T18:45:48.728040Z,-0.424683,-0.000244,-1.2630620000000001
2018-10-20T18:45:48.925040Z,-0.022522,0.140442,-0.392151
2018-10-20T18:45:49.126040Z,0.055420000000000004,-0.040466,-0.43518100000000004
2018-10-20T18:45:49.326040Z,-0.112732,0.0038450000000000003,-0.048462
2018-10-20T18:45:49.525040Z,-0.260498,-0.027344,-0.480469
2018-10-20T18:45:49.724040Z,-0.282104,0.633972,0.6793819999999999
2018-10-20T18:45:49.924040Z,-0.947449,0.270935,-0.392151
2018-10-20T18:45:50.324040Z,-1.665588,-0.746216,0.6297
2018-10-20T18:45:50.524040Z,-1.081543,-0.8935549999999999,-0.07067899999999999
2018-10-20T18:45:50.724040Z,-0.868225,-0.70636,0.084229
2018-10-20T18:45:50.925040Z,0.459106,-0.617676,-0.592529
2018-10-20T18:45:51.124040Z,-0.462341,0.037048000000000005,0.00061
2018-10-20T18:45:51.324040Z,-0.23657199999999998,-0.048157,-0.11096199999999999
2018-10-20T18:45:51.525040Z,-0.370239,0.004639,0.076782
2018-10-20T18:45:51.724040Z,-0.8380129999999999,0.085022,-0.078796
