Datetime,accx,accy,accz
2018-10-15T22:02:47.473282Z,0.0,0.0,0.0
2018-10-15T22:02:47.651282Z,-0.10768699999999999,0.09362899999999999,0.039841
2018-10-15T22:02:47.923282Z,-0.283479,-0.09850700000000001,0.672977
2018-10-15T22:02:48.117282Z,0.24908899999999998,-1.844391,0.405891
2018-10-15T22:02:48.405282Z,-0.512791,-1.34345,-0.593924
2018-10-15T22:02:48.490282Z,-1.036282,0.198243,-0.842815
2018-10-15T22:02:48.724282Z,-1.499095,0.5123340000000001,0.638131
2018-10-15T22:02:48.912282Z,-1.117082,-1.169453,0.147009
2018-10-15T22:02:49.114282Z,-1.192774,-1.1886889999999999,-0.21211100000000002
2018-10-15T22:02:49.314282Z,0.64453,-0.657396,-0.09311799999999999
2018-10-15T22:02:49.493282Z,0.728025,0.915904,0.541133
2018-10-15T22:02:49.693282Z,-0.011809,-1.378514,1.609047
2018-10-15T22:02:49.918282Z,2.0106479999999998,-1.285925,-0.252884
2018-10-15T22:02:50.118282Z,0.779165,0.294209,-0.773356
2018-10-15T22:02:50.319282Z,0.773238,0.640084,1.174077
2018-10-15T22:02:50.500282Z,1.273224,-0.557495,-0.005762
2018-10-15T22:02:50.717282Z,-0.10948,-0.088406,-1.122296
2018-10-15T22:02:50.916282Z,-3.405935,-0.9538610000000001,0.191613
2018-10-15T22:02:51.113282Z,-0.9744520000000001,-1.30769,1.6673939999999998
2018-10-15T22:02:51.317282Z,0.382882,-1.422876,-0.36388899999999996
2018-10-15T22:02:51.519282Z,-0.142611,-0.8102590000000001,0.15391300000000002
2018-10-15T22:02:51.716282Z,0.788985,0.608982,0.144565
2018-10-15T22:02:51.918282Z,1.7048709999999998,-1.400837,1.8284770000000001
2018-10-15T22:02:52.132282Z,1.161119,-1.2244469999999998,-0.188146
2018-10-15T22:02:52.313282Z,-0.565928,0.032556,-0.675723
2018-10-15T22:02:52.509282Z,-1.7348029999999999,-1.383881,1.19733
2018-10-15T22:02:52.714282Z,-2.598616,-3.88098,0.8544860000000001
2018-10-15T22:02:52.914282Z,-1.234133,-2.8699310000000002,0.568441
2018-10-15T22:02:53.120282Z,-0.585976,-2.241781,0.9989520000000001
2018-10-15T22:02:53.319282Z,1.103438,-1.105313,0.8226979999999999
2018-10-15T22:02:53.518282Z,1.575935,-2.42092,2.0161740000000004
2018-10-15T22:02:53.731282Z,1.387546,-1.040231,-0.793621
2018-10-15T22:02:53.913282Z,-1.3350540000000002,-0.24148200000000003,0.133389
2018-10-15T22:02:54.113282Z,-2.080678,-1.851818,1.5755780000000001
2018-10-15T22:02:54.308282Z,-0.517939,-1.4076620000000002,-1.326106
2018-10-15T22:02:54.514282Z,-0.355699,-0.254769,0.530879
2018-10-15T22:02:54.741282Z,0.404427,0.581262,0.48398800000000003
2018-10-15T22:02:54.923282Z,1.214941,-1.273052,1.302158
2018-10-15T22:02:55.159282Z,1.4401389999999998,-1.001343,-0.832541
2018-10-15T22:02:55.337282Z,0.656808,1.344544,-0.534738
2018-10-15T22:02:55.542282Z,-0.9921409999999999,-0.332158,1.980427
2018-10-15T22:02:55.737282Z,0.725381,-1.103669,-0.9003969999999999
2018-10-15T22:02:55.940282Z,0.667593,0.29372,-0.760542
2018-10-15T22:02:56.145282Z,0.31919899999999995,0.11940999999999999,2.107267
2018-10-15T22:02:56.297282Z,1.330337,-1.4100270000000001,0.354812
2018-10-15T22:02:56.545282Z,-0.145705,-0.643355,-1.570543
2018-10-15T22:02:56.739282Z,-1.014106,0.811759,0.340258
2018-10-15T22:02:56.938282Z,-2.0111369999999997,-1.3580889999999999,1.192489
2018-10-15T22:02:57.231282Z,-0.48798500000000006,-1.302806,-0.6170260000000001
2018-10-15T22:02:57.306282Z,-0.589743,-0.177963,-0.103128
2018-10-15T22:02:57.518282Z,-0.262531,-0.091445,1.7056099999999998
2018-10-15T22:02:57.717282Z,0.397511,-1.193166,-0.280985
2018-10-15T22:02:57.917282Z,0.597489,-0.188246,-0.770375
2018-10-15T22:02:58.099282Z,0.604342,0.45588100000000004,1.014667
2018-10-15T22:02:58.356282Z,1.136967,-0.9196270000000001,1.215375
2018-10-15T22:02:58.516282Z,0.23739200000000002,-1.302921,-0.545324
2018-10-15T22:02:58.711282Z,-0.959414,-1.069944,1.200717
2018-10-15T22:02:58.919282Z,-0.601379,-2.9648790000000003,1.795341
2018-10-15T22:02:59.133282Z,-0.6523100000000001,-2.821275,0.146445
2018-10-15T22:02:59.323282Z,-0.532036,-2.623026,2.2446
2018-10-15T22:02:59.521282Z,0.073683,-2.277202,1.0622719999999999
2018-10-15T22:02:59.724282Z,-0.678139,-1.191411,0.24403000000000002
2018-10-15T22:02:59.923282Z,0.859196,0.36492600000000003,1.0016260000000001
2018-10-15T22:03:00.120282Z,1.0669950000000001,-0.676027,0.690867
2018-10-15T22:03:00.317282Z,1.477436,-0.347488,-1.0958629999999998
2018-10-15T22:03:00.500282Z,0.679844,0.29131,0.906415
2018-10-15T22:03:00.700282Z,-0.001523,-0.24624400000000002,1.911246
2018-10-15T22:03:00.922282Z,0.188168,-1.166691,-0.720534
2018-10-15T22:03:01.118282Z,-0.794239,-0.49271000000000004,-0.792045
2018-10-15T22:03:01.321282Z,-1.217254,-0.7504270000000001,1.8896279999999999
2018-10-15T22:03:01.513282Z,-1.602131,-1.5535430000000001,-0.019725
2018-10-15T22:03:01.723282Z,-0.20236700000000002,-0.506221,-0.65889
2018-10-15T22:03:01.919282Z,-0.101962,0.800298,0.854723
2018-10-15T22:03:02.123282Z,-0.214639,-0.6602210000000001,0.888127
2018-10-15T22:03:02.322282Z,1.8180290000000001,-0.647799,-0.664346
2018-10-15T22:03:02.525282Z,1.268476,0.591601,1.24879
2018-10-15T22:03:02.724282Z,1.142452,-0.326892,1.227876
2018-10-15T22:03:02.920282Z,1.6544889999999999,-0.08669400000000001,-1.530206
2018-10-15T22:03:03.113282Z,0.40823200000000004,0.587437,0.942204
2018-10-15T22:03:03.301282Z,-0.5461189999999999,-0.17344500000000002,1.304524
2018-10-15T22:03:03.521282Z,-0.178274,-1.471103,-0.644179
2018-10-15T22:03:03.724282Z,0.12106600000000001,0.59305,-0.462667
2018-10-15T22:03:03.917282Z,0.389712,-0.148579,1.9733990000000001
2018-10-15T22:03:04.113282Z,0.133805,-0.9834930000000001,-1.035396
2018-10-15T22:03:04.316282Z,-0.43235,-0.295134,-0.189056
2018-10-15T22:03:04.519282Z,0.423957,-0.183049,1.3398
2018-10-15T22:03:04.723282Z,0.55279,-1.826655,0.654854
2018-10-15T22:03:04.926282Z,0.725489,-1.0704,0.079612
2018-10-15T22:03:05.126282Z,0.143897,-0.292588,0.365613
2018-10-15T22:03:05.326282Z,0.297158,0.107206,0.108011
2018-10-15T22:03:05.523282Z,-0.255814,-0.019884,0.080902
2018-10-15T22:03:05.725282Z,-0.62735,-0.619103,0.41631
2018-10-15T22:03:05.921282Z,-0.15961199999999998,-2.018821,1.1466120000000002
2018-10-15T22:03:06.124282Z,0.27972199999999997,-2.510598,0.541894
2018-10-15T22:03:06.323282Z,0.048298,-1.423477,0.335623
2018-10-15T22:03:06.504282Z,1.144863,-0.030569,0.364294
2018-10-15T22:03:06.719282Z,1.808675,0.544172,-0.25959699999999997
2018-10-15T22:03:06.904282Z,1.382855,1.3058809999999998,0.037584
2018-10-15T22:03:07.114282Z,1.1174879999999998,-0.779112,1.5320129999999998
2018-10-15T22:03:07.313282Z,2.258146,-0.416504,-0.6712060000000001
2018-10-15T22:03:07.525282Z,1.398693,-0.028112,1.121286
2018-10-15T22:03:07.727282Z,0.807442,0.26548099999999997,0.646528
2018-10-15T22:03:07.927282Z,1.667589,-0.030201,-1.0522719999999999
2018-10-15T22:03:08.126282Z,1.169371,1.178372,-0.991101
2018-10-15T22:03:08.326282Z,0.114224,0.516536,1.629433
2018-10-15T22:03:08.508282Z,0.6681060000000001,-1.579787,0.18598399999999998
2018-10-15T22:03:08.727282Z,-0.149953,-0.489426,-0.488151
2018-10-15T22:03:08.924282Z,-0.312104,0.23888299999999998,0.8391379999999999
2018-10-15T22:03:09.127282Z,-1.427405,-1.3284340000000001,0.987382
2018-10-15T22:03:09.325282Z,-1.979571,-2.024124,-0.378548
2018-10-15T22:03:09.528282Z,0.11900999999999999,-2.0847729999999998,1.8760459999999999
2018-10-15T22:03:09.724282Z,0.718533,-4.067544,2.2518029999999998
2018-10-15T22:03:09.929282Z,1.134833,-2.463387,0.685513
2018-10-15T22:03:10.125282Z,0.9879040000000001,-0.55356,0.802136
2018-10-15T22:03:10.329282Z,1.302646,-0.003475,0.570992
2018-10-15T22:03:10.527282Z,0.547497,-0.554987,0.345903
2018-10-15T22:03:10.728282Z,1.690824,-0.411055,-0.722324
2018-10-15T22:03:10.962282Z,1.396139,0.42234099999999997,0.305923
2018-10-15T22:03:11.124282Z,-0.27021999999999996,-0.472605,2.39532
2018-10-15T22:03:11.311282Z,-0.256105,-1.392343,-1.064503
2018-10-15T22:03:11.523282Z,-0.5618449999999999,-0.381995,-1.13125
2018-10-15T22:03:11.723282Z,-1.116578,-0.036748,0.979815
2018-10-15T22:03:11.907282Z,-0.581367,-1.3828639999999999,0.526622
2018-10-15T22:03:12.107282Z,-0.329342,-0.357594,-1.142554
2018-10-15T22:03:12.319282Z,0.229001,-0.115435,0.980907
2018-10-15T22:03:12.528282Z,-0.180471,-0.98021,1.330085
2018-10-15T22:03:12.726282Z,0.9091239999999999,-0.342026,-1.072293
2018-10-15T22:03:12.928282Z,1.084142,0.417933,0.415549
2018-10-15T22:03:13.178282Z,0.39177399999999996,-0.34742199999999995,2.09387
2018-10-15T22:03:13.320282Z,0.68601,-1.3356569999999999,-0.7343529999999999
2018-10-15T22:03:13.552282Z,0.788693,-0.11870499999999999,-0.6756340000000001
2018-10-15T22:03:13.724282Z,0.101988,0.886767,0.948416
2018-10-15T22:03:13.912282Z,-0.381694,-0.925866,0.18858699999999998
2018-10-15T22:03:14.131282Z,0.0007570000000000001,-1.159945,-0.5616399999999999
2018-10-15T22:03:14.335282Z,0.707167,0.5103989999999999,0.722179
2018-10-15T22:03:14.538282Z,-0.612818,-0.36174,0.707874
2018-10-15T22:03:14.726282Z,-1.420092,-0.6151369999999999,-1.467809
2018-10-15T22:03:14.927282Z,-0.258738,-0.076252,-0.008311
2018-10-15T22:03:15.123282Z,-0.559018,0.738518,0.853144
2018-10-15T22:03:15.327282Z,-0.346377,-1.008189,-0.028395999999999998
2018-10-15T22:03:15.531282Z,-0.10874,-0.390678,-0.675612
2018-10-15T22:03:15.733282Z,0.575036,0.5986199999999999,1.249174
2018-10-15T22:03:15.948282Z,1.138306,-1.004543,0.980512
2018-10-15T22:03:16.126282Z,1.0081,-0.257299,-1.608618
2018-10-15T22:03:16.328282Z,0.260619,0.863324,0.7879510000000001
2018-10-15T22:03:16.527282Z,-0.44986400000000004,-0.373608,0.90636
2018-10-15T22:03:16.727282Z,-0.086497,-0.752635,-1.27767
2018-10-15T22:03:16.933282Z,0.196517,0.6279640000000001,0.40472800000000003
2018-10-15T22:03:17.113282Z,0.807341,-0.383239,1.723701
2018-10-15T22:03:17.425282Z,1.03096,-0.628584,-1.646375
2018-10-15T22:03:17.529282Z,0.47980100000000003,0.6624359999999999,-0.208054
2018-10-15T22:03:17.713282Z,0.015265,0.004753,2.0347060000000003
2018-10-15T22:03:17.923282Z,0.35435,-1.278126,-0.45204399999999995
2018-10-15T22:03:18.127282Z,0.5832430000000001,0.08909,-0.923228
2018-10-15T22:03:18.315282Z,0.466562,0.889069,1.263517
2018-10-15T22:03:18.532282Z,1.183556,-1.177244,0.571444
2018-10-15T22:03:18.772282Z,0.5176229999999999,-0.42188100000000006,-1.3782020000000001
2018-10-15T22:03:18.929282Z,0.001633,1.3310950000000001,0.6546569999999999
2018-10-15T22:03:19.139282Z,0.06430599999999999,-0.8222290000000001,1.0733700000000002
2018-10-15T22:03:19.330282Z,0.693198,-0.802944,-1.0042520000000001
2018-10-15T22:03:19.530282Z,1.08404,0.312983,0.196306
2018-10-15T22:03:19.716282Z,0.817587,-0.215435,2.2562759999999997
2018-10-15T22:03:19.930282Z,1.667029,-1.048812,-0.813198
2018-10-15T22:03:20.135282Z,0.9684149999999999,-0.018004,-0.640042
2018-10-15T22:03:20.325282Z,0.518961,0.5872539999999999,1.4616879999999999
2018-10-15T22:03:20.534282Z,0.858135,-0.8960870000000001,-0.27508499999999997
2018-10-15T22:03:20.732282Z,0.983455,-0.397624,-0.681659
2018-10-15T22:03:20.932282Z,0.712987,-0.000199,1.1639190000000001
2018-10-15T22:03:21.131282Z,2.174978,-1.559616,1.269043
2018-10-15T22:03:21.335282Z,1.083567,-1.537458,-0.088028
2018-10-15T22:03:21.527282Z,-0.136607,0.274406,0.401562
2018-10-15T22:03:21.730282Z,0.210279,-1.205709,0.9630040000000001
2018-10-15T22:03:21.925282Z,2.080448,-1.011284,-0.605192
2018-10-15T22:03:22.133282Z,0.854333,-0.41122600000000004,0.7854720000000001
2018-10-15T22:03:22.332282Z,0.228683,-1.558622,1.51252
2018-10-15T22:03:22.527282Z,1.835491,-0.899983,-0.752905
2018-10-15T22:03:22.727282Z,0.256333,0.023809999999999998,0.24835500000000002
2018-10-15T22:03:22.934282Z,-0.30304200000000003,-0.984416,1.8842139999999998
2018-10-15T22:03:23.204282Z,0.235315,-2.042974,-0.35536
2018-10-15T22:03:23.330282Z,-0.15304500000000001,-0.482691,-0.5810810000000001
2018-10-15T22:03:23.532282Z,-0.063138,0.737391,0.951571
2018-10-15T22:03:23.727282Z,0.63205,-1.295029,1.00759
2018-10-15T22:03:23.934282Z,1.341486,-1.010029,-1.30582
2018-10-15T22:03:24.136282Z,0.013252000000000002,0.047306,0.732124
2018-10-15T22:03:24.371282Z,-0.9591120000000001,-0.871534,1.320381
2018-10-15T22:03:24.520282Z,-0.014778999999999999,-1.342164,-0.9577979999999999
2018-10-15T22:03:24.788282Z,0.156904,0.236706,-0.11624200000000001
2018-10-15T22:03:24.955282Z,0.63072,0.036964,1.6816779999999998
2018-10-15T22:03:25.202282Z,0.6809529999999999,-1.1649120000000002,-0.87295
2018-10-15T22:03:25.357282Z,0.5793689999999999,0.448219,-0.192522
2018-10-15T22:03:25.563282Z,0.12833,-0.259182,2.403135
2018-10-15T22:03:25.769282Z,0.381896,-1.734188,-0.46897700000000003
2018-10-15T22:03:26.030282Z,0.372767,-0.470124,-0.8700690000000001
2018-10-15T22:03:26.130282Z,-0.506271,1.574749,-0.065014
2018-10-15T22:03:26.400282Z,-0.429716,-1.408126,1.363024
2018-10-15T22:03:26.520282Z,-0.404438,-1.208996,-1.442137
2018-10-15T22:03:26.760282Z,-0.22934699999999997,0.52041,1.147063
2018-10-15T22:03:26.976282Z,-0.504566,-0.801547,1.194949
2018-10-15T22:03:27.138282Z,-0.346486,-0.918367,-1.764154
2018-10-15T22:03:27.322282Z,-1.496308,0.5942,-1.071401
2018-10-15T22:03:27.537282Z,-0.8340770000000001,0.024248,1.4557360000000001
2018-10-15T22:03:27.735282Z,-1.628084,0.094944,-1.133638
2018-10-15T22:03:27.936282Z,2.08162,0.26526,1.9431049999999999
2018-10-15T22:03:28.142282Z,0.30339499999999997,-1.233536,1.9104169999999998
2018-10-15T22:03:28.351282Z,2.792348,-0.292685,-1.7874430000000001
2018-10-15T22:03:28.537282Z,-0.614086,1.154928,-0.407532
2018-10-15T22:03:28.737282Z,-1.7575580000000002,-1.138619,1.666384
2018-10-15T22:03:28.932282Z,-0.384892,-0.993159,-1.4996129999999999
2018-10-15T22:03:29.137282Z,-0.140836,0.283756,0.266415
2018-10-15T22:03:29.342282Z,-0.091926,-0.44785,1.716048
2018-10-15T22:03:29.614282Z,1.996398,-1.56856,-0.217773
2018-10-15T22:03:29.736282Z,-0.016936,0.319421,-1.047277
2018-10-15T22:03:29.937282Z,-0.879598,-0.071305,2.056195
2018-10-15T22:03:30.140282Z,0.702167,-1.069525,-0.695567
2018-10-15T22:03:30.323282Z,-0.210427,0.393359,-0.8807709999999999
2018-10-15T22:03:30.538282Z,-0.6896359999999999,0.575729,0.9515129999999999
2018-10-15T22:03:30.745282Z,-0.739001,-1.413403,0.492551
2018-10-15T22:03:30.938282Z,0.778501,-0.685704,-1.024926
2018-10-15T22:03:31.139282Z,0.222162,0.8780129999999999,0.9005559999999999
2018-10-15T22:03:31.339282Z,0.814878,-0.534601,0.958883
2018-10-15T22:03:31.535282Z,0.43824799999999997,0.083294,-1.501743
2018-10-15T22:03:31.736282Z,1.4619719999999998,0.840053,0.757876
2018-10-15T22:03:31.940282Z,-0.719856,-0.175217,1.174299
2018-10-15T22:03:32.145282Z,0.882439,-1.427302,-0.151203
2018-10-15T22:03:32.344282Z,0.44565,-0.198568,-0.152341
2018-10-15T22:03:32.537282Z,0.598975,-0.620648,2.317312
2018-10-15T22:03:32.735282Z,0.49722799999999995,-1.435923,-0.723432
2018-10-15T22:03:32.940282Z,-1.100121,0.04376,-1.0816540000000001
2018-10-15T22:03:33.147282Z,-1.463314,0.5709890000000001,1.308422
2018-10-15T22:03:33.342282Z,-0.41579399999999994,-1.875904,0.028136
2018-10-15T22:03:33.546282Z,0.722693,-0.429775,0.04009
2018-10-15T22:03:33.745282Z,0.45273599999999997,0.473366,0.8756360000000001
2018-10-15T22:03:33.954282Z,0.23497600000000002,-1.174202,0.17119700000000002
2018-10-15T22:03:34.142282Z,0.351047,-0.327162,-0.39281
2018-10-15T22:03:34.339282Z,0.545758,0.9294889999999999,0.86336
2018-10-15T22:03:34.540282Z,0.240141,-1.543352,0.659532
2018-10-15T22:03:34.742282Z,1.251288,-0.778612,-0.533475
2018-10-15T22:03:34.947282Z,0.305868,1.036047,0.542489
2018-10-15T22:03:35.224282Z,0.9544389999999999,-0.891446,0.7114739999999999
2018-10-15T22:03:35.338282Z,0.9278540000000001,-0.630713,-0.687258
2018-10-15T22:03:35.577282Z,0.766687,0.8570479999999999,1.096818
2018-10-15T22:03:35.745282Z,0.6261479999999999,-1.153542,0.869459
2018-10-15T22:03:36.035282Z,1.401723,-0.670632,-1.110655
2018-10-15T22:03:36.127282Z,1.7088709999999998,0.941745,0.272084
2018-10-15T22:03:36.338282Z,3.767543,-1.284114,2.782943
2018-10-15T22:03:36.528282Z,2.046828,-1.990995,-1.0250290000000002
2018-10-15T22:03:36.729282Z,0.272094,0.604049,0.15721
2018-10-15T22:03:36.950282Z,0.20735900000000002,-0.615487,1.957916
2018-10-15T22:03:37.142282Z,1.132787,-1.354866,-0.5253479999999999
2018-10-15T22:03:37.328282Z,0.551473,-1.019472,0.023144
2018-10-15T22:03:37.548282Z,2.3775180000000002,0.072146,1.364663
2018-10-15T22:03:37.748282Z,3.3438480000000004,-1.6773189999999998,-0.082419
2018-10-15T22:03:37.946282Z,-0.062513,-1.050708,0.010009
2018-10-15T22:03:38.130282Z,0.175218,-0.202474,1.9429450000000001
2018-10-15T22:03:38.330282Z,0.035035000000000004,-1.7942060000000002,0.41252799999999995
2018-10-15T22:03:38.567282Z,0.285505,0.17114100000000002,-1.629147
2018-10-15T22:03:38.744282Z,0.851281,0.15976300000000002,1.90661
2018-10-15T22:03:38.946282Z,-0.105629,-2.557008,0.9399370000000001
2018-10-15T22:03:39.152282Z,0.344206,-1.1384889999999999,-1.375591
2018-10-15T22:03:39.352282Z,-1.2490860000000001,-0.17256,1.324802
2018-10-15T22:03:39.566282Z,-0.49311499999999997,-1.7023279999999998,1.442593
2018-10-15T22:03:39.745282Z,0.35128200000000004,-1.2083780000000002,-1.529832
2018-10-15T22:03:39.946282Z,-1.4793530000000001,-0.430753,1.011417
2018-10-15T22:03:40.144282Z,-2.137934,-1.571192,1.406532
2018-10-15T22:03:40.346282Z,-1.996875,-0.50479,-1.1272959999999999
2018-10-15T22:03:40.546282Z,-0.519179,0.233334,1.0615430000000001
2018-10-15T22:03:40.750282Z,-1.534879,-1.733057,1.508558
2018-10-15T22:03:40.949282Z,0.561584,-1.6529340000000001,-0.622432
2018-10-15T22:03:41.145282Z,-0.028782,-0.670496,0.309172
2018-10-15T22:03:41.356282Z,-0.717958,-1.019471,1.3222180000000001
2018-10-15T22:03:41.547282Z,-0.680236,-1.132314,-1.271038
2018-10-15T22:03:41.747282Z,-0.676215,-0.37008,0.31446999999999997
2018-10-15T22:03:41.946282Z,0.575631,-0.867366,1.782935
2018-10-15T22:03:42.133282Z,0.594366,-1.688432,-0.336917
2018-10-15T22:03:42.357282Z,1.00285,0.009734,0.23549699999999998
2018-10-15T22:03:42.603282Z,0.9500149999999999,-0.321792,1.22294
2018-10-15T22:03:42.750282Z,0.10004,-0.878675,-1.46996
2018-10-15T22:03:42.956282Z,-0.216223,-0.127799,0.595619
2018-10-15T22:03:43.146282Z,-0.14573599999999998,-1.305854,1.245702
2018-10-15T22:03:43.347282Z,0.918435,-1.2887030000000002,-0.712607
2018-10-15T22:03:43.552282Z,1.227835,0.709737,0.46313699999999997
2018-10-15T22:03:43.745282Z,1.1668290000000001,-0.52028,1.47088
2018-10-15T22:03:43.947282Z,0.951465,-1.426167,-0.780845
2018-10-15T22:03:44.149282Z,0.947631,0.989347,-0.18692899999999998
2018-10-15T22:03:44.345282Z,0.955879,-0.9009030000000001,1.9231470000000002
2018-10-15T22:03:44.533282Z,1.548583,-0.500835,-1.165219
2018-10-15T22:03:44.784282Z,0.785791,0.589504,0.332073
2018-10-15T22:03:44.949282Z,2.546427,-0.8738389999999999,1.4094280000000001
2018-10-15T22:03:45.147282Z,2.350222,-0.798426,-0.9433290000000001
2018-10-15T22:03:45.349282Z,0.9391200000000001,0.5824010000000001,0.7247140000000001
2018-10-15T22:03:45.544282Z,-0.022836000000000002,-0.896423,1.356394
2018-10-15T22:03:45.754282Z,0.369258,-1.362339,-0.43875699999999995
2018-10-15T22:03:45.955282Z,-0.158323,-0.47628100000000007,-0.29280700000000004
2018-10-15T22:03:46.150282Z,-0.795255,-0.480741,0.914968
2018-10-15T22:03:46.350282Z,-0.167968,-1.012432,-0.409125
2018-10-15T22:03:46.551282Z,-0.350419,0.005478,-0.393468
2018-10-15T22:03:46.750282Z,0.584316,0.979141,0.197492
2018-10-15T22:03:46.955282Z,0.0828,0.172529,0.933758
2018-10-15T22:03:47.157282Z,0.549009,-0.655991,-0.8270299999999999
2018-10-15T22:03:47.357282Z,0.759308,0.268619,-0.034472
2018-10-15T22:03:47.578282Z,1.0525520000000002,0.18696,1.549168
2018-10-15T22:03:47.752282Z,2.121058,-1.00512,0.009704
2018-10-15T22:03:47.950282Z,2.012064,-0.7702680000000001,-0.295419
2018-10-15T22:03:48.151282Z,1.6110879999999999,-1.0475700000000001,2.068125
2018-10-15T22:03:48.353282Z,1.804648,-1.7206119999999998,0.645982
2018-10-15T22:03:48.553282Z,1.061152,-1.345369,-0.188985
2018-10-15T22:03:48.739282Z,0.829727,-1.05342,1.503958
2018-10-15T22:03:48.939282Z,1.2108860000000001,-1.8291669999999998,-0.136505
2018-10-15T22:03:49.155282Z,0.749429,-0.58243,0.277402
2018-10-15T22:03:49.339282Z,-0.7834760000000001,-0.680976,1.876899
2018-10-15T22:03:49.601282Z,-0.097499,-1.922177,-0.177234
2018-10-15T22:03:49.738282Z,-1.61195,-1.221627,-0.6762060000000001
2018-10-15T22:03:49.970282Z,-4.712706,-2.450887,2.474039
2018-10-15T22:03:50.151282Z,-2.710559,-4.151371,1.629739
2018-10-15T22:03:50.355282Z,0.441838,-2.032827,-0.21074
2018-10-15T22:03:50.558282Z,0.66095,1.897961,0.6031569999999999
2018-10-15T22:03:50.740282Z,0.060911,-0.185627,1.971352
2018-10-15T22:03:50.941282Z,0.6496310000000001,-1.085967,-1.247607
2018-10-15T22:03:51.159282Z,0.13630699999999998,-0.300199,0.119024
2018-10-15T22:03:51.353282Z,-0.039158,-0.516547,1.875514
2018-10-15T22:03:51.559282Z,0.045441,-0.7951050000000001,-1.6880689999999998
2018-10-15T22:03:51.740282Z,-0.732071,-0.568006,0.071586
2018-10-15T22:03:51.940282Z,0.123556,-0.36498,1.411758
2018-10-15T22:03:52.189282Z,1.275305,-0.8965620000000001,-0.050608999999999994
2018-10-15T22:03:52.356282Z,1.227121,-0.304553,-0.32712800000000003
2018-10-15T22:03:52.552282Z,0.795139,-0.06655900000000001,1.09679
2018-10-15T22:03:52.757282Z,1.803093,-0.39720300000000003,-0.063247
2018-10-15T22:03:52.954282Z,1.210072,0.173744,-0.5159199999999999
2018-10-15T22:03:53.140282Z,1.127047,0.753586,0.026681
2018-10-15T22:03:53.356282Z,0.392574,0.25958200000000003,0.486098
2018-10-15T22:03:53.592282Z,0.6617970000000001,-0.37637,0.09364199999999999
2018-10-15T22:03:53.764282Z,1.2273040000000002,0.433364,-0.778247
2018-10-15T22:03:53.958282Z,-1.613273,1.241097,0.11329600000000001
2018-10-15T22:03:54.157282Z,-1.4220549999999998,-1.538124,1.341698
2018-10-15T22:03:54.356282Z,-1.224134,-1.174583,-0.843458
2018-10-15T22:03:54.557282Z,1.041728,0.262006,0.362792
2018-10-15T22:03:54.744282Z,-0.424867,-0.466105,1.041318
2018-10-15T22:03:54.956282Z,1.427776,-0.482361,-0.513224
2018-10-15T22:03:55.163282Z,0.675606,0.26509099999999997,-0.15043299999999998
2018-10-15T22:03:55.393282Z,0.8398559999999999,0.09010599999999999,1.804703
2018-10-15T22:03:55.585282Z,1.537359,-1.0717809999999999,-0.9917879999999999
2018-10-15T22:03:55.779282Z,0.839139,0.111721,-0.111596
2018-10-15T22:03:56.027282Z,0.44765699999999997,-0.30580999999999997,1.818729
2018-10-15T22:03:56.179282Z,1.321046,-0.971448,-0.405495
2018-10-15T22:03:56.379282Z,2.15773,-0.663227,0.269451
2018-10-15T22:03:56.580282Z,1.13858,-0.176781,1.0026329999999999
2018-10-15T22:03:56.783282Z,2.129253,-1.191912,0.864144
2018-10-15T22:03:56.985282Z,1.507379,-0.830731,-0.343927
2018-10-15T22:03:57.144282Z,-0.134638,0.373548,0.49659
2018-10-15T22:03:57.383282Z,-1.246365,-1.111201,1.272615
2018-10-15T22:03:57.587282Z,-0.45971300000000004,-1.04902,-0.6505529999999999
2018-10-15T22:03:57.786282Z,-0.394085,-0.369489,0.25385100000000005
2018-10-15T22:03:57.985282Z,-0.507808,-0.760364,0.9415469999999999
2018-10-15T22:03:58.188282Z,-0.544979,-0.9447209999999999,-0.821592
2018-10-15T22:03:58.388282Z,0.188796,-0.288775,-0.31111500000000003
2018-10-15T22:03:58.591282Z,1.69586,-0.0070090000000000005,2.037456
2018-10-15T22:03:58.786282Z,2.376353,-2.396375,0.7993819999999999
2018-10-15T22:03:58.987282Z,1.768719,-1.053825,-0.16156199999999998
2018-10-15T22:03:59.156282Z,-0.511081,-0.834649,0.157415
2018-10-15T22:03:59.365282Z,0.36283899999999997,-1.011147,1.524019
2018-10-15T22:03:59.567282Z,0.8217899999999999,-1.241033,-0.457371
2018-10-15T22:03:59.784282Z,0.202095,-1.284214,0.640824
2018-10-15T22:03:59.961282Z,-0.058588,-0.6151310000000001,1.211859
2018-10-15T22:04:00.163282Z,-0.136293,-1.7007830000000002,-0.074737
2018-10-15T22:04:00.367282Z,-0.233855,-1.147471,-0.047655
2018-10-15T22:04:00.560282Z,-0.48546999999999996,-0.24069899999999997,0.035897000000000005
2018-10-15T22:04:00.817282Z,0.051625,0.410678,-0.051729
2018-10-15T22:04:00.960282Z,-0.148895,-0.15978299999999998,0.970448
2018-10-15T22:04:01.163282Z,0.456941,-1.3598290000000002,0.031702
2018-10-15T22:04:01.359282Z,0.431619,-0.374817,-0.7477189999999999
2018-10-15T22:04:01.563282Z,0.7095279999999999,0.515606,0.09284400000000001
2018-10-15T22:04:01.820282Z,-0.45128,0.10628699999999999,1.374549
2018-10-15T22:04:01.961282Z,-0.743529,-1.086071,-0.524284
2018-10-15T22:04:02.178282Z,-0.675797,-0.574345,-0.513641
2018-10-15T22:04:02.361282Z,0.347656,0.508447,0.5478270000000001
2018-10-15T22:04:02.566282Z,1.0995059999999999,-0.83019,1.328741
2018-10-15T22:04:02.766282Z,0.750471,-0.75256,-0.739071
2018-10-15T22:04:03.037282Z,-0.143026,0.281378,-0.394877
2018-10-15T22:04:03.161282Z,-2.233861,0.09498999999999999,0.889223
2018-10-15T22:04:03.350282Z,-1.693269,-1.918105,0.691322
2018-10-15T22:04:03.550282Z,-0.514161,-1.295259,-0.21509
2018-10-15T22:04:03.766282Z,1.834583,-0.501757,-0.082649
2018-10-15T22:04:03.965282Z,-0.019726,0.65035,1.473206
2018-10-15T22:04:04.168282Z,-0.41138199999999997,-0.6048979999999999,-0.209831
2018-10-15T22:04:04.351282Z,0.18197,-0.41786,-0.20575
2018-10-15T22:04:04.568282Z,0.764706,0.470096,0.169783
2018-10-15T22:04:04.752282Z,-0.337389,-0.648652,0.004313
2018-10-15T22:04:04.974282Z,0.187529,-0.675581,-0.051885
2018-10-15T22:04:05.151282Z,0.13853800000000002,0.50883,0.0057929999999999995
2018-10-15T22:04:05.352282Z,0.287016,0.500161,0.584204
2018-10-15T22:04:05.566282Z,0.723255,-1.899172,0.944235
2018-10-15T22:04:05.769282Z,0.23643499999999998,-0.104872,-1.053267
2018-10-15T22:04:05.951282Z,0.9450120000000001,0.038389,0.108984
2018-10-15T22:04:06.160282Z,0.405923,0.5261140000000001,0.561286
2018-10-15T22:04:06.361282Z,0.37554299999999996,-1.2132100000000001,0.437224
2018-10-15T22:04:06.567282Z,0.783989,-0.122501,-0.774806
2018-10-15T22:04:06.767282Z,-0.002747,-0.22238000000000002,1.087799
2018-10-15T22:04:06.968282Z,1.081753,-0.655144,0.744142
2018-10-15T22:04:07.161282Z,1.413859,-0.383916,-0.817619
2018-10-15T22:04:07.364282Z,1.148037,-0.40422800000000003,1.019385
2018-10-15T22:04:07.584282Z,0.34623400000000004,-0.32013800000000003,0.234323
2018-10-15T22:04:07.756282Z,0.978092,0.22530300000000003,-0.545086
2018-10-15T22:04:07.967282Z,0.6403810000000001,0.0918,0.7213970000000001
2018-10-15T22:04:08.166282Z,1.057523,-0.040076,-0.186553
2018-10-15T22:04:08.369282Z,1.400659,0.275458,-0.6251899999999999
2018-10-15T22:04:08.569282Z,-0.352271,0.8638319999999999,0.827758
2018-10-15T22:04:08.754282Z,-0.279263,-0.396024,0.166537
2018-10-15T22:04:08.972282Z,0.147085,-0.6976100000000001,-0.482991
2018-10-15T22:04:09.173282Z,0.7621439999999999,0.106233,0.8880530000000001
2018-10-15T22:04:09.367282Z,1.445681,-0.760894,1.174556
2018-10-15T22:04:09.569282Z,1.499596,-0.915434,-0.666327
2018-10-15T22:04:09.768282Z,1.894875,-0.115683,0.36472899999999997
2018-10-15T22:04:09.971282Z,1.225902,-1.938714,2.101373
2018-10-15T22:04:10.169282Z,0.9195969999999999,-1.926748,0.45127399999999995
2018-10-15T22:04:10.372282Z,1.2154479999999999,-2.681885,1.0745959999999999
2018-10-15T22:04:10.574282Z,1.301539,-1.972916,0.824585
2018-10-15T22:04:10.774282Z,1.1531200000000001,-0.9822549999999999,0.037321
2018-10-15T22:04:10.966282Z,0.687304,-0.099878,0.9445459999999999
2018-10-15T22:04:11.167282Z,-0.685036,-0.30256700000000003,-0.373802
2018-10-15T22:04:11.370282Z,0.06512000000000001,-1.1423889999999999,-0.204049
2018-10-15T22:04:11.573282Z,0.036888,-0.058654,0.375175
2018-10-15T22:04:11.772282Z,0.221232,-0.860427,0.919434
2018-10-15T22:04:11.974282Z,0.14926,-1.455714,-0.531337
2018-10-15T22:04:12.173282Z,-0.142326,-0.49245600000000006,0.479653
2018-10-15T22:04:12.404282Z,-1.585046,-0.871445,1.377404
2018-10-15T22:04:12.575282Z,-1.3984379999999998,-1.611557,-0.27428600000000003
2018-10-15T22:04:12.776282Z,-0.579098,-1.292686,0.103679
2018-10-15T22:04:12.980282Z,-0.717737,-0.926538,0.827681
2018-10-15T22:04:13.175282Z,-0.9903219999999999,-1.263002,0.24458400000000002
2018-10-15T22:04:13.371282Z,-0.39965900000000004,-0.829764,0.236869
2018-10-15T22:04:13.573282Z,0.849017,-0.165103,0.5203810000000001
2018-10-15T22:04:13.775282Z,0.8357450000000001,0.39805799999999997,0.683948
2018-10-15T22:04:13.975282Z,0.736403,-0.8790959999999999,-0.265357
2018-10-15T22:04:14.176282Z,0.681433,-0.078909,-0.575919
2018-10-15T22:04:14.376282Z,-0.23434499999999997,0.337469,0.833219
2018-10-15T22:04:14.575282Z,0.835573,-0.5268390000000001,0.60724
2018-10-15T22:04:14.777282Z,0.669814,-0.398572,-1.12836
2018-10-15T22:04:14.977282Z,0.367295,0.605634,0.8755040000000001
2018-10-15T22:04:15.159282Z,0.299041,-0.687585,1.014074
2018-10-15T22:04:15.412282Z,0.351027,-0.9769639999999999,-1.067856
2018-10-15T22:04:15.559282Z,-0.782533,0.032389,0.021815
2018-10-15T22:04:15.774282Z,-1.8296430000000001,-1.3430600000000001,2.468142
2018-10-15T22:04:15.975282Z,-0.850626,-3.081425,0.372848
2018-10-15T22:04:16.176282Z,-0.29384899999999997,-3.919436,1.809102
2018-10-15T22:04:16.378282Z,0.354954,-3.3378870000000003,1.9459799999999998
2018-10-15T22:04:16.577282Z,0.8978370000000001,-1.406291,0.780137
2018-10-15T22:04:16.778282Z,0.70336,-1.245516,0.924006
2018-10-15T22:04:16.979282Z,0.69686,0.205146,-0.052788
2018-10-15T22:04:17.179282Z,1.015442,0.343717,0.8072560000000001
2018-10-15T22:04:17.385282Z,0.575929,-1.116578,0.318625
2018-10-15T22:04:17.576282Z,0.528658,-0.632721,-0.555167
2018-10-15T22:04:17.770282Z,0.828889,0.196186,0.035636
2018-10-15T22:04:17.960282Z,0.241802,0.854613,0.623346
2018-10-15T22:04:18.177282Z,0.258396,-1.469866,1.215531
2018-10-15T22:04:18.379282Z,0.586008,-0.728667,-1.285085
2018-10-15T22:04:18.577282Z,0.148268,0.642654,0.5008229999999999
2018-10-15T22:04:18.780282Z,0.595554,-0.359856,1.547513
2018-10-15T22:04:19.044282Z,0.403443,-1.102401,-0.8674379999999999
2018-10-15T22:04:19.162282Z,-0.29986599999999997,-0.022986000000000003,-0.29485500000000003
2018-10-15T22:04:19.377282Z,-0.20788600000000002,-0.010142,1.7279080000000002
2018-10-15T22:04:19.579282Z,0.518774,-1.2688110000000001,-0.378474
2018-10-15T22:04:19.779282Z,-0.191388,-0.5763149999999999,-0.371923
2018-10-15T22:04:19.982282Z,-0.46497200000000005,0.199053,1.539526
2018-10-15T22:04:20.236282Z,0.804347,-1.240638,-0.496558
2018-10-15T22:04:20.374282Z,-0.582084,-0.529224,-0.200121
2018-10-15T22:04:20.580282Z,-1.016735,-0.573024,1.150247
2018-10-15T22:04:20.763282Z,-1.6032309999999999,-1.655804,-0.141325
2018-10-15T22:04:20.980282Z,-0.33474699999999996,-0.8589319999999999,0.241194
2018-10-15T22:04:21.183282Z,0.427608,-0.08985399999999999,0.875551
2018-10-15T22:04:21.375282Z,0.177285,-1.366195,-0.025292
2018-10-15T22:04:21.577282Z,0.170765,-1.017399,-0.364637
2018-10-15T22:04:21.779282Z,1.1881700000000002,0.432411,0.609305
2018-10-15T22:04:21.978282Z,0.055876,-0.624687,0.573072
2018-10-15T22:04:22.185282Z,0.29643,-0.880085,0.007481
2018-10-15T22:04:22.379282Z,-0.23948899999999998,0.15771,-0.423961
2018-10-15T22:04:22.578282Z,0.116279,-0.149555,0.705025
2018-10-15T22:04:22.780282Z,1.259793,-0.142118,1.084493
2018-10-15T22:04:23.035282Z,0.9112239999999999,-0.9861770000000001,-0.26374000000000003
2018-10-15T22:04:23.179282Z,0.584642,0.183316,-0.837836
2018-10-15T22:04:23.381282Z,0.9753620000000001,0.455334,1.08976
2018-10-15T22:04:23.579282Z,0.28218499999999996,-0.8360549999999999,0.588179
2018-10-15T22:04:23.892282Z,0.966051,-0.810555,-0.8938879999999999
2018-10-15T22:04:23.980282Z,1.228855,0.728202,0.149081
2018-10-15T22:04:24.183282Z,2.457636,-0.7794399999999999,2.28633
2018-10-15T22:04:24.377282Z,2.330676,-1.15842,-0.921724
2018-10-15T22:04:24.566282Z,1.716884,-0.013263999999999998,0.386323
2018-10-15T22:04:24.787282Z,1.354789,-0.7543949999999999,1.6585169999999998
2018-10-15T22:04:25.043282Z,1.464961,-0.778669,-0.27372199999999997
2018-10-15T22:04:25.179282Z,-1.439034,-1.122042,-0.319614
2018-10-15T22:04:25.385282Z,-2.614729,-1.374722,1.2642959999999999
2018-10-15T22:04:25.584282Z,-2.2741849999999997,-1.351752,-0.11731099999999998
2018-10-15T22:04:25.768282Z,0.007456999999999999,-1.078407,-0.43405
2018-10-15T22:04:26.015282Z,1.75365,-0.049955,1.3222559999999999
2018-10-15T22:04:26.184282Z,1.034791,-0.296861,0.43111000000000005
2018-10-15T22:04:26.383282Z,1.819973,-0.094951,-0.24776900000000002
2018-10-15T22:04:26.582282Z,2.256524,0.553633,1.201756
2018-10-15T22:04:26.768282Z,2.518738,-1.233635,2.047911
2018-10-15T22:04:27.016282Z,1.0619120000000002,-1.227663,-0.6844600000000001
2018-10-15T22:04:27.169282Z,-0.764794,0.18018299999999998,0.41685900000000004
2018-10-15T22:04:27.369282Z,0.164757,-0.907769,0.45099399999999995
2018-10-15T22:04:27.613282Z,0.467996,-0.540809,-1.253212
2018-10-15T22:04:27.807282Z,0.589489,0.259048,1.0284209999999998
2018-10-15T22:04:28.010282Z,2.3157400000000004,-1.343407,1.2173530000000001
2018-10-15T22:04:28.207282Z,1.9486830000000002,-2.153267,0.48513900000000004
2018-10-15T22:04:28.379282Z,0.394154,-0.884503,0.225946
2018-10-15T22:04:28.586282Z,-0.888227,0.028961,1.367432
2018-10-15T22:04:28.784282Z,-0.150133,-2.041641,0.21762399999999998
2018-10-15T22:04:29.042282Z,0.5227229999999999,-0.445079,-1.317032
2018-10-15T22:04:29.183282Z,-0.046492,0.01608,1.177733
2018-10-15T22:04:29.399282Z,0.41914700000000005,-1.747809,1.909036
2018-10-15T22:04:29.586282Z,1.063617,-1.1717959999999998,-1.7989529999999998
2018-10-15T22:04:29.786282Z,0.43873100000000004,-0.288398,0.666177
2018-10-15T22:04:29.983282Z,-0.21418800000000002,-0.8269120000000001,1.53236
2018-10-15T22:04:30.170282Z,0.089408,-1.6902720000000002,-0.458438
2018-10-15T22:04:30.385282Z,-0.730585,-0.741416,-0.003868
2018-10-15T22:04:30.571282Z,-0.317712,-0.932276,1.585175
2018-10-15T22:04:30.781282Z,-0.352056,-2.008125,0.054783000000000005
2018-10-15T22:04:30.986282Z,0.026664999999999998,-0.307316,-1.001208
2018-10-15T22:04:31.189282Z,-0.40871599999999997,-0.316677,1.100269
2018-10-15T22:04:31.387282Z,-0.99997,-1.000567,0.243088
2018-10-15T22:04:31.573282Z,-0.41809300000000005,-0.226858,-0.510679
2018-10-15T22:04:31.772282Z,0.011432,0.960283,0.20877199999999999
2018-10-15T22:04:31.994282Z,0.896858,0.659644,0.7461810000000001
2018-10-15T22:04:32.187282Z,1.2898969999999998,-1.3995,0.711309
2018-10-15T22:04:32.375282Z,0.8524440000000001,-0.610644,-0.890493
2018-10-15T22:04:32.587282Z,-1.23614,0.035774,0.2975
2018-10-15T22:04:32.787282Z,-1.8274029999999999,-1.6906310000000002,0.32053400000000004
2018-10-15T22:04:32.990282Z,-0.739687,-1.087076,-0.053628999999999996
2018-10-15T22:04:33.191282Z,0.479871,0.416551,0.199488
2018-10-15T22:04:33.391282Z,0.9620139999999999,0.609334,0.4194
2018-10-15T22:04:33.592282Z,1.2473319999999999,-0.420461,0.636471
2018-10-15T22:04:33.791282Z,1.226792,-0.201513,-0.390619
2018-10-15T22:04:33.990282Z,1.251917,0.104299,0.8528370000000001
2018-10-15T22:04:34.188282Z,1.356447,-1.188907,1.189331
2018-10-15T22:04:34.391282Z,0.48384099999999997,-1.089223,-0.623235
2018-10-15T22:04:34.588282Z,1.0241069999999999,0.086341,0.325063
2018-10-15T22:04:34.788282Z,1.6653939999999998,-0.738341,0.784989
2018-10-15T22:04:34.988282Z,1.6885740000000002,-0.145624,-0.271449
2018-10-15T22:04:35.191282Z,1.486481,-0.014512,0.541032
2018-10-15T22:04:35.377282Z,1.094106,-0.033014999999999996,0.18320799999999998
2018-10-15T22:04:35.593282Z,0.730971,-0.965543,0.565752
2018-10-15T22:04:35.833282Z,1.070279,-0.073685,-1.057331
2018-10-15T22:04:35.976282Z,-1.6924860000000002,0.30053,0.585159
2018-10-15T22:04:36.181282Z,-1.987744,-1.2207540000000001,1.986391
2018-10-15T22:04:36.396282Z,-1.687546,-1.490444,-1.2440959999999999
2018-10-15T22:04:36.591282Z,-1.7720919999999998,-0.733254,-0.40218000000000004
2018-10-15T22:04:36.777282Z,-0.365525,-0.581526,0.6981649999999999
2018-10-15T22:04:36.994282Z,-0.023568000000000002,-1.2861209999999998,0.6636920000000001
2018-10-15T22:04:37.197282Z,0.9547530000000001,-0.336059,-0.722246
2018-10-15T22:04:37.392282Z,0.9358540000000001,0.388804,1.33267
2018-10-15T22:04:37.656282Z,1.181239,-0.491624,0.516785
2018-10-15T22:04:37.790282Z,1.380032,0.322058,-1.282746
2018-10-15T22:04:37.992282Z,0.172715,0.6481319999999999,1.2542229999999999
2018-10-15T22:04:38.193282Z,0.096782,-0.682984,0.39045100000000005
2018-10-15T22:04:38.389282Z,0.148764,-0.333631,-1.163047
2018-10-15T22:04:38.590282Z,-0.516496,0.9602799999999999,-0.255266
2018-10-15T22:04:38.793282Z,0.868592,-0.438226,1.486959
2018-10-15T22:04:38.994282Z,0.854033,-1.041116,-0.7553890000000001
2018-10-15T22:04:39.228282Z,1.324014,0.065576,-0.456742
2018-10-15T22:04:39.394282Z,-0.569063,0.707332,1.6191870000000002
2018-10-15T22:04:39.603282Z,-0.016431,-0.518599,-0.63072
2018-10-15T22:04:39.790282Z,0.301175,0.149151,-0.602731
2018-10-15T22:04:39.979282Z,0.367799,0.257079,1.8311419999999998
2018-10-15T22:04:40.205282Z,1.17156,-0.9085489999999999,-0.542309
2018-10-15T22:04:40.395282Z,0.457217,0.23344,-0.86315
2018-10-15T22:04:40.593282Z,0.479555,0.013482,1.995011
2018-10-15T22:04:40.795282Z,0.21524000000000001,-1.095345,-0.512049
2018-10-15T22:04:40.995282Z,-0.614657,0.10162,-1.626288
2018-10-15T22:04:41.193282Z,-0.449408,0.615445,1.359346
2018-10-15T22:04:41.391282Z,0.630948,-1.037096,0.057721
2018-10-15T22:04:41.594282Z,-0.417279,0.518976,-1.292111
2018-10-15T22:04:41.831282Z,-0.9968549999999999,0.523573,0.975827
2018-10-15T22:04:42.000282Z,-0.5085529999999999,-1.13588,1.236035
2018-10-15T22:04:42.198282Z,0.452388,-1.1486379999999998,-0.431274
2018-10-15T22:04:42.400282Z,0.27184400000000003,0.394701,0.277781
2018-10-15T22:04:42.595282Z,-0.350596,-0.251252,0.556868
2018-10-15T22:04:42.794282Z,-0.185719,-0.409119,-1.292692
2018-10-15T22:04:42.996282Z,0.494596,0.560479,0.306778
2018-10-15T22:04:43.182282Z,-0.778784,-0.40470300000000003,1.7279959999999999
2018-10-15T22:04:43.401282Z,0.058199,-0.9801469999999999,-0.8233459999999999
2018-10-15T22:04:43.597282Z,0.808403,0.11748399999999999,-0.087134
2018-10-15T22:04:43.798282Z,0.694481,-0.629799,1.7465509999999997
2018-10-15T22:04:43.996282Z,0.400334,-0.847982,-0.741035
2018-10-15T22:04:44.183282Z,-0.8726700000000001,0.077269,-1.353253
2018-10-15T22:04:44.383282Z,-0.674003,-0.489996,1.378636
2018-10-15T22:04:44.597282Z,-0.737588,-1.5386879999999998,0.23205100000000004
2018-10-15T22:04:44.800282Z,-0.20538299999999998,-0.752988,-0.45184300000000005
2018-10-15T22:04:44.984282Z,-0.262653,-0.678826,1.261393
2018-10-15T22:04:45.185282Z,1.658375,-0.618387,0.574589
2018-10-15T22:04:45.403282Z,0.406615,-1.075819,-0.967126
2018-10-15T22:04:45.605282Z,1.8174689999999998,0.31303600000000004,0.964541
2018-10-15T22:04:45.797282Z,0.8594149999999999,-0.791329,1.416359
2018-10-15T22:04:45.983282Z,1.402995,-0.666564,-0.66081
2018-10-15T22:04:46.199282Z,0.8030520000000001,-0.059311,-0.065802
2018-10-15T22:04:46.399282Z,1.124534,-0.046234,1.71802
2018-10-15T22:04:46.599282Z,1.362552,-0.140934,-0.8078989999999999
2018-10-15T22:04:46.802282Z,1.335468,-0.42887200000000003,0.211704
2018-10-15T22:04:46.987282Z,1.220134,-0.460454,1.542514
2018-10-15T22:04:47.194282Z,1.325006,-1.340447,-0.142824
2018-10-15T22:04:47.400282Z,1.8180599999999998,-0.41235,0.322862
2018-10-15T22:04:47.599282Z,1.084862,0.034724,0.600536
2018-10-15T22:04:47.802282Z,1.0278479999999999,-1.35768,0.752725
2018-10-15T22:04:47.987282Z,1.334853,-0.681762,-0.262232
2018-10-15T22:04:48.197282Z,0.303058,-0.11396300000000001,1.279547
2018-10-15T22:04:48.403282Z,1.6990880000000002,-0.673161,0.106946
2018-10-15T22:04:48.601282Z,1.0380280000000002,-0.43071899999999996,0.094347
2018-10-15T22:04:48.800282Z,1.169633,-0.802925,0.9689110000000001
2018-10-15T22:04:49.001282Z,1.471919,-1.7360099999999998,1.103648
2018-10-15T22:04:49.204282Z,1.106735,-1.139451,-0.080223
2018-10-15T22:04:49.406282Z,-0.32771300000000003,-0.5733060000000001,1.256294
2018-10-15T22:04:49.598282Z,-0.24026199999999998,-1.2989190000000002,0.496721
2018-10-15T22:04:49.801282Z,-0.43939399999999995,-0.9594540000000001,-0.7795380000000001
2018-10-15T22:04:50.004282Z,0.036389,0.251211,0.707613
2018-10-15T22:04:50.203282Z,-0.22466,-1.167453,0.795774
2018-10-15T22:04:50.405282Z,-0.408294,-1.049669,-0.9879049999999999
2018-10-15T22:04:50.608282Z,0.81586,-0.458433,0.7548090000000001
2018-10-15T22:04:50.805282Z,-1.0958860000000001,-0.580228,1.303403
2018-10-15T22:04:50.999282Z,0.045035000000000006,-0.884134,-1.179867
2018-10-15T22:04:51.199282Z,-0.5118189999999999,0.022678999999999998,-0.347597
2018-10-15T22:04:51.403282Z,-1.825216,-0.44641099999999995,1.271798
2018-10-15T22:04:51.604282Z,-1.487969,-1.926765,-0.751402
2018-10-15T22:04:51.803282Z,-1.364519,-1.291759,-0.472096
2018-10-15T22:04:52.007282Z,0.393445,-0.15731900000000001,1.33517
2018-10-15T22:04:52.204282Z,0.702279,-0.891227,0.9094909999999999
2018-10-15T22:04:52.406282Z,0.768421,-0.707909,-1.065156
2018-10-15T22:04:52.605282Z,-1.682793,0.379643,-0.211362
2018-10-15T22:04:52.803282Z,-1.855463,-0.499321,0.51651
2018-10-15T22:04:53.003282Z,-0.669672,-1.036131,-0.395955
2018-10-15T22:04:53.203282Z,-0.203163,-0.580389,0.257819
2018-10-15T22:04:53.389282Z,0.5108,0.426634,1.0842370000000001
2018-10-15T22:04:53.590282Z,0.8305389999999999,-1.667847,0.526752
2018-10-15T22:04:53.810282Z,0.990232,-0.631342,-0.559342
2018-10-15T22:04:54.007282Z,1.7704939999999998,0.744498,1.491201
2018-10-15T22:04:54.190282Z,0.973448,-1.116021,0.9532149999999999
2018-10-15T22:04:54.390282Z,0.8989940000000001,-0.574868,-0.8331270000000001
2018-10-15T22:04:54.607282Z,0.28841500000000003,0.5166029999999999,0.376913
2018-10-15T22:04:54.791282Z,-0.259346,-0.8796299999999999,1.308759
2018-10-15T22:04:55.006282Z,1.040158,-0.607086,-0.664747
2018-10-15T22:04:55.209282Z,0.748858,-0.257604,0.29552
2018-10-15T22:04:55.440282Z,0.347734,-0.842052,1.745629
2018-10-15T22:04:55.610282Z,-0.093567,-1.176559,-0.520706
2018-10-15T22:04:55.802282Z,-1.484907,-1.5514709999999998,-0.279003
2018-10-15T22:04:56.007282Z,-1.6765919999999999,-2.54895,1.332403
2018-10-15T22:04:56.205282Z,-0.599226,-2.544899,0.9849450000000001
2018-10-15T22:04:56.393282Z,0.039326,-3.178442,1.576063
2018-10-15T22:04:56.612282Z,0.22141799999999998,-1.3192700000000002,0.45089399999999996
2018-10-15T22:04:56.812282Z,0.823098,-1.433489,1.2814370000000002
2018-10-15T22:04:57.028282Z,1.5989010000000001,-1.372457,0.38598699999999997
2018-10-15T22:04:57.206282Z,1.604381,0.9712940000000001,0.350283
2018-10-15T22:04:57.417282Z,0.033744,-0.394452,1.870895
2018-10-15T22:04:57.608282Z,0.09255,-1.181124,-1.137466
2018-10-15T22:04:57.820282Z,-0.696782,-0.083255,-0.902581
2018-10-15T22:04:58.010282Z,0.279089,0.745749,1.444528
2018-10-15T22:04:58.211282Z,1.3833360000000001,-1.7977919999999998,0.6129359999999999
2018-10-15T22:04:58.435282Z,0.6398729999999999,-0.999555,-0.403496
2018-10-15T22:04:58.594282Z,0.377537,0.327138,0.96631
2018-10-15T22:04:58.835282Z,-1.551835,-0.298154,-0.277038
2018-10-15T22:04:59.008282Z,-1.29887,-1.1791639999999999,-0.8421639999999999
2018-10-15T22:04:59.194282Z,-0.288499,0.021372,0.5662470000000001
2018-10-15T22:04:59.435282Z,-0.0051340000000000005,-0.09882,0.954018
2018-10-15T22:04:59.712282Z,0.9970600000000001,-1.5287030000000001,0.051713999999999996
2018-10-15T22:04:59.794282Z,-0.058909,0.31000900000000003,-0.6420859999999999
2018-10-15T22:05:00.006282Z,-1.276661,-0.57314,0.934725
2018-10-15T22:05:00.209282Z,0.21690399999999999,-1.403508,0.24572199999999997
2018-10-15T22:05:00.409282Z,1.049341,-0.5112899999999999,-0.09324299999999999
2018-10-15T22:05:00.595282Z,-0.196915,0.194332,-0.04034
2018-10-15T22:05:00.813282Z,-1.428174,-0.440899,0.37380599999999997
2018-10-15T22:05:01.010282Z,-0.473397,-0.294632,-0.520412
2018-10-15T22:05:01.211282Z,0.41127600000000003,0.120407,-0.22171999999999997
2018-10-15T22:05:01.397282Z,1.546571,0.277444,0.632287
2018-10-15T22:05:01.615282Z,0.621341,-0.264088,1.640659
2018-10-15T22:05:01.804282Z,1.090701,-1.310483,0.50674
2018-10-15T22:05:02.010282Z,1.099648,-0.054823000000000004,-0.8200139999999999
2018-10-15T22:05:02.212282Z,1.067249,1.47569,0.9503870000000001
2018-10-15T22:05:02.396282Z,2.344218,-0.817016,1.154827
2018-10-15T22:05:02.608282Z,1.326555,-0.354059,-0.35643
2018-10-15T22:05:02.811282Z,0.755058,-0.301766,0.6925680000000001
2018-10-15T22:05:02.998282Z,0.643464,-1.057679,1.011607
2018-10-15T22:05:03.198282Z,1.317863,-1.1330129999999998,0.00632
2018-10-15T22:05:03.399282Z,-0.150338,0.48594899999999996,-0.48801000000000005
2018-10-15T22:05:03.612282Z,0.093193,-0.462772,1.8559900000000003
2018-10-15T22:05:03.814282Z,0.457888,-1.234212,-0.9259569999999999
2018-10-15T22:05:03.998282Z,-1.515803,-0.662096,-0.907199
2018-10-15T22:05:04.199282Z,-2.552282,-0.32200100000000004,1.073229
2018-10-15T22:05:04.399282Z,-1.8899110000000001,-1.662233,0.017034999999999998
2018-10-15T22:05:04.617282Z,-0.610761,-0.810712,-0.325277
2018-10-15T22:05:04.799282Z,-0.42451400000000006,-0.204754,0.523687
2018-10-15T22:05:04.999282Z,-0.250594,-0.671269,0.650989
2018-10-15T22:05:05.200282Z,0.131425,-0.187326,-0.39224499999999995
2018-10-15T22:05:05.428282Z,1.002076,0.220594,0.282495
2018-10-15T22:05:05.600282Z,1.163038,-0.10491600000000001,1.471606
