Datetime,accx,accy,accz
2018-10-24T15:04:36.187176Z,-1.4906620000000002,0.225647,0.296265
2018-10-24T15:04:36.387176Z,1.365601,2.759033,-0.845642
2018-10-24T15:04:36.587176Z,-0.42865,0.423645,-1.0139770000000001
2018-10-24T15:04:36.788176Z,-0.7013550000000001,-0.5507810000000001,0.8227540000000001
2018-10-24T15:04:36.987176Z,-1.583984,-1.27594,0.531799
2018-10-24T15:04:37.187176Z,-1.7985229999999999,-0.905701,0.763977
2018-10-24T15:04:37.387176Z,-1.8809810000000002,0.040039,-1.013733
2018-10-24T15:04:37.588176Z,-0.117004,-0.082153,1.198242
2018-10-24T15:04:37.790176Z,-0.453247,-1.241028,0.137573
2018-10-24T15:04:37.988176Z,-1.303528,-0.49298100000000006,-1.8157349999999999
2018-10-24T15:04:38.188176Z,-1.312317,0.249207,1.078491
2018-10-24T15:04:38.389176Z,-1.755127,-1.487976,1.266357
2018-10-24T15:04:38.589176Z,-1.369934,-0.9230959999999999,-1.4841309999999999
2018-10-24T15:04:38.825176Z,-1.4789430000000001,-0.540588,0.251038
2018-10-24T15:04:38.988176Z,0.482666,-1.649414,0.516418
2018-10-24T15:04:39.188176Z,-1.564331,-1.0863040000000002,-0.977234
2018-10-24T15:04:39.389176Z,-0.892273,-0.005249,0.069397
2018-10-24T15:04:39.588176Z,-1.324463,-0.80011,0.8677370000000001
2018-10-24T15:04:39.788176Z,-1.597229,-1.6290280000000001,0.147034
2018-10-24T15:04:39.987176Z,-1.570435,0.068237,0.042542
2018-10-24T15:04:40.188176Z,0.102966,-0.78363,0.923035
2018-10-24T15:04:40.387176Z,-1.782227,-1.552368,0.25415
2018-10-24T15:04:40.587176Z,-1.496216,-0.28479,0.21435500000000002
2018-10-24T15:04:40.804176Z,-2.249329,-1.635132,1.246338
2018-10-24T15:04:40.987176Z,-1.8249509999999998,-1.7528080000000001,-0.29388400000000003
2018-10-24T15:04:41.191176Z,-1.399109,-0.527405,-0.14856
2018-10-24T15:04:41.395176Z,-0.442871,-0.34777800000000003,0.177612
2018-10-24T15:04:41.587176Z,-0.151611,-1.227478,-0.028931000000000002
2018-10-24T15:04:41.789176Z,-0.39007600000000003,0.122253,-0.140259
2018-10-24T15:04:41.990176Z,-0.981873,-0.286682,0.506287
2018-10-24T15:04:42.188176Z,-1.406189,-1.2901610000000001,0.10931400000000001
2018-10-24T15:04:42.388176Z,-0.610229,-0.17395,-0.414734
2018-10-24T15:04:42.589176Z,-0.184692,-1.569397,0.902832
2018-10-24T15:04:42.793176Z,-0.575928,-0.275391,-1.226868
2018-10-24T15:04:42.988176Z,-1.4902950000000001,-0.195435,1.55426
2018-10-24T15:04:43.187176Z,-0.286682,-1.0972899999999999,0.47454799999999997
2018-10-24T15:04:43.387176Z,-0.594482,-0.5432739999999999,-1.667664
2018-10-24T15:04:43.588176Z,-0.550293,-0.507568,0.8922120000000001
2018-10-24T15:04:43.788176Z,1.223511,-0.702759,-2.076721
2018-10-24T15:04:43.987176Z,-0.332092,0.541077,-0.023499000000000003
2018-10-24T15:04:44.187176Z,-1.984619,0.021301,1.1382450000000002
2018-10-24T15:04:44.387176Z,-1.898132,-1.8927,-0.48651099999999997
2018-10-24T15:04:44.587176Z,-0.453979,-0.690674,0.019653
2018-10-24T15:04:44.789176Z,-1.777222,-1.178528,1.9971919999999999
2018-10-24T15:04:44.989176Z,-1.225586,-0.13861099999999998,-1.317749
2018-10-24T15:04:45.268176Z,-1.88208,0.397827,1.9533080000000003
2018-10-24T15:04:45.388176Z,-2.444397,-1.1328120000000002,-1.139404
2018-10-24T15:04:45.587176Z,-2.318665,-0.768372,-1.4291989999999999
2018-10-24T15:04:45.788176Z,-1.8937990000000002,-0.28833000000000003,0.876099
2018-10-24T15:04:45.988176Z,-2.085449,-0.9238280000000001,-0.5291140000000001
2018-10-24T15:04:46.188176Z,-3.311707,0.106018,-0.350952
2018-10-24T15:04:46.388176Z,-3.0904540000000003,0.138062,0.751038
2018-10-24T15:04:46.587176Z,-3.795349,-0.746521,-0.540161
2018-10-24T15:04:46.787176Z,-2.458801,-0.048645,-1.6919560000000002
2018-10-24T15:04:46.987176Z,-2.568542,0.8272709999999999,1.50061
2018-10-24T15:04:47.187176Z,-1.790039,-0.138489,0.307129
2018-10-24T15:04:47.392176Z,-1.850281,1.0224,-0.675964
2018-10-24T15:04:47.596176Z,-2.397095,1.883057,-0.454041
2018-10-24T15:04:47.788176Z,-3.6433720000000003,0.08514400000000001,-0.955994
2018-10-24T15:04:47.987176Z,-3.3702389999999998,0.7734989999999999,-0.6386109999999999
2018-10-24T15:04:48.189176Z,-1.264465,1.46167,-0.968201
2018-10-24T15:04:48.387176Z,-0.891541,2.2197270000000002,0.809021
2018-10-24T15:04:48.588176Z,-0.825073,0.26818800000000004,-1.223267
2018-10-24T15:04:48.788176Z,-0.40741,1.704468,-0.975037
2018-10-24T15:04:48.988176Z,-0.036316,2.476074,-1.188843
2018-10-24T15:04:49.188176Z,0.310852,1.762939,-0.126099
2018-10-24T15:04:49.589176Z,-0.34137,0.405945,-0.728943
2018-10-24T15:04:49.787176Z,-0.8912959999999999,1.006042,-0.22583000000000003
2018-10-24T15:04:49.996176Z,0.359985,1.9356080000000002,-0.766968
2018-10-24T15:04:50.188176Z,-1.5722049999999999,0.551758,0.751099
2018-10-24T15:04:50.388176Z,-1.0668950000000001,1.696655,-1.8482669999999999
2018-10-24T15:04:50.587176Z,-0.674927,2.743225,-0.893494
2018-10-24T15:04:50.787176Z,-0.9163819999999999,1.033691,1.227966
2018-10-24T15:04:50.987176Z,-0.13446,-0.284729,-0.770081
2018-10-24T15:04:51.187176Z,-0.168152,0.856201,-1.096802
2018-10-24T15:04:51.388176Z,-0.730103,1.170044,-0.45098900000000003
2018-10-24T15:04:51.588176Z,0.7052609999999999,0.707642,0.424072
2018-10-24T15:04:51.788176Z,0.40612800000000004,-0.411499,-1.4328
2018-10-24T15:04:51.988176Z,-0.098083,0.467529,-0.333862
2018-10-24T15:04:52.188176Z,0.444092,0.38861100000000004,-0.24682600000000002
2018-10-24T15:04:52.399176Z,0.557373,-1.114685,-0.254272
2018-10-24T15:04:52.587176Z,0.6111449999999999,-0.5249020000000001,-0.8673709999999999
2018-10-24T15:04:52.788176Z,-0.812317,-0.22540300000000002,-0.45367399999999997
2018-10-24T15:04:52.988176Z,-0.6608890000000001,0.361572,-0.249023
2018-10-24T15:04:53.187176Z,-0.13403299999999999,1.525696,-1.3583370000000001
2018-10-24T15:04:53.393176Z,0.035828,0.529663,-0.125366
2018-10-24T15:04:53.587176Z,0.882202,0.574341,-0.391296
2018-10-24T15:04:53.787176Z,0.09436,1.827698,-0.630676
2018-10-24T15:04:53.987176Z,-0.017883,0.771301,-0.146179
2018-10-24T15:04:54.193176Z,-0.934448,-0.6054689999999999,0.243835
2018-10-24T15:04:54.388176Z,-0.635742,0.786072,-1.852234
2018-10-24T15:04:54.587176Z,-0.663818,1.462646,-1.155457
2018-10-24T15:04:54.787176Z,-0.21655300000000002,0.873657,-0.7537229999999999
2018-10-24T15:04:54.988176Z,1.258484,-0.536499,-2.137207
2018-10-24T15:04:55.188176Z,0.7858890000000001,1.458008,-1.125305
2018-10-24T15:04:55.388176Z,-0.197998,1.632141,-0.730042
2018-10-24T15:04:55.587176Z,-0.088928,0.494751,1.281616
2018-10-24T15:04:55.789176Z,0.554504,-1.531982,0.42395
2018-10-24T15:04:56.127176Z,0.509521,-0.394958,-0.84436
2018-10-24T15:04:56.188176Z,0.34692399999999995,0.692871,-1.035217
2018-10-24T15:04:56.388176Z,0.40936300000000003,0.808411,0.32311999999999996
2018-10-24T15:04:56.588176Z,0.562134,-0.744751,0.329407
2018-10-24T15:04:56.789176Z,0.45977799999999996,-0.402527,-0.736328
2018-10-24T15:04:56.987176Z,0.638062,1.8499759999999998,-1.33075
2018-10-24T15:04:57.187176Z,-0.536133,1.7745360000000001,0.598755
2018-10-24T15:04:57.387176Z,-0.802917,-0.062134,0.9456180000000001
2018-10-24T15:04:57.592176Z,-0.255859,-0.0755,-0.820801
2018-10-24T15:04:57.787176Z,0.519592,1.493835,0.119629
2018-10-24T15:04:57.987176Z,0.5700069999999999,1.4064940000000001,0.26251199999999997
2018-10-24T15:04:58.188176Z,0.737,-0.618286,-0.097412
2018-10-24T15:04:58.387176Z,-1.315491,1.113525,-1.39325
2018-10-24T15:04:58.587176Z,-0.098816,2.503967,0.16333
2018-10-24T15:04:58.788176Z,-0.151978,0.032654,-0.439209
2018-10-24T15:04:58.988176Z,-0.146484,0.281982,-1.8526
2018-10-24T15:04:59.190176Z,-0.47357200000000005,1.218323,-0.23217800000000002
2018-10-24T15:04:59.390176Z,0.5391239999999999,0.096863,0.39074699999999996
2018-10-24T15:04:59.588176Z,0.746826,1.176025,-2.083801
2018-10-24T15:04:59.875176Z,0.616272,1.953491,0.0401
2018-10-24T15:04:59.987176Z,0.914917,0.6072390000000001,-0.10790999999999999
2018-10-24T15:05:00.189176Z,-1.567444,-1.46875,-0.11529500000000001
2018-10-24T15:05:00.393176Z,-0.429932,-0.455872,0.604309
2018-10-24T15:05:00.588176Z,-0.05072,0.365356,0.132385
2018-10-24T15:05:00.787176Z,-0.214783,-0.109253,-0.256714
2018-10-24T15:05:00.987176Z,2.517395,-0.837341,0.9528200000000001
2018-10-24T15:05:01.187176Z,2.060913,-1.074402,0.146179
2018-10-24T15:05:01.387176Z,0.775696,-0.906616,1.28241
2018-10-24T15:05:01.588176Z,-0.75293,0.646667,-0.803772
2018-10-24T15:05:01.787176Z,-0.6037600000000001,0.417175,-0.9512940000000001
2018-10-24T15:05:01.994176Z,-0.981323,0.300415,-0.924133
2018-10-24T15:05:02.188176Z,-1.346375,1.411133,-0.625549
2018-10-24T15:05:02.389176Z,1.8038330000000002,-0.07635499999999999,-0.10693399999999999
2018-10-24T15:05:02.588176Z,0.739502,-0.383301,-1.067749
2018-10-24T15:05:02.787176Z,-1.224365,1.119507,-0.050963999999999995
2018-10-24T15:05:02.988176Z,-1.576355,-0.33105500000000004,1.290222
2018-10-24T15:05:03.188176Z,0.07312,0.46380600000000005,-0.8207399999999999
2018-10-24T15:05:03.388176Z,-0.626709,0.86377,-0.40826399999999996
2018-10-24T15:05:03.589176Z,-0.667297,-0.458862,0.514099
2018-10-24T15:05:03.790176Z,0.232483,0.23645,-2.2355959999999997
2018-10-24T15:05:04.007176Z,-0.208191,1.076416,-0.256592
2018-10-24T15:05:04.188176Z,-1.855225,-1.081116,1.907043
2018-10-24T15:05:04.588176Z,1.353149,-1.7274169999999998,0.540283
2018-10-24T15:05:04.787176Z,0.586853,-2.587036,0.7377319999999999
2018-10-24T15:05:04.988176Z,-1.9948119999999998,-2.1335450000000002,1.237488
2018-10-24T15:05:05.187176Z,-0.9154049999999999,-0.42248500000000005,-0.329163
2018-10-24T15:05:05.387176Z,0.680176,-0.17724600000000001,-0.49713100000000005
2018-10-24T15:05:05.591176Z,-0.474365,0.762878,0.439087
2018-10-24T15:05:05.788176Z,-1.416809,0.859985,-0.052368
2018-10-24T15:05:05.990176Z,-0.437866,1.38269,-0.815063
2018-10-24T15:05:06.192176Z,-0.503296,2.1902470000000003,-0.631165
2018-10-24T15:05:06.393176Z,-1.1964110000000001,1.6818240000000002,0.017578
2018-10-24T15:05:06.588176Z,-0.6583859999999999,-0.976318,-1.0183719999999998
2018-10-24T15:05:06.788176Z,-1.197815,-0.079468,-1.757568
2018-10-24T15:05:06.988176Z,-1.052612,0.715881,1.1740110000000001
2018-10-24T15:05:07.188176Z,1.773743,-0.5607300000000001,0.31433099999999997
2018-10-24T15:05:07.390176Z,0.616333,1.151306,-2.429871
2018-10-24T15:05:07.588176Z,-0.12243699999999999,1.726379,0.805176
2018-10-24T15:05:07.787176Z,-0.802551,-1.123535,0.168579
2018-10-24T15:05:07.987176Z,0.1026,-0.5745239999999999,-2.286987
2018-10-24T15:05:08.187176Z,-1.156616,0.397095,0.11456300000000001
2018-10-24T15:05:08.387176Z,0.356628,-0.9996950000000001,0.33813499999999996
2018-10-24T15:05:08.587176Z,-1.6583860000000001,0.392212,-3.1540529999999998
2018-10-24T15:05:08.787176Z,0.310303,0.866516,-0.541687
2018-10-24T15:05:08.987176Z,-0.384338,-0.740051,0.748108
2018-10-24T15:05:09.195176Z,-1.9811400000000001,-2.344482,0.491699
2018-10-24T15:05:09.390176Z,-1.446655,-0.8236690000000001,2.0661009999999997
2018-10-24T15:05:09.600176Z,-1.469299,-0.20086700000000002,0.252197
2018-10-24T15:05:09.789176Z,-1.6412349999999998,0.246033,0.41394
2018-10-24T15:05:09.988176Z,-1.575256,0.09491000000000001,-0.780701
2018-10-24T15:05:10.188176Z,-1.5183719999999998,0.34875500000000004,0.042602999999999995
2018-10-24T15:05:10.388176Z,-0.9036870000000001,0.363037,-0.14288299999999998
2018-10-24T15:05:10.589176Z,-0.052246,-0.406555,0.8788450000000001
2018-10-24T15:05:10.790176Z,0.418213,-0.637207,0.015808000000000003
2018-10-24T15:05:10.987176Z,-0.0401,-0.148499,-0.032593000000000004
2018-10-24T15:05:11.187176Z,0.430237,0.733276,0.874084
2018-10-24T15:05:11.388176Z,-0.48187299999999994,-0.895508,1.222961
2018-10-24T15:05:11.613176Z,-0.269531,-1.553955,-0.17218
2018-10-24T15:05:11.794176Z,0.028137,-1.1171879999999998,0.633484
2018-10-24T15:05:11.987176Z,0.244934,-0.47229,1.1256709999999999
2018-10-24T15:05:12.187176Z,0.041138,-1.085876,-0.264282
2018-10-24T15:05:12.404176Z,0.9897459999999999,0.381958,0.068115
2018-10-24T15:05:12.589176Z,-0.190186,1.044189,0.30127
2018-10-24T15:05:12.789176Z,0.364807,0.786255,0.735413
2018-10-24T15:05:12.988176Z,-0.740356,-0.466736,-0.008362
2018-10-24T15:05:13.188176Z,-0.638,0.9194950000000001,-0.645813
2018-10-24T15:05:13.388176Z,0.673096,0.608643,-0.420288
2018-10-24T15:05:13.588176Z,0.61908,-0.669434,-0.016296
2018-10-24T15:05:13.788176Z,-0.24078400000000003,1.0447389999999999,-1.635376
2018-10-24T15:05:13.989176Z,0.324158,1.498901,0.639954
2018-10-24T15:05:14.241176Z,1.206726,-0.5488890000000001,1.569336
2018-10-24T15:05:14.387176Z,-0.966614,-1.237854,-1.223816
2018-10-24T15:05:14.587176Z,-1.695801,-0.389282,0.031067
2018-10-24T15:05:14.787176Z,-3.0588990000000003,-0.409119,-0.041076999999999995
2018-10-24T15:05:14.988176Z,-0.888733,-0.20916700000000002,1.75531
2018-10-24T15:05:15.187176Z,0.901184,-0.806702,0.043579
2018-10-24T15:05:15.387176Z,0.722046,-0.944153,-0.102112
2018-10-24T15:05:15.587176Z,0.590271,-0.12481700000000001,0.19934100000000002
2018-10-24T15:05:15.787176Z,-0.069885,0.29882800000000004,1.002991
2018-10-24T15:05:15.988176Z,-0.56311,-1.625427,0.994812
2018-10-24T15:05:16.189176Z,0.738525,-1.397644,0.285461
2018-10-24T15:05:16.388176Z,0.7772220000000001,-0.585938,0.121948
2018-10-24T15:05:16.589176Z,-0.48321499999999995,-2.5755,2.654419
2018-10-24T15:05:16.791176Z,0.704285,-0.543762,0.49676499999999996
2018-10-24T15:05:16.988176Z,1.1964110000000001,0.12353499999999999,-0.447266
2018-10-24T15:05:17.189176Z,1.0921020000000001,1.997925,0.9869379999999999
2018-10-24T15:05:17.388176Z,-0.9593510000000001,0.117004,1.542358
2018-10-24T15:05:17.588176Z,-0.420044,-0.525146,-0.22027600000000003
2018-10-24T15:05:17.787176Z,-0.15741,0.515137,-0.9119870000000001
2018-10-24T15:05:17.987176Z,-0.000549,1.052124,-0.063599
2018-10-24T15:05:18.189176Z,-0.171631,-0.533508,1.019958
2018-10-24T15:05:18.387176Z,0.43878199999999995,0.340149,-0.753967
2018-10-24T15:05:18.606176Z,1.512634,0.732117,0.8705440000000001
2018-10-24T15:05:18.788176Z,3.4452510000000003,-1.4848629999999998,-0.23217800000000002
2018-10-24T15:05:18.987176Z,1.7284549999999999,-0.523804,-0.16308599999999998
2018-10-24T15:05:19.188176Z,-0.052979,1.284424,0.387146
2018-10-24T15:05:19.388176Z,0.396423,0.439026,1.1271360000000001
2018-10-24T15:05:19.590176Z,0.324646,1.401917,-2.393982
2018-10-24T15:05:20.060176Z,-1.1201780000000001,2.82428,0.239502
2018-10-24T15:05:20.188176Z,-1.292725,1.337646,-1.26947
2018-10-24T15:05:20.388176Z,-1.7269290000000002,1.1452639999999998,-1.523682
2018-10-24T15:05:20.589176Z,-0.504883,0.860718,-0.208862
2018-10-24T15:05:20.796176Z,0.814758,1.179565,-2.170471
2018-10-24T15:05:20.987176Z,-0.7737430000000001,2.2802729999999998,-1.571716
2018-10-24T15:05:21.190176Z,-1.435486,1.27124,0.41705299999999995
2018-10-24T15:05:21.388176Z,-0.570312,-0.0014039999999999999,-1.343323
2018-10-24T15:05:21.587176Z,-0.496399,0.289734,-1.5477290000000001
2018-10-24T15:05:21.787176Z,0.542358,0.526184,1.056641
2018-10-24T15:05:22.011176Z,1.493835,-0.7504270000000001,1.57074
2018-10-24T15:05:22.188176Z,0.6206050000000001,0.802673,-0.446716
2018-10-24T15:05:22.389176Z,0.26709,0.967041,0.300415
2018-10-24T15:05:22.588176Z,0.47943100000000005,-0.763672,-0.034912
2018-10-24T15:05:22.787176Z,0.23449699999999998,0.441833,-0.332458
2018-10-24T15:05:22.988176Z,0.553284,0.407471,0.8982540000000001
2018-10-24T15:05:23.189176Z,0.926941,-0.504089,-0.008179
2018-10-24T15:05:23.388176Z,-0.330627,0.942688,-0.428162
2018-10-24T15:05:23.588176Z,-0.7730100000000001,0.275452,0.699829
2018-10-24T15:05:23.788176Z,-0.618835,-1.0878299999999999,1.2379149999999999
2018-10-24T15:05:23.990176Z,-0.305847,0.16155999999999998,0.327637
2018-10-24T15:05:24.194176Z,0.352417,-0.483704,-0.004089
2018-10-24T15:05:24.448176Z,0.026427999999999997,0.560852,-3.396118
2018-10-24T15:05:24.587176Z,-0.178162,0.472778,-0.061951
2018-10-24T15:05:24.789176Z,-0.9468989999999999,0.180481,0.398804
2018-10-24T15:05:24.988176Z,-2.3901369999999997,-1.358582,-0.901001
2018-10-24T15:05:25.187176Z,-1.8156130000000001,-0.7554930000000001,-0.102112
2018-10-24T15:05:25.388176Z,-0.152649,-0.042725,1.141235
2018-10-24T15:05:25.588176Z,0.234619,-1.295349,0.083923
2018-10-24T15:05:25.787176Z,-1.15686,0.101013,-0.564392
2018-10-24T15:05:25.987176Z,-0.6911010000000001,0.272949,0.354797
2018-10-24T15:05:26.188176Z,-2.02478,-0.7634890000000001,0.657349
2018-10-24T15:05:26.391176Z,-0.002014,-0.717712,-0.916626
2018-10-24T15:05:26.588176Z,0.952393,-1.435181,0.9112549999999999
2018-10-24T15:05:26.790176Z,-0.217957,-2.639709,-0.43286099999999994
2018-10-24T15:05:26.994176Z,0.8299559999999999,-1.719971,0.622498
2018-10-24T15:05:27.188176Z,1.605042,-0.951965,0.321655
2018-10-24T15:05:27.389176Z,-0.5224,0.251038,0.385071
2018-10-24T15:05:27.588176Z,-1.7291869999999998,1.8093869999999999,-0.216248
2018-10-24T15:05:27.788176Z,-0.53656,0.8345950000000001,0.6016239999999999
2018-10-24T15:05:27.988176Z,-0.677979,-0.077515,-1.865479
2018-10-24T15:05:28.188176Z,-0.962708,0.498352,-0.094788
2018-10-24T15:05:28.387176Z,-0.096802,-0.628784,-0.338074
2018-10-24T15:05:28.592176Z,-0.257202,1.355225,-1.047852
2018-10-24T15:05:28.788176Z,0.211914,0.9302370000000001,0.758911
2018-10-24T15:05:28.987176Z,-0.477966,-0.797668,2.1126709999999997
2018-10-24T15:05:29.188176Z,0.343994,-1.576538,-0.6209720000000001
2018-10-24T15:05:29.388176Z,0.20111099999999998,-0.111633,-0.597046
2018-10-24T15:05:29.587176Z,-0.714661,0.502686,0.15686
2018-10-24T15:05:29.787176Z,0.120972,-0.554504,1.3308719999999998
2018-10-24T15:05:30.029176Z,1.532837,-0.968384,0.287842
2018-10-24T15:05:30.193176Z,0.964355,-0.824341,0.45648199999999994
2018-10-24T15:05:30.388176Z,1.664246,0.200012,0.642212
2018-10-24T15:05:30.590176Z,2.098633,0.20849600000000001,-0.958191
2018-10-24T15:05:30.788176Z,1.396484,1.374268,-0.40618899999999997
2018-10-24T15:05:30.989176Z,-0.376282,-0.052428999999999996,1.007385
2018-10-24T15:05:31.188176Z,-1.348267,0.230225,0.577148
2018-10-24T15:05:31.388176Z,-1.572815,0.477783,-1.269531
2018-10-24T15:05:31.588176Z,-1.184204,1.952759,-1.076355
2018-10-24T15:05:31.788176Z,-0.687012,0.996582,1.136047
2018-10-24T15:05:32.191176Z,-0.8999020000000001,0.396851,-1.2543950000000001
2018-10-24T15:05:32.388176Z,-1.232544,0.9130860000000001,-0.117249
2018-10-24T15:05:32.587176Z,-1.412476,-0.262268,0.970886
2018-10-24T15:05:32.792176Z,-1.1602780000000001,-0.259827,-0.101074
2018-10-24T15:05:32.987176Z,-0.666687,0.635498,-0.999634
2018-10-24T15:05:33.197176Z,0.433533,1.161865,0.25116
2018-10-24T15:05:33.391176Z,0.390991,-0.618896,-0.7278439999999999
2018-10-24T15:05:33.588176Z,-0.397766,0.8864139999999999,-0.691284
2018-10-24T15:05:33.789176Z,-0.529724,0.788696,0.508057
2018-10-24T15:05:33.989176Z,-0.737183,-0.8670040000000001,-0.942383
2018-10-24T15:05:34.196176Z,-0.791321,-0.23999,-0.765015
2018-10-24T15:05:34.390176Z,-0.680237,0.269897,0.5502319999999999
2018-10-24T15:05:34.593176Z,0.028748000000000003,-0.16656500000000002,0.815552
2018-10-24T15:05:34.788176Z,-0.355225,-0.203674,-2.114563
2018-10-24T15:05:34.988176Z,-0.43670699999999996,1.2947389999999999,-0.303589
2018-10-24T15:05:35.188176Z,-0.9019780000000001,-0.5119020000000001,1.846497
2018-10-24T15:05:35.388176Z,-1.122375,-0.791992,-0.310913
2018-10-24T15:05:35.588176Z,-0.229187,0.584229,-0.177307
2018-10-24T15:05:35.787176Z,0.852966,-0.060791,0.268127
2018-10-24T15:05:35.987176Z,-0.608521,-0.8146359999999999,0.85675
2018-10-24T15:05:36.196176Z,-0.318909,-0.017943999999999998,0.803467
2018-10-24T15:05:36.387176Z,-0.415405,0.415833,0.47924799999999995
2018-10-24T15:05:36.588176Z,0.050476,-0.645508,0.173523
2018-10-24T15:05:36.788176Z,-1.824829,-1.391724,-0.187134
2018-10-24T15:05:36.988176Z,-2.2839970000000003,-0.26263400000000003,0.300232
2018-10-24T15:05:37.191176Z,-1.843506,-0.002502,0.37439
2018-10-24T15:05:37.388176Z,-0.8579709999999999,0.007690000000000001,-0.933594
2018-10-24T15:05:37.589176Z,-1.019043,0.659058,0.44848599999999994
2018-10-24T15:05:37.789176Z,-0.218811,-0.942383,0.652405
2018-10-24T15:05:37.988176Z,-0.867065,-0.116211,0.14721700000000001
2018-10-24T15:05:38.188176Z,-0.641418,0.40008499999999997,-0.903259
2018-10-24T15:05:38.388176Z,0.11138900000000002,0.584106,-0.296265
2018-10-24T15:05:38.593176Z,-0.783142,-1.496277,1.032593
2018-10-24T15:05:38.787176Z,-1.028076,-0.8526610000000001,-0.635498
2018-10-24T15:05:38.988176Z,-1.43866,0.310608,-0.49279799999999996
2018-10-24T15:05:39.189176Z,-0.013855000000000001,-0.317322,0.9697879999999999
2018-10-24T15:05:39.387176Z,0.022949,-1.058411,1.331848
2018-10-24T15:05:39.587176Z,-0.110535,-0.41516099999999995,0.151917
2018-10-24T15:05:39.787176Z,-1.500427,-0.208313,1.889648
2018-10-24T15:05:39.988176Z,-0.568604,-0.866516,-0.10546900000000001
2018-10-24T15:05:40.187176Z,-0.44171099999999996,-0.14569100000000001,-0.023132
2018-10-24T15:05:40.408176Z,-0.59967,0.004639,0.8262940000000001
2018-10-24T15:05:40.588176Z,-0.607544,0.005371,-0.079529
2018-10-24T15:05:40.788176Z,-0.5119630000000001,-0.239197,0.693542
2018-10-24T15:05:40.989176Z,-0.8636469999999999,-0.451477,-0.452454
2018-10-24T15:05:41.189176Z,-0.494324,-0.28234899999999996,-0.25756799999999996
2018-10-24T15:05:41.388176Z,0.092834,0.308594,0.199402
2018-10-24T15:05:41.588176Z,0.302063,0.099426,0.625488
2018-10-24T15:05:41.788176Z,-1.169434,0.057495000000000004,-0.421997
2018-10-24T15:05:41.988176Z,0.293518,0.097229,0.510437
2018-10-24T15:05:42.188176Z,-0.543335,-0.135437,-0.603821
2018-10-24T15:05:42.389176Z,-0.35949699999999996,0.132446,-2.347656
2018-10-24T15:05:42.592176Z,0.11291500000000002,0.042419,0.288086
2018-10-24T15:05:42.793176Z,-0.15979000000000002,0.13830599999999998,-0.144531
2018-10-24T15:05:42.997176Z,-0.08142100000000001,0.018738,-0.238281
2018-10-24T15:05:43.187176Z,0.204346,0.154724,-0.664246
2018-10-24T15:05:43.388176Z,-0.13739,0.266296,0.243774
2018-10-24T15:05:43.587176Z,-0.301086,-0.723022,-0.322815
2018-10-24T15:05:43.787176Z,-0.081299,-0.455872,0.407837
2018-10-24T15:05:43.988176Z,0.513184,0.733582,-0.9137569999999999
2018-10-24T15:05:44.189176Z,0.032898000000000004,0.359619,-0.629089
2018-10-24T15:05:44.388176Z,-0.536194,-1.057983,0.636292
2018-10-24T15:05:44.588176Z,-0.362,-0.217468,-0.320496
2018-10-24T15:05:44.788176Z,-0.280457,-0.409729,0.12109400000000001
2018-10-24T15:05:44.988176Z,-0.281738,0.169739,0.023438
2018-10-24T15:05:45.188176Z,-0.539673,0.097229,-0.28320300000000004
2018-10-24T15:05:45.392176Z,0.13739,0.8127439999999999,-1.1362299999999999
2018-10-24T15:05:45.590176Z,-0.365784,1.24823,-0.172241
2018-10-24T15:05:45.799176Z,0.504578,0.733826,0.546387
2018-10-24T15:05:45.988176Z,0.366638,-2.0942380000000003,0.295349
2018-10-24T15:05:46.187176Z,1.2180790000000001,0.091431,-0.8068850000000001
2018-10-24T15:05:46.387176Z,0.60437,0.688049,0.9931030000000001
2018-10-24T15:05:46.587176Z,-0.612061,-1.151184,1.1697389999999999
2018-10-24T15:05:46.837176Z,-0.20233199999999998,-1.073608,-0.908142
2018-10-24T15:05:46.988176Z,-0.315735,-0.061217999999999995,-0.820068
2018-10-24T15:05:47.189176Z,0.8894040000000001,-0.390381,1.8585209999999999
2018-10-24T15:05:47.388176Z,-0.260986,-1.061035,-0.903442
2018-10-24T15:05:47.588176Z,-1.334106,1.058777,0.23199499999999998
2018-10-24T15:05:47.788176Z,-0.802856,-1.130493,1.1322020000000002
2018-10-24T15:05:47.990176Z,0.28363,-1.591431,-0.923035
2018-10-24T15:05:48.189176Z,0.8081050000000001,-1.364136,2.426392
2018-10-24T15:05:48.388176Z,0.28418000000000004,-1.42157,1.760864
2018-10-24T15:05:48.588176Z,0.830933,-0.26269499999999996,0.303406
2018-10-24T15:05:48.787176Z,0.342773,-0.48687700000000006,1.625061
2018-10-24T15:05:49.002176Z,1.34375,-2.203735,-0.580017
2018-10-24T15:05:49.387176Z,1.331726,-1.362793,-0.469116
2018-10-24T15:05:49.588176Z,1.089661,-1.456604,1.842834
2018-10-24T15:05:49.787176Z,2.157837,-0.46203599999999995,-0.13189700000000001
2018-10-24T15:05:49.987176Z,0.313782,1.06781,-0.46173100000000006
2018-10-24T15:05:50.187176Z,1.170654,-0.45105,1.1522219999999999
2018-10-24T15:05:50.454176Z,0.726196,0.041748,-0.9112549999999999
2018-10-24T15:05:50.587176Z,0.65625,0.825317,1.105774
2018-10-24T15:05:50.797176Z,1.877502,0.431824,-0.424133
2018-10-24T15:05:50.988176Z,0.6811520000000001,0.8651120000000001,0.206604
2018-10-24T15:05:51.188176Z,-0.971985,3.056396,-0.40618899999999997
2018-10-24T15:05:51.388176Z,-0.9943850000000001,1.208862,0.721008
2018-10-24T15:05:51.589176Z,-0.9325559999999999,1.8633419999999998,-2.7698970000000003
2018-10-24T15:05:51.789176Z,-0.924927,2.26947,-1.150024
2018-10-24T15:05:51.989176Z,0.750305,1.313782,-0.927307
2018-10-24T15:05:52.188176Z,-1.5296020000000001,1.553345,-3.152283
2018-10-24T15:05:52.388176Z,-1.44989,3.492065,0.517212
2018-10-24T15:05:52.588176Z,-1.82605,0.606812,0.44018599999999997
2018-10-24T15:05:52.788176Z,-0.9664309999999999,1.005737,-1.245544
2018-10-24T15:05:52.987176Z,0.368652,2.161438,-0.692444
2018-10-24T15:05:53.188176Z,-0.786255,0.28418000000000004,-0.309082
2018-10-24T15:05:53.389176Z,-1.2514040000000002,1.866699,-1.342163
2018-10-24T15:05:53.593176Z,-0.682434,2.7232060000000002,0.032776
2018-10-24T15:05:53.787176Z,-1.501282,1.029663,0.548767
2018-10-24T15:05:53.987176Z,-0.8343510000000001,1.1659549999999999,-1.682373
2018-10-24T15:05:54.188176Z,-0.9628909999999999,1.936707,-0.5604859999999999
2018-10-24T15:05:54.388176Z,0.511047,1.32196,-1.223267
2018-10-24T15:05:54.589176Z,-2.694214,0.9483030000000001,-2.144592
2018-10-24T15:05:54.791176Z,-2.643982,-0.178284,-0.375916
2018-10-24T15:05:54.991176Z,-2.522949,-0.9927370000000001,1.914734
2018-10-24T15:05:55.188176Z,-1.116882,-1.216492,-0.452759
2018-10-24T15:05:55.388176Z,-0.732056,-1.130676,0.174561
2018-10-24T15:05:55.601176Z,0.650879,0.191956,-0.117798
2018-10-24T15:05:55.790176Z,1.274475,-0.7013550000000001,1.590027
2018-10-24T15:05:55.992176Z,0.924377,-0.8265379999999999,-0.679871
2018-10-24T15:05:56.187176Z,-0.382263,-0.057678,-1.497742
2018-10-24T15:05:56.388176Z,-0.34619099999999997,1.005249,1.430908
2018-10-24T15:05:56.594176Z,0.042480000000000004,-0.951965,1.889648
2018-10-24T15:05:56.788176Z,-0.8015140000000001,-0.526428,-1.267151
2018-10-24T15:05:56.987176Z,0.21716300000000002,0.478149,0.577759
2018-10-24T15:05:57.187176Z,0.934265,-1.710754,-0.754272
2018-10-24T15:05:57.389176Z,-1.088623,-0.371704,-1.8325200000000001
2018-10-24T15:05:57.588176Z,-1.1586299999999998,1.196777,1.963379
2018-10-24T15:05:57.792176Z,0.40826399999999996,-2.4913939999999997,-3.073425
2018-10-24T15:05:57.987176Z,-0.305725,-0.382996,-3.1323849999999998
2018-10-24T15:05:58.188176Z,1.247559,-0.521606,2.8099369999999997
2018-10-24T15:05:58.388176Z,0.331604,-0.93396,-1.646118
2018-10-24T15:05:58.588176Z,-0.287598,1.259766,-2.428528
2018-10-24T15:05:58.788176Z,-1.013428,0.9837040000000001,3.424561
2018-10-24T15:05:58.988176Z,-0.863037,-3.252014,-2.361511
2018-10-24T15:05:59.189176Z,-0.02301,0.082947,-1.653625
2018-10-24T15:05:59.388176Z,1.52655,-0.565979,3.007263
2018-10-24T15:05:59.601176Z,0.377747,-0.043151999999999996,-2.500122
2018-10-24T15:05:59.787176Z,0.40820300000000004,0.8287959999999999,0.19555699999999998
2018-10-24T15:05:59.988176Z,-0.07775900000000001,-1.243164,1.03186
2018-10-24T15:06:00.187176Z,-0.294739,-1.179749,-0.560181
2018-10-24T15:06:00.388176Z,-0.100952,-0.063843,-0.207581
2018-10-24T15:06:00.587176Z,0.229675,0.580383,0.612305
2018-10-24T15:06:00.787176Z,-0.335022,-0.5763550000000001,0.978577
2018-10-24T15:06:00.988176Z,0.246765,-0.588745,-0.455505
2018-10-24T15:06:01.189176Z,0.731628,0.135437,0.421875
2018-10-24T15:06:01.388176Z,0.726196,0.236267,-0.049011
2018-10-24T15:06:01.588176Z,0.382141,0.158813,-0.07489
2018-10-24T15:06:01.790176Z,0.149048,-0.013062,-0.698181
2018-10-24T15:06:01.995176Z,0.133911,0.101624,0.5195310000000001
2018-10-24T15:06:02.197176Z,0.959412,0.370056,-0.333984
2018-10-24T15:06:02.400176Z,0.976562,0.042419,-0.333252
2018-10-24T15:06:02.598176Z,1.125,0.603821,-0.427856
2018-10-24T15:06:02.798176Z,0.10766600000000001,0.321838,-0.014709
2018-10-24T15:06:02.998176Z,-1.1087040000000001,1.184387,0.532532
2018-10-24T15:06:03.402176Z,-1.478149,-0.237244,-1.611633
2018-10-24T15:06:03.597176Z,-0.23773200000000003,0.021851,1.1433719999999998
2018-10-24T15:06:03.798176Z,0.735413,-0.29303,0.152344
2018-10-24T15:06:03.997176Z,-0.42242399999999997,-0.300232,-0.959717
2018-10-24T15:06:04.198176Z,-0.024475,0.546814,-0.664307
2018-10-24T15:06:04.409176Z,0.268311,0.010315000000000001,0.34729
2018-10-24T15:06:04.603176Z,-0.747437,-0.824707,0.34881599999999996
2018-10-24T15:06:04.805176Z,-0.577576,0.10919200000000001,-0.562866
2018-10-24T15:06:04.998176Z,-0.645203,0.861023,-0.639587
2018-10-24T15:06:05.198176Z,0.924316,0.6755979999999999,0.544312
2018-10-24T15:06:05.398176Z,0.189453,-1.000061,0.708069
2018-10-24T15:06:05.598176Z,0.676086,0.255432,-0.405029
2018-10-24T15:06:05.798176Z,-0.146912,0.668884,0.47168000000000004
2018-10-24T15:06:06.015176Z,-0.190125,-1.362366,-0.11956800000000001
2018-10-24T15:06:06.197176Z,-0.5763550000000001,-0.5291140000000001,-1.997742
2018-10-24T15:06:06.397176Z,-0.798584,0.665955,-0.4422
2018-10-24T15:06:06.597176Z,0.404907,-0.9163819999999999,1.298218
2018-10-24T15:06:06.797176Z,0.321167,-0.451477,-2.0851439999999997
2018-10-24T15:06:06.997176Z,-0.226196,0.817871,0.5122680000000001
2018-10-24T15:06:07.197176Z,-0.161682,-0.667542,1.5210569999999999
2018-10-24T15:06:07.409176Z,-0.024963,-1.803284,-0.872192
2018-10-24T15:06:07.607176Z,-0.561951,-0.120361,-0.837585
2018-10-24T15:06:07.797176Z,1.085876,-0.377686,1.2316280000000002
2018-10-24T15:06:07.998176Z,-1.8866580000000002,-1.6982419999999998,0.676575
2018-10-24T15:06:08.198176Z,-1.319153,0.118591,0.285217
2018-10-24T15:06:08.433176Z,-0.420288,0.16534400000000002,0.8202510000000001
2018-10-24T15:06:08.602176Z,-1.382141,-2.437927,-0.258301
2018-10-24T15:06:08.802176Z,-1.5776370000000002,-2.1303099999999997,0.048767000000000005
2018-10-24T15:06:09.000176Z,0.07067899999999999,-0.798767,-0.067566
2018-10-24T15:06:09.198176Z,-0.8745729999999999,-0.236267,0.251465
2018-10-24T15:06:09.398176Z,-2.678589,0.233276,-0.637939
2018-10-24T15:06:09.598176Z,-2.513733,0.512451,0.203308
2018-10-24T15:06:09.799176Z,0.055359000000000005,0.410645,0.631165
2018-10-24T15:06:09.997176Z,-0.149841,-1.126465,-1.184692
2018-10-24T15:06:10.197176Z,-0.670593,0.464966,-1.024414
2018-10-24T15:06:10.400176Z,-0.817566,0.38269000000000003,0.120422
2018-10-24T15:06:10.603176Z,-1.546875,-1.517639,-0.809082
2018-10-24T15:06:10.797176Z,-1.720459,-0.938416,-1.116028
2018-10-24T15:06:10.997176Z,-0.868225,0.281738,-0.048035
2018-10-24T15:06:11.198176Z,-1.7848509999999997,-0.9393309999999999,0.301514
2018-10-24T15:06:11.412176Z,-2.117371,-1.260254,-0.289917
2018-10-24T15:06:11.597176Z,-1.289246,-0.521912,0.277527
2018-10-24T15:06:11.809176Z,-1.092407,-0.437195,0.167114
2018-10-24T15:06:12.003176Z,-0.798462,-0.7379760000000001,-0.6347659999999999
2018-10-24T15:06:12.198176Z,-0.156494,0.167908,0.228088
2018-10-24T15:06:12.398176Z,-1.59198,-0.009337999999999999,-0.930298
2018-10-24T15:06:12.598176Z,-2.774414,0.839233,-0.5893550000000001
2018-10-24T15:06:12.800176Z,-2.599854,0.9884639999999999,-0.462585
2018-10-24T15:06:12.998176Z,-2.932861,-0.274902,-0.861389
2018-10-24T15:06:13.198176Z,-0.750671,0.507568,0.24884
2018-10-24T15:06:13.397176Z,0.9456180000000001,-0.308899,0.749084
2018-10-24T15:06:13.603176Z,-0.598999,0.292664,-1.05719
2018-10-24T15:06:13.798176Z,-0.642578,0.8943479999999999,-0.47876
2018-10-24T15:06:13.998176Z,-2.777222,-0.32666,4.838013
2018-10-24T15:06:14.197176Z,0.632996,-1.199341,-2.6804200000000002
2018-10-24T15:06:14.398176Z,-2.6095580000000003,-0.983765,0.256958
2018-10-24T15:06:14.598176Z,-0.21270799999999998,-0.203735,-0.641602
2018-10-24T15:06:14.798176Z,0.897278,0.0224,-0.454346
2018-10-24T15:06:14.998176Z,-0.689209,-0.445801,-0.9912110000000001
2018-10-24T15:06:15.199176Z,0.203491,-0.132751,-0.9904790000000001
2018-10-24T15:06:15.399176Z,-0.538269,-0.313354,0.031738
2018-10-24T15:06:15.598176Z,-0.32074,-0.30249000000000004,0.10351600000000001
2018-10-24T15:06:15.798176Z,-0.637451,-0.081299,-0.09137
2018-10-24T15:06:16.064176Z,-0.753967,-0.173645,-0.7205199999999999
2018-10-24T15:06:16.198176Z,0.117493,-0.891541,0.396606
2018-10-24T15:06:16.403176Z,1.802246,0.174805,0.9076540000000001
2018-10-24T15:06:16.603176Z,1.508362,-1.292725,-0.862
2018-10-24T15:06:16.999176Z,-1.693848,-1.0859379999999998,-0.021179
2018-10-24T15:06:17.197176Z,-2.429199,-1.306091,-0.187927
2018-10-24T15:06:17.420176Z,-1.842834,2.191895,-0.045898
2018-10-24T15:06:17.603176Z,-1.259766,1.8327639999999998,-1.087891
2018-10-24T15:06:17.797176Z,-0.296387,1.097534,-0.770935
2018-10-24T15:06:18.003176Z,0.683289,1.2489620000000001,-0.544495
2018-10-24T15:06:18.197176Z,1.598755,1.495544,-0.23077399999999998
2018-10-24T15:06:18.398176Z,0.828735,1.385437,-0.344604
2018-10-24T15:06:18.598176Z,-1.4003299999999999,-1.433411,-0.317322
2018-10-24T15:06:18.798176Z,-3.5416870000000005,2.568848,-0.697205
2018-10-24T15:06:18.998176Z,0.420227,1.8182369999999999,-0.031311
2018-10-24T15:06:19.199176Z,-0.034302,-0.14599600000000001,-0.797363
2018-10-24T15:06:19.398176Z,-5.111267,2.996521,-1.739502
2018-10-24T15:06:19.598176Z,-3.247986,-1.768127,2.588806
2018-10-24T15:06:19.798176Z,-0.707092,-2.634399,-1.014038
2018-10-24T15:06:19.999176Z,8.027892999999999,0.587585,3.576111
2018-10-24T15:06:20.197176Z,1.8572389999999999,-1.729126,-0.789917
2018-10-24T15:06:20.397176Z,-3.702026,0.271423,-1.8146360000000001
2018-10-24T15:06:20.597176Z,-1.910034,1.49939,0.461304
2018-10-24T15:06:20.797176Z,-2.177979,0.531067,0.0401
2018-10-24T15:06:21.007176Z,-1.8351439999999999,1.109436,0.47131300000000004
2018-10-24T15:06:21.198176Z,-1.2680049999999998,1.683472,-1.6175540000000002
2018-10-24T15:06:21.397176Z,-0.879395,1.4921879999999998,-0.340881
2018-10-24T15:06:21.597176Z,-2.083069,0.231873,0.313843
2018-10-24T15:06:21.797176Z,-1.9161380000000001,2.145996,-0.564209
2018-10-24T15:06:21.998176Z,-0.75238,0.965759,-1.5996700000000001
2018-10-24T15:06:22.200176Z,-0.039856,-1.0409549999999999,-0.266052
2018-10-24T15:06:22.398176Z,-0.610596,-0.025452000000000002,-1.6808470000000002
2018-10-24T15:06:22.598176Z,-0.710327,-0.25500500000000004,-0.914185
2018-10-24T15:06:22.800176Z,0.7636109999999999,0.10241700000000001,-0.63147
2018-10-24T15:06:22.998176Z,-0.320312,0.157898,1.193298
2018-10-24T15:06:23.198176Z,-0.6251220000000001,0.778564,-0.406555
2018-10-24T15:06:23.399176Z,-1.251343,0.37701399999999996,0.147705
2018-10-24T15:06:23.598176Z,-0.767212,0.443481,0.11438
2018-10-24T15:06:23.797176Z,-0.44329799999999997,0.212952,-0.611206
2018-10-24T15:06:23.998176Z,-0.84314,0.582458,-0.461792
2018-10-24T15:06:24.197176Z,-1.943054,1.200256,-0.5745239999999999
2018-10-24T15:06:24.413176Z,-0.963562,1.557556,-0.078796
2018-10-24T15:06:24.599176Z,-0.15094000000000002,1.573547,0.039124
2018-10-24T15:06:24.798176Z,1.597961,0.326843,-0.190918
2018-10-24T15:06:24.997176Z,-0.350525,0.39563000000000004,-2.179565
2018-10-24T15:06:25.197176Z,-0.663696,1.498413,0.8363649999999999
2018-10-24T15:06:25.398176Z,-1.580322,-0.314392,-2.944702
2018-10-24T15:06:25.599176Z,-1.835205,1.114624,-1.604187
2018-10-24T15:06:25.800176Z,0.450378,1.165894,0.9086299999999999
2018-10-24T15:06:25.998176Z,1.035583,-0.666504,-0.23101799999999997
2018-10-24T15:06:26.197176Z,-0.323486,0.21344000000000002,-1.574707
2018-10-24T15:06:26.398176Z,-1.6778560000000002,0.446838,1.002075
2018-10-24T15:06:26.598176Z,-1.468567,-1.159363,-0.421814
2018-10-24T15:06:26.799176Z,-0.429199,-0.874756,-0.136902
2018-10-24T15:06:26.997176Z,-0.7109989999999999,-0.07788099999999999,0.854736
2018-10-24T15:06:27.197176Z,-1.1651610000000001,0.18512,0.23999
2018-10-24T15:06:27.407176Z,-0.884094,0.17871099999999998,-1.737366
2018-10-24T15:06:27.597176Z,-0.303406,0.29504400000000003,-0.5351560000000001
2018-10-24T15:06:27.800176Z,0.08843999999999999,0.613159,-0.809875
2018-10-24T15:06:27.998176Z,-1.36969,0.718262,-0.252747
2018-10-24T15:06:28.198176Z,-1.8816529999999998,1.854126,-1.213379
2018-10-24T15:06:28.398176Z,-0.413757,1.878479,0.087341
2018-10-24T15:06:28.597176Z,0.390259,-0.188171,1.333801
2018-10-24T15:06:28.798176Z,-0.835083,-0.163452,-0.49231
2018-10-24T15:06:29.015176Z,0.325989,2.128662,1.487793
2018-10-24T15:06:29.200176Z,-0.181335,1.411865,-0.384216
2018-10-24T15:06:29.398176Z,-1.562439,-1.9421389999999998,2.127319
2018-10-24T15:06:29.599176Z,-1.234314,0.670715,-0.851196
2018-10-24T15:06:29.800176Z,-0.542053,1.058289,-0.830139
2018-10-24T15:06:30.000176Z,-0.6560060000000001,-0.402527,2.211304
2018-10-24T15:06:30.199176Z,-1.133789,0.416443,-0.707581
2018-10-24T15:06:30.398176Z,-0.703613,1.198364,-0.439453
2018-10-24T15:06:30.613176Z,-0.542114,0.451355,3.0382689999999997
2018-10-24T15:06:30.797176Z,-2.1986689999999998,-1.4869379999999999,-0.700317
2018-10-24T15:06:30.999176Z,-1.7360229999999999,-0.512939,-0.44592299999999996
2018-10-24T15:06:31.199176Z,-1.6945189999999999,0.315125,-1.056763
2018-10-24T15:06:31.397176Z,-1.9630740000000002,1.1480709999999998,-0.768127
2018-10-24T15:06:31.598176Z,-2.555237,1.324036,1.176636
2018-10-24T15:06:31.797176Z,-0.177979,-0.146912,0.212463
2018-10-24T15:06:31.997176Z,1.3173219999999999,-1.004517,-2.409363
2018-10-24T15:06:32.197176Z,-0.63739,0.484192,-0.639526
2018-10-24T15:06:32.397176Z,-1.741455,-0.761536,1.4159549999999999
2018-10-24T15:06:32.645176Z,-0.8533940000000001,-0.404846,-1.38385
2018-10-24T15:06:32.997176Z,-2.0738529999999997,0.372742,-0.469788
2018-10-24T15:06:33.198176Z,-1.088562,0.998108,1.174561
2018-10-24T15:06:33.400176Z,-0.44342,-0.837463,0.320801
2018-10-24T15:06:33.598176Z,-0.731628,0.519165,-0.782104
2018-10-24T15:06:33.798176Z,-1.427551,1.127075,1.792297
2018-10-24T15:06:34.018176Z,-1.238831,-0.377075,-1.063965
2018-10-24T15:06:34.198176Z,-1.2896729999999998,0.447876,-1.154663
2018-10-24T15:06:34.397176Z,-0.673279,0.304016,1.367981
2018-10-24T15:06:34.597176Z,-0.365662,-0.837219,0.300232
2018-10-24T15:06:34.797176Z,-1.9570919999999998,0.574829,-0.48651099999999997
2018-10-24T15:06:34.998176Z,-2.172302,0.632629,-0.8440549999999999
2018-10-24T15:06:35.197176Z,-3.02179,-0.504517,0.711914
2018-10-24T15:06:35.397176Z,-0.740967,0.128967,0.46398900000000004
2018-10-24T15:06:35.597176Z,-0.4953,-0.486145,-1.705688
2018-10-24T15:06:35.810176Z,-2.410461,0.7718510000000001,-0.919006
2018-10-24T15:06:36.007176Z,-1.582581,0.541443,0.644592
2018-10-24T15:06:36.226176Z,-2.289001,-0.461243,0.598694
2018-10-24T15:06:36.408176Z,-0.901611,0.514282,-0.608643
2018-10-24T15:06:36.612176Z,-0.776794,1.5149540000000001,-0.56781
2018-10-24T15:06:36.808176Z,-0.879761,0.882019,0.8692629999999999
2018-10-24T15:06:37.007176Z,0.533875,0.8715209999999999,-1.7511599999999998
2018-10-24T15:06:37.207176Z,-0.8942260000000001,1.200256,-0.313477
2018-10-24T15:06:37.408176Z,-1.840759,0.772339,1.699829
2018-10-24T15:06:37.607176Z,-1.3255,0.2323,-1.210083
2018-10-24T15:06:37.825176Z,-0.55072,0.190308,0.612
2018-10-24T15:06:38.011176Z,0.141785,-1.059143,-0.667175
2018-10-24T15:06:38.209176Z,-1.481018,1.174194,-0.70697
2018-10-24T15:06:38.407176Z,-3.046021,1.35968,0.72168
2018-10-24T15:06:38.607176Z,-3.392639,-1.13385,-0.771912
2018-10-24T15:06:38.807176Z,-0.15240499999999998,0.046082,-0.672363
2018-10-24T15:06:39.010176Z,0.754883,-0.330322,-1.365417
2018-10-24T15:06:39.210176Z,-2.04657,1.387329,-2.250244
2018-10-24T15:06:39.408176Z,-2.255737,1.075317,0.11071800000000001
2018-10-24T15:06:39.608176Z,-2.540955,-0.45575,2.619751
2018-10-24T15:06:39.808176Z,-0.479126,0.038025,-1.314697
2018-10-24T15:06:40.067176Z,1.137329,0.467896,-0.681946
2018-10-24T15:06:40.209176Z,-2.296204,1.387268,-1.178772
2018-10-24T15:06:40.409176Z,-1.878479,0.327332,-0.20550500000000002
2018-10-24T15:06:40.609176Z,-1.462585,-0.017578,-0.705627
2018-10-24T15:06:40.808176Z,-0.02417,0.35882600000000003,1.5126950000000001
2018-10-24T15:06:41.008176Z,-0.914062,0.31066900000000003,1.679871
2018-10-24T15:06:41.208176Z,-1.993225,1.275635,-1.039246
2018-10-24T15:06:41.408176Z,-1.7144169999999999,0.72583,1.999634
2018-10-24T15:06:41.608176Z,-1.11145,0.13623,-1.8507080000000002
2018-10-24T15:06:41.808176Z,-1.3346559999999998,0.843384,0.46380600000000005
2018-10-24T15:06:42.014176Z,-0.788391,-0.414734,1.07196
2018-10-24T15:06:42.211176Z,-1.313416,0.078796,-0.891174
2018-10-24T15:06:42.414176Z,-0.13372799999999999,1.1021729999999998,-0.16687000000000002
2018-10-24T15:06:42.608176Z,-1.230957,0.363831,2.320557
2018-10-24T15:06:42.808176Z,-0.5639649999999999,-0.368774,-0.23345900000000003
2018-10-24T15:06:43.023176Z,-0.49493400000000004,0.189453,-0.7609859999999999
2018-10-24T15:06:43.207176Z,0.705872,1.293274,1.590393
2018-10-24T15:06:43.408176Z,-0.861511,-1.9343259999999998,0.073608
2018-10-24T15:06:43.609176Z,0.20776399999999998,-0.307739,-1.340332
2018-10-24T15:06:43.807176Z,-0.639893,1.572083,4.490784
2018-10-24T15:06:44.007176Z,-1.755066,2.594604,6.711121
2018-10-24T15:06:44.207176Z,-2.073914,-0.214905,-3.172974
2018-10-24T15:06:44.407176Z,-2.875244,-0.13458299999999998,0.453186
2018-10-24T15:06:44.607176Z,-1.184998,1.437927,-0.125366
2018-10-24T15:06:44.808176Z,-0.913269,1.7420650000000002,0.11511199999999999
2018-10-24T15:06:45.007176Z,-1.054626,0.45770299999999997,1.515564
2018-10-24T15:06:45.207176Z,-0.557739,1.103394,-1.3558350000000001
2018-10-24T15:06:45.407176Z,0.22216799999999998,2.4543459999999997,0.7249760000000001
2018-10-24T15:06:45.607176Z,-1.896118,-0.423279,-0.13147
2018-10-24T15:06:45.808176Z,-1.792175,-1.165222,1.059998
2018-10-24T15:06:46.009176Z,-1.5385739999999999,-0.552612,1.0113530000000002
2018-10-24T15:06:46.208176Z,-0.293274,0.635376,1.262207
2018-10-24T15:06:46.408176Z,0.302979,-0.437317,-1.708252
2018-10-24T15:06:46.608176Z,-0.014525999999999999,1.472107,-0.797607
2018-10-24T15:06:46.824176Z,-1.090393,1.475159,0.30688499999999996
2018-10-24T15:06:47.007176Z,-0.83136,0.823425,-0.733032
2018-10-24T15:06:47.207176Z,-0.48931899999999995,1.3519290000000002,-0.64679
2018-10-24T15:06:47.408176Z,-1.083801,1.15564,-0.586853
2018-10-24T15:06:47.610176Z,-0.719971,1.8515009999999998,-0.9810180000000001
2018-10-24T15:06:47.807176Z,-0.282471,1.6483759999999998,0.340027
2018-10-24T15:06:48.007176Z,0.8487549999999999,-0.946167,-1.063965
2018-10-24T15:06:48.208176Z,0.10931400000000001,0.534729,-2.002136
2018-10-24T15:06:48.407176Z,0.067261,1.726746,-0.361267
2018-10-24T15:06:48.607176Z,0.34881599999999996,0.084839,3.000366
2018-10-24T15:06:48.807176Z,-1.2276610000000001,-1.655884,-0.947815
2018-10-24T15:06:49.008176Z,-1.560669,-0.794067,-0.065674
2018-10-24T15:06:49.208176Z,-0.882324,0.524475,-0.82196
2018-10-24T15:06:49.408176Z,-0.628052,0.152039,-0.7358399999999999
2018-10-24T15:06:49.608176Z,0.357178,-0.062317,-0.334656
2018-10-24T15:06:49.808176Z,1.306702,0.398254,-0.5352779999999999
2018-10-24T15:06:50.008176Z,0.499695,1.769653,0.235352
2018-10-24T15:06:50.209176Z,0.476807,3.36731,0.135986
2018-10-24T15:06:50.408176Z,-0.022827,-1.442444,1.162903
2018-10-24T15:06:50.608176Z,-2.4292599999999998,-0.329407,-0.33563200000000004
2018-10-24T15:06:50.808176Z,-0.020996,0.143494,-0.301025
2018-10-24T15:06:51.008176Z,-0.204163,0.9697879999999999,-1.06958
2018-10-24T15:06:51.208176Z,-0.65155,0.95752,-0.476013
2018-10-24T15:06:51.624176Z,-1.055847,1.263428,2.260925
2018-10-24T15:06:51.807176Z,-1.8873900000000001,0.20751999999999998,-2.148193
2018-10-24T15:06:52.008176Z,-1.58197,-0.498108,-0.23406999999999997
2018-10-24T15:06:52.214176Z,-1.150024,0.040770999999999995,0.682373
2018-10-24T15:06:52.416176Z,0.248901,0.8982540000000001,-1.241455
2018-10-24T15:06:52.607176Z,-0.07525599999999999,0.5432739999999999,-0.554443
2018-10-24T15:06:52.808176Z,-0.545837,0.995117,-0.268494
2018-10-24T15:06:53.008176Z,-0.443604,1.167664,-0.119202
2018-10-24T15:06:53.209176Z,0.20929,1.067444,0.388428
2018-10-24T15:06:53.410176Z,0.322998,-1.173035,1.262268
2018-10-24T15:06:53.608176Z,-0.120117,-0.406555,-1.283264
2018-10-24T15:06:53.809176Z,0.443054,0.9253540000000001,0.38659699999999997
2018-10-24T15:06:54.011176Z,-0.31561300000000003,-0.9061889999999999,-0.12481700000000001
2018-10-24T15:06:54.208176Z,-1.214539,-1.456604,-0.13147
2018-10-24T15:06:54.408176Z,-0.600159,-0.356506,-0.40918000000000004
2018-10-24T15:06:54.620176Z,-0.711731,-0.131287,0.23077399999999998
2018-10-24T15:06:54.808176Z,0.200928,-0.838562,0.389343
2018-10-24T15:06:55.008176Z,-1.168579,-0.385925,-0.735229
2018-10-24T15:06:55.207176Z,-0.568237,-0.747559,0.252075
2018-10-24T15:06:55.407176Z,0.12066700000000001,-1.541199,0.37243699999999996
2018-10-24T15:06:55.608176Z,-2.4245,-1.572388,-0.409729
2018-10-24T15:06:55.807176Z,-3.179749,-0.18212899999999999,1.286194
2018-10-24T15:06:56.007176Z,-0.397339,0.459595,0.090942
2018-10-24T15:06:56.207176Z,-1.1516110000000002,-0.927307,0.9743649999999999
2018-10-24T15:06:56.409176Z,-0.876648,-0.526367,-0.465271
2018-10-24T15:06:56.635176Z,-1.227112,0.617981,1.038757
2018-10-24T15:06:56.808176Z,-1.033691,-0.516907,1.6641240000000002
2018-10-24T15:06:57.008176Z,-0.6841430000000001,-2.099304,-0.685608
2018-10-24T15:06:57.209176Z,-0.039673,-0.46533199999999997,-0.377686
2018-10-24T15:06:57.410176Z,-1.14032,-2.706848,2.432129
2018-10-24T15:06:57.611176Z,-0.581421,-0.232605,-1.1140139999999998
2018-10-24T15:06:57.809176Z,-0.5957640000000001,0.6643680000000001,0.785767
2018-10-24T15:06:58.012176Z,0.033936,-1.329651,-0.457092
2018-10-24T15:06:58.207176Z,0.20581100000000002,0.20385699999999998,-0.583801
2018-10-24T15:06:58.407176Z,1.065369,-1.161987,1.431824
2018-10-24T15:06:58.608176Z,-0.585144,-0.8493649999999999,-1.154297
2018-10-24T15:06:58.807176Z,-0.161194,-0.010742,-0.49682600000000005
2018-10-24T15:06:59.007176Z,-1.1019290000000002,-1.414307,1.657227
2018-10-24T15:06:59.207176Z,-0.28686500000000004,-0.545593,-2.230652
2018-10-24T15:06:59.418176Z,-0.045715,-0.408936,1.002319
2018-10-24T15:06:59.618176Z,1.246582,-1.353577,-0.383606
2018-10-24T15:06:59.818176Z,0.659546,-0.143433,-0.546265
2018-10-24T15:07:00.018176Z,0.41259799999999996,0.123474,0.775818
2018-10-24T15:07:00.228176Z,0.010254000000000001,-1.3545530000000001,-0.29425
2018-10-24T15:07:00.422176Z,1.052612,-0.11969,-1.023865
2018-10-24T15:07:00.628176Z,0.146423,-0.913452,0.848389
2018-10-24T15:07:00.820176Z,2.645264,-0.28949,-0.8585209999999999
2018-10-24T15:07:01.018176Z,0.136414,-0.22418200000000002,-0.137817
2018-10-24T15:07:01.219176Z,0.140869,1.376526,1.185486
2018-10-24T15:07:01.419176Z,-0.600586,-0.5138550000000001,-0.280212
2018-10-24T15:07:01.618176Z,0.186829,0.441345,-1.347839
2018-10-24T15:07:01.818176Z,0.399414,0.482361,-0.377258
2018-10-24T15:07:02.017176Z,0.30719,-0.484009,-0.602905
2018-10-24T15:07:02.218176Z,-0.32757600000000003,0.388306,-1.726013
2018-10-24T15:07:02.418176Z,0.464661,-0.203369,0.1875
2018-10-24T15:07:02.617176Z,2.121216,1.071655,-0.685852
2018-10-24T15:07:02.817176Z,-0.8574219999999999,-1.208679,3.2213130000000003
2018-10-24T15:07:03.018176Z,-0.6651,-1.170654,-0.103027
2018-10-24T15:07:03.218176Z,-0.361084,-0.41326899999999994,0.48113999999999996
2018-10-24T15:07:03.443176Z,-0.5977779999999999,-0.48150600000000005,-0.268127
2018-10-24T15:07:03.619176Z,-0.505127,0.40441900000000003,-0.91095
2018-10-24T15:07:03.820176Z,0.356323,-0.7436520000000001,0.083313
2018-10-24T15:07:04.018176Z,-0.35644499999999996,-0.729614,-0.301392
2018-10-24T15:07:04.218176Z,0.692688,0.07891799999999999,-0.36120599999999997
2018-10-24T15:07:04.418176Z,0.443054,0.257874,1.735168
2018-10-24T15:07:04.619176Z,-1.185669,-1.741882,-0.772278
2018-10-24T15:07:04.817176Z,-0.833008,-0.6372680000000001,-0.41522200000000004
2018-10-24T15:07:05.017176Z,-0.395081,-0.31054699999999996,-0.828735
2018-10-24T15:07:05.217176Z,0.45581099999999997,-1.470215,0.904907
2018-10-24T15:07:05.417176Z,-0.633179,-0.65271,-0.546326
2018-10-24T15:07:05.618176Z,-0.255188,-0.911133,0.49523900000000004
2018-10-24T15:07:05.817176Z,0.25054899999999997,-0.24658200000000002,-0.230225
2018-10-24T15:07:06.031176Z,-1.045654,-0.9742430000000001,-2.062927
2018-10-24T15:07:06.217176Z,-1.9251099999999999,-1.5385739999999999,-0.545959
2018-10-24T15:07:06.418176Z,-2.454956,-1.400635,0.5310060000000001
2018-10-24T15:07:06.621176Z,-1.0339969999999998,0.409912,-0.613525
2018-10-24T15:07:06.828176Z,-0.740295,-0.937683,0.226257
2018-10-24T15:07:07.017176Z,-0.14715599999999998,-0.9431149999999999,-0.275696
2018-10-24T15:07:07.250176Z,1.2658690000000001,-0.254089,-0.489075
2018-10-24T15:07:07.418176Z,0.656433,0.8502200000000001,0.166016
2018-10-24T15:07:07.618176Z,-1.455811,-0.655029,2.11731
2018-10-24T15:07:07.818176Z,-2.316589,-1.197327,-0.285217
2018-10-24T15:07:08.032176Z,-0.670471,-0.309143,-1.0789790000000001
2018-10-24T15:07:08.219176Z,-0.846741,0.322205,-0.845886
2018-10-24T15:07:08.422176Z,0.061157,-1.105713,-1.9016110000000002
2018-10-24T15:07:08.617176Z,0.460876,1.00824,-1.185425
2018-10-24T15:07:08.817176Z,-0.9389040000000001,0.211304,-1.112366
2018-10-24T15:07:09.017176Z,-1.262756,-1.053955,-0.126221
2018-10-24T15:07:09.217176Z,-0.598267,-0.278625,-0.835144
2018-10-24T15:07:09.417176Z,-1.320496,-0.080933,1.395569
2018-10-24T15:07:09.617176Z,-0.697815,-1.462097,0.405273
2018-10-24T15:07:09.819176Z,1.008057,-1.520203,-0.097717
2018-10-24T15:07:10.020176Z,-0.01178,-0.691284,-0.760559
2018-10-24T15:07:10.218176Z,0.28436300000000003,-0.35754400000000003,-1.075928
2018-10-24T15:07:10.418176Z,-0.24768099999999998,0.9419559999999999,0.289246
2018-10-24T15:07:10.618176Z,-1.109985,0.25354,0.7406010000000001
2018-10-24T15:07:11.018176Z,-1.820129,0.14856,0.22052
2018-10-24T15:07:11.218176Z,-1.3027950000000001,0.098755,-1.5599370000000001
2018-10-24T15:07:11.418176Z,0.370605,-0.173767,0.297791
2018-10-24T15:07:11.619176Z,0.6518550000000001,-1.4622190000000002,-0.241394
2018-10-24T15:07:11.818176Z,-0.203552,0.153015,-0.596191
2018-10-24T15:07:12.017176Z,-0.45599399999999995,0.23120100000000002,1.2109379999999998
2018-10-24T15:07:12.217176Z,0.490662,-1.690857,1.412231
2018-10-24T15:07:12.417176Z,-0.890503,-0.826233,-1.16095
2018-10-24T15:07:12.617176Z,-1.185486,-0.325439,0.089172
2018-10-24T15:07:12.817176Z,0.002686,-1.859314,-0.8203739999999999
2018-10-24T15:07:13.017176Z,1.347351,-0.6216430000000001,-0.235413
2018-10-24T15:07:13.218176Z,0.9515379999999999,-0.233093,0.940308
2018-10-24T15:07:13.419176Z,2.601501,-2.140198,0.15826400000000002
2018-10-24T15:07:13.620176Z,1.572266,-0.5387569999999999,0.019104
2018-10-24T15:07:13.820176Z,-0.677002,0.37188699999999997,-0.477905
2018-10-24T15:07:14.018176Z,0.56311,1.610657,0.365173
2018-10-24T15:07:14.218176Z,0.504089,0.23645,-0.274475
2018-10-24T15:07:14.418176Z,0.359558,1.718384,-1.504883
2018-10-24T15:07:14.617176Z,0.7893680000000001,2.784424,1.0825200000000001
2018-10-24T15:07:14.821176Z,-0.273987,0.22534200000000001,-0.967041
2018-10-24T15:07:15.019176Z,-0.14111300000000002,0.9334110000000001,-1.002441
2018-10-24T15:07:15.218176Z,0.42266800000000004,1.4652100000000001,0.036011
2018-10-24T15:07:15.417176Z,0.007324,0.27002,-0.933838
2018-10-24T15:07:15.617176Z,-0.256592,1.395508,-1.4176030000000002
2018-10-24T15:07:15.818176Z,-0.984253,1.343872,-0.21337899999999999
2018-10-24T15:07:16.021176Z,-0.973389,0.718018,-0.987366
2018-10-24T15:07:16.218176Z,-0.37744099999999997,0.65918,-1.390747
2018-10-24T15:07:16.417176Z,-0.396729,-0.200256,0.377625
2018-10-24T15:07:16.617176Z,-0.472473,0.284973,-1.206177
2018-10-24T15:07:16.824176Z,-0.776123,0.059937,-0.098572
2018-10-24T15:07:17.028176Z,-0.5527340000000001,0.449646,-0.8295290000000001
2018-10-24T15:07:17.219176Z,-0.8399049999999999,0.504089,-0.775818
2018-10-24T15:07:17.419176Z,0.353577,0.8392940000000001,-0.066467
2018-10-24T15:07:17.618176Z,-0.476562,-0.785767,1.385498
2018-10-24T15:07:17.818176Z,0.6076050000000001,0.45874,-0.819458
2018-10-24T15:07:18.018176Z,0.009276999999999999,0.584595,0.549683
2018-10-24T15:07:18.218176Z,0.31189,0.164734,-0.787964
2018-10-24T15:07:18.422176Z,-0.214417,-1.189758,-0.074646
2018-10-24T15:07:18.621176Z,-0.718811,-0.010071,-0.902222
2018-10-24T15:07:18.818176Z,-0.14599600000000001,0.46777299999999994,-0.344971
2018-10-24T15:07:19.017176Z,0.102234,-0.748962,0.372375
2018-10-24T15:07:19.217176Z,0.070862,-0.405273,-0.380127
2018-10-24T15:07:19.418176Z,0.24334699999999998,0.072021,-0.344666
2018-10-24T15:07:19.617176Z,2.20575,1.707397,-0.06591799999999999
2018-10-24T15:07:19.817176Z,-2.656189,-1.717041,1.008057
2018-10-24T15:07:20.017176Z,-0.05304,-1.358948,0.829041
2018-10-24T15:07:20.217176Z,-0.229309,-0.75415,0.320129
2018-10-24T15:07:20.418176Z,-0.339478,0.350525,0.202209
2018-10-24T15:07:20.623176Z,-0.06219500000000001,0.5646359999999999,-0.169128
2018-10-24T15:07:20.820176Z,-0.20471199999999998,0.096497,-0.334045
2018-10-24T15:07:21.018176Z,0.047241000000000005,-0.371948,0.0070799999999999995
2018-10-24T15:07:21.218176Z,0.44000200000000006,0.044312,-0.395569
2018-10-24T15:07:21.444176Z,0.8905639999999999,-0.292236,-0.140503
2018-10-24T15:07:21.623176Z,0.251526,-0.107483,0.17028800000000002
2018-10-24T15:07:21.818176Z,-0.7030029999999999,-0.674927,0.489807
2018-10-24T15:07:22.018176Z,-1.069519,-0.07775900000000001,0.047546
2018-10-24T15:07:22.217176Z,-0.268494,0.859375,0.311462
2018-10-24T15:07:22.437176Z,-0.266479,-0.469421,1.2166139999999999
2018-10-24T15:07:22.623176Z,0.5394899999999999,-1.051392,-0.514099
2018-10-24T15:07:22.817176Z,-0.015625,-0.23986799999999997,-0.867188
2018-10-24T15:07:23.017176Z,0.983765,0.649353,-0.26886
2018-10-24T15:07:23.218176Z,-1.164368,-0.280579,0.631653
2018-10-24T15:07:23.419176Z,-0.586975,-1.633789,-0.278931
2018-10-24T15:07:23.618176Z,-0.992065,-1.333191,0.47876
2018-10-24T15:07:23.817176Z,-0.586792,-0.515076,-0.650269
2018-10-24T15:07:24.018176Z,-0.394775,-0.52179,-0.5690310000000001
2018-10-24T15:07:24.219176Z,-0.7964479999999999,-0.359741,0.6672359999999999
2018-10-24T15:07:24.418176Z,-0.963562,-0.559937,-0.23474099999999998
2018-10-24T15:07:24.618176Z,-0.363037,-0.107178,0.6956180000000001
2018-10-24T15:07:24.818176Z,-0.8741459999999999,-0.38574200000000003,-0.403503
2018-10-24T15:07:25.037176Z,-0.9162600000000001,0.405029,-0.032104
2018-10-24T15:07:25.217176Z,-1.007629,0.591187,-0.16626
2018-10-24T15:07:25.418176Z,-0.680847,0.235474,-0.378052
2018-10-24T15:07:25.832176Z,-0.305847,-0.8890379999999999,1.415771
2018-10-24T15:07:26.018176Z,0.592407,-0.545227,-1.528015
2018-10-24T15:07:26.217176Z,0.276611,0.592102,-0.066528
2018-10-24T15:07:26.417176Z,-0.9599,0.100952,-0.476501
2018-10-24T15:07:26.617176Z,-0.91095,-2.011536,-0.095093
2018-10-24T15:07:26.817176Z,-0.8227540000000001,-1.0534059999999998,-0.451538
2018-10-24T15:07:27.018176Z,-0.436584,0.2323,0.149048
2018-10-24T15:07:27.218176Z,-0.9340209999999999,-2.034363,1.906189
2018-10-24T15:07:27.420176Z,-0.356506,-1.7730099999999998,-0.47363299999999997
2018-10-24T15:07:27.618176Z,-0.72821,-1.4776610000000001,1.539246
2018-10-24T15:07:27.819176Z,0.009399,-1.007263,0.385864
2018-10-24T15:07:28.018176Z,0.883484,-0.700684,-0.160522
2018-10-24T15:07:28.217176Z,0.23876999999999998,-0.11566199999999999,-0.451599
2018-10-24T15:07:28.418176Z,-0.13305699999999998,0.243286,0.082275
2018-10-24T15:07:28.618176Z,-0.83075,-0.43011499999999997,0.920959
2018-10-24T15:07:28.818176Z,-1.32489,-1.187805,0.45752
2018-10-24T15:07:29.018176Z,-0.506653,-0.315002,-1.231567
2018-10-24T15:07:29.217176Z,0.11480699999999999,0.6577149999999999,-0.158203
2018-10-24T15:07:29.417176Z,-0.594788,-2.010437,1.954163
2018-10-24T15:07:29.617176Z,-0.108948,-0.7361449999999999,-1.7872919999999999
2018-10-24T15:07:29.873176Z,-0.3573,-0.008179,0.051940999999999994
2018-10-24T15:07:30.017176Z,0.659485,0.324219,0.365051
2018-10-24T15:07:30.218176Z,-1.258545,-1.984619,-0.954041
2018-10-24T15:07:30.420176Z,-0.027710000000000002,-2.259583,-0.709961
2018-10-24T15:07:30.617176Z,0.614136,-1.76709,0.574707
2018-10-24T15:07:30.817176Z,-0.063538,-0.825867,0.121155
2018-10-24T15:07:31.018176Z,-0.8240360000000001,-0.33197,-0.907349
2018-10-24T15:07:31.219176Z,1.9575810000000002,0.062927,-0.579224
2018-10-24T15:07:31.418176Z,2.517273,1.055603,-0.861816
2018-10-24T15:07:31.618176Z,1.779175,0.9922489999999999,-1.949768
2018-10-24T15:07:31.818176Z,1.387512,2.082092,2.725098
2018-10-24T15:07:32.027176Z,-0.786133,0.066101,-2.1073
2018-10-24T15:07:32.220176Z,-0.087952,-0.828735,-1.642639
2018-10-24T15:07:32.418176Z,0.245056,-0.25116,1.13269
2018-10-24T15:07:32.617176Z,-0.338379,1.034973,-0.308899
2018-10-24T15:07:32.827176Z,0.508606,1.412415,-0.8988649999999999
2018-10-24T15:07:33.021176Z,0.026733,0.629822,-0.338928
2018-10-24T15:07:33.231176Z,1.246887,0.340271,0.269287
2018-10-24T15:07:33.417176Z,0.221741,-0.175476,-0.322754
2018-10-24T15:07:33.618176Z,-0.5639649999999999,0.20544400000000002,0.097229
2018-10-24T15:07:33.817176Z,1.401489,-0.10504200000000001,-0.691772
2018-10-24T15:07:34.017176Z,0.749023,-0.09197999999999999,-0.141907
2018-10-24T15:07:34.218176Z,0.381897,0.569153,-0.432007
2018-10-24T15:07:34.418176Z,0.474182,0.499817,-0.003906
2018-10-24T15:07:34.618176Z,0.40075700000000003,-0.147095,-0.0224
2018-10-24T15:07:34.818176Z,-0.806763,-0.409058,-0.274414
2018-10-24T15:07:35.018176Z,-1.7156369999999999,-0.437378,0.225037
2018-10-24T15:07:35.218176Z,-0.369568,0.47973599999999994,-0.6704100000000001
2018-10-24T15:07:35.418176Z,-0.218506,0.886597,0.455078
2018-10-24T15:07:35.618176Z,-0.275574,0.9752200000000001,0.990784
2018-10-24T15:07:35.819176Z,0.178162,-2.275452,0.409973
2018-10-24T15:07:36.018176Z,-0.056152,-1.362,-1.312683
